sep=,
DeviceTag:,A
FirmwareVersion:,3.0.0
AppVersion:,2023.6.0
StartTime: ,2024-03-14_12:04:07_000 EDT
© Movella Technologies B. V. 2005-2024

PacketCounter,SampleTimeFine,Quat_W,Quat_X,Quat_Y,Quat_Z,Acc_X,Acc_Y,Acc_Z,Gyr_X,Gyr_Y,Gyr_Z
0,4110083451,0.844184,-0.087205,0.279095,-0.449286,0.00000000000000,0.00000000000000,0.00000000000000,0.00000000000000,0.00000000000000,0.00000000000000
1,4110100118,0.844269,-0.087255,0.279023,-0.449162,-3.96089816093445,-3.91872835159302,8.27888870239258,0.68990367650986,-0.20558671653271,1.84282088279724
2,4110116785,0.844411,-0.087096,0.278839,-0.449039,-3.91598677635193,-3.85239219665527,8.30096340179443,2.28005528450012,-0.31787279248238,2.35165548324585
3,4110133452,0.844556,-0.087292,0.278823,-0.448738,-3.93698334693909,-3.95480275154114,8.27241039276123,-0.63260167837143,-0.55043613910675,2.81122446060181
4,4110150119,0.844769,-0.087210,0.278584,-0.448502,-3.91960120201111,-4.03167247772217,8.25682735443115,1.83728873729706,-1.07103991508484,3.04057335853577
5,4110166786,0.845001,-0.087056,0.278266,-0.448292,-3.92200589179993,-3.91285753250122,8.30068206787109,2.56429219245911,-1.32698738574982,3.02614021301270
6,4110183453,0.845186,-0.087071,0.278082,-0.448054,-3.91780257225037,-3.92039799690247,8.26246738433838,1.08472335338593,-1.00153982639313,2.80541014671326
7,4110200120,0.845314,-0.087112,0.277974,-0.447873,-3.90198493003845,-3.97974753379822,8.26164817810059,0.76485931873322,-0.50083720684052,2.30495095252991
8,4110216787,0.845405,-0.087063,0.277886,-0.447763,-3.91667056083679,-3.98567557334900,8.26314163208008,1.34881603717804,0.01062927022576,1.95398008823395
9,4110233454,0.845463,-0.087004,0.277816,-0.447709,-3.92190241813660,-3.95628929138184,8.26160907745361,1.43977952003479,0.24396096169949,1.56136310100555
10,4110250121,0.845483,-0.086945,0.277786,-0.447702,-3.92622447013855,-3.92384386062622,8.30449390411377,1.38177943229675,0.57556849718094,1.18407487869263
11,4110266788,0.845480,-0.086986,0.277784,-0.447701,-3.92579174041748,-3.90984392166138,8.31292533874512,0.70802468061447,0.47478261590004,0.92505395412445
12,4110283455,0.845445,-0.087064,0.277823,-0.447727,-3.89676880836487,-3.92796325683594,8.27257537841797,0.40593561530113,0.67328095436096,0.61482000350952
13,4110300122,0.845398,-0.087153,0.277890,-0.447758,-3.90654397010803,-3.94345784187317,8.25945472717285,0.25838091969490,0.84151792526245,0.52279359102249
14,4110316789,0.845342,-0.087176,0.277950,-0.447822,-3.90257334709167,-3.94310474395752,8.26708221435547,0.72722142934799,1.04134833812714,0.42800104618073
15,4110333456,0.845287,-0.087180,0.277995,-0.447897,-3.93578147888184,-3.93801712989807,8.28850460052490,0.88677561283112,0.99699985980988,0.43295705318451
16,4110350123,0.845223,-0.087186,0.278033,-0.447991,-3.93451452255249,-3.90132331848145,8.29571628570557,0.93449217081070,0.99598830938339,0.25967434048653
17,4110366790,0.845164,-0.087318,0.278102,-0.448036,-3.92979049682617,-3.92484092712402,8.28332901000977,0.01739102229476,0.74175649881363,0.35033050179482
18,4110383457,0.845095,-0.087451,0.278170,-0.448098,-3.92080712318420,-3.94710278511047,8.29166507720947,0.02931373566389,0.75303894281387,0.24010622501373
19,4110400124,0.845030,-0.087641,0.278239,-0.448140,-3.92185854911804,-3.94022226333618,8.26772308349609,-0.34353673458099,0.55720430612564,0.25430849194527
20,4110416791,0.844998,-0.087733,0.278257,-0.448170,-3.89776611328125,-3.93117880821228,8.25040817260742,0.41069963574409,0.52456086874008,0.53402477502823
21,4110433458,0.844979,-0.087803,0.278282,-0.448177,-3.88915443420410,-3.92364764213562,8.25357246398926,0.46645843982697,0.57894939184189,0.77597516775131
22,4110450125,0.844965,-0.087840,0.278319,-0.448174,-3.91831636428833,-3.95713329315186,8.27332782745361,0.61925107240677,0.75621491670609,0.89060485363007
23,4110466792,0.844969,-0.087834,0.278325,-0.448164,-3.91364741325378,-3.94981813430786,8.27546119689941,0.93997329473495,0.64438992738724,1.09057605266571
24,4110483459,0.844952,-0.087866,0.278368,-0.448163,-3.91508579254150,-3.96789097785950,8.28235626220703,0.62017309665680,0.79331499338150,0.91288775205612
25,4110500126,0.844929,-0.087857,0.278362,-0.448211,-3.92114877700806,-3.93466281890869,8.29266166687012,1.10823583602905,0.68807238340378,0.62831789255142
26,4110516793,0.844921,-0.087933,0.278392,-0.448193,-3.91690921783447,-3.94167113304138,8.26439762115479,0.37673717737198,0.55343919992447,0.95485413074493
27,4110533460,0.844887,-0.088046,0.278445,-0.448203,-3.88690257072449,-3.97375893592834,8.27506065368652,0.11214520037174,0.62678116559982,0.67543250322342
28,4110550127,0.844851,-0.088059,0.278453,-0.448262,-3.90620017051697,-3.92478251457214,8.27314090728760,0.93826991319656,0.72481375932693,0.52572625875473
29,4110566794,0.844800,-0.088238,0.278561,-0.448256,-3.92461562156677,-3.93627071380615,8.27248764038086,-0.46614474058151,0.78054702281952,0.58284258842468
30,4110583461,0.844744,-0.088411,0.278631,-0.448285,-3.88625025749207,-4.02850437164307,8.25082206726074,-0.24490225315094,0.61291199922562,0.35479995608330
31,4110600128,0.844708,-0.088360,0.278596,-0.448383,-3.92067050933838,-3.95462417602539,8.27247619628906,1.52675998210907,0.70235139131546,0.37376609444618
32,4110616795,0.844644,-0.088495,0.278683,-0.448424,-3.91465163230896,-3.88761019706726,8.30325317382812,-0.08176214247942,0.82962095737457,0.39643338322639
33,4110633462,0.844602,-0.088740,0.278813,-0.448374,-3.90507745742798,-4.04310131072998,8.25625228881836,-0.99958050251007,0.65258592367172,0.76713877916336
34,4110650129,0.844599,-0.088596,0.278736,-0.448456,-3.90674757957458,-3.97821044921875,8.26371097564697,2.18728613853455,0.67182117700577,0.72481387853622
35,4110666796,0.844559,-0.088651,0.278781,-0.448493,-3.92650675773621,-3.87198519706726,8.29950046539307,0.53992849588394,0.80847764015198,0.56196826696396
36,4110683463,0.844526,-0.088844,0.278893,-0.448446,-3.91583776473999,-3.99348497390747,8.23410892486572,-0.64229613542557,0.68371826410294,0.89620119333267
37,4110700130,0.844529,-0.088761,0.278873,-0.448470,-3.87368035316467,-3.97359752655029,8.23590469360352,1.55296182632446,0.77678185701370,0.97820007801056
38,4110716797,0.844488,-0.088869,0.278960,-0.448471,-3.90089011192322,-3.98323106765747,8.25340747833252,0.03201587125659,0.86450541019440,0.70114761590958
39,4110733464,0.844466,-0.088892,0.278981,-0.448496,-3.93692827224731,-4.01597356796265,8.27396678924561,0.77086544036865,0.71018892526627,0.77551406621933
40,4110750131,0.844429,-0.088836,0.278945,-0.448598,-3.96185278892517,-3.91115641593933,8.32465839385986,1.53563523292542,0.67919760942459,0.42508119344711
41,4110766798,0.844361,-0.089107,0.279044,-0.448612,-3.93152165412903,-3.93275523185730,8.30657768249512,-0.93663710355759,0.49583619832993,0.23319081962109
42,4110783465,0.844295,-0.089272,0.279115,-0.448658,-3.88146185874939,-3.98433494567871,8.25978088378906,-0.14832955598831,0.70241540670395,0.18570487201214
43,4110800132,0.844252,-0.089419,0.279172,-0.448674,-3.87282514572144,-3.99470233917236,8.23247241973877,-0.06868685781956,0.59431713819504,0.49426108598709
44,4110816799,0.844203,-0.089517,0.279219,-0.448718,-3.90086627006531,-3.98878026008606,8.25945758819580,0.29831111431122,0.70765322446823,0.41488727927208
45,4110833466,0.844177,-0.089609,0.279227,-0.448744,-3.90991854667664,-3.98977446556091,8.27453422546387,0.38375508785248,0.39998072385788,0.67020744085312
46,4110850133,0.844136,-0.089740,0.279252,-0.448778,-3.91207385063171,-3.99579644203186,8.25506305694580,0.15421405434608,0.45406195521355,0.42243024706841
47,4110866800,0.844104,-0.089844,0.279261,-0.448813,-3.89530515670776,-3.99392986297607,8.28491401672363,0.36587741971016,0.43007567524910,0.49529844522476
48,4110883467,0.844068,-0.089964,0.279288,-0.448839,-3.89360618591309,-3.98709559440613,8.25878238677979,0.20501682162285,0.48489958047867,0.50486463308334
49,4110900134,0.844021,-0.090100,0.279341,-0.448868,-3.89981460571289,-3.98153829574585,8.22427558898926,0.02349965274334,0.61111903190613,0.45171836018562
50,4110916801,0.843980,-0.090249,0.279396,-0.448881,-3.87110137939453,-4.02111244201660,8.21861457824707,-0.08845985680819,0.55252993106842,0.54108107089996
51,4110933468,0.843987,-0.090206,0.279383,-0.448885,-3.90057492256165,-4.00196790695190,8.22914028167725,1.24846553802490,0.65412276983261,1.07143056392670
52,4110950135,0.843990,-0.090232,0.279382,-0.448875,-3.92768239974976,-3.99349951744080,8.25912475585938,0.77734541893005,0.51224112510681,1.01959025859833
53,4110966802,0.844000,-0.090244,0.279367,-0.448863,-3.92331027984619,-3.98531913757324,8.28491878509521,0.91261869668961,0.46137431263924,1.06062185764313
54,4110983469,0.843997,-0.090322,0.279398,-0.448833,-3.90287923812866,-3.99380373954773,8.24628829956055,0.34719291329384,0.54403930902481,1.00641262531281
55,4111000136,0.844002,-0.090291,0.279405,-0.448826,-3.88941502571106,-4.02306461334229,8.22722244262695,1.08485150337219,0.72793859243393,1.13489878177643
56,4111016803,0.844010,-0.090209,0.279390,-0.448837,-3.90754842758179,-4.00371265411377,8.25290298461914,1.48221969604492,0.74869757890701,1.13642263412476
57,4111033470,0.844014,-0.090167,0.279404,-0.448829,-3.90117168426514,-4.01782894134521,8.26084518432617,1.12759900093079,0.79661893844604,1.17221641540527
58,4111050137,0.844001,-0.090121,0.279386,-0.448874,-3.90398359298706,-3.99496960639954,8.25458621978760,1.34288656711578,0.69621717929840,0.77836996316910
59,4111066804,0.843985,-0.090076,0.279373,-0.448920,-3.90264797210693,-3.96372771263123,8.29617500305176,1.32370281219482,0.72749036550522,0.77173632383347
60,4111083471,0.843958,-0.090168,0.279416,-0.448926,-3.91642832756042,-3.99149179458618,8.26500797271729,0.27225017547607,0.62930405139923,0.72542846202850
61,4111100138,0.843944,-0.090142,0.279404,-0.448965,-3.91293716430664,-4.00265979766846,8.24121189117432,1.19969892501831,0.67005383968353,0.77384936809540
62,4111116805,0.843922,-0.090174,0.279446,-0.448973,-3.89183688163757,-4.00547599792480,8.26113319396973,0.62739586830139,0.79444193840027,0.86431342363358
63,4111133472,0.843915,-0.090161,0.279447,-0.448990,-3.88931274414062,-4.01063632965088,8.26077365875244,1.04992866516113,0.67974829673767,0.89994060993195
64,4111150139,0.843885,-0.090162,0.279453,-0.449041,-3.90457201004028,-3.95319700241089,8.26893138885498,1.00159752368927,0.73363733291626,0.60182160139084
65,4111166806,0.843853,-0.090331,0.279525,-0.449023,-3.90500545501709,-3.99262213706970,8.22597217559814,-0.29886820912361,0.56390208005905,0.70057141780853
66,4111183473,0.843823,-0.090367,0.279518,-0.449077,-3.90303182601929,-4.00812149047852,8.23333740234375,0.84398961067200,0.54893130064011,0.52112877368927
67,4111200140,0.843796,-0.090416,0.279543,-0.449101,-3.90031814575195,-4.00138044357300,8.26744842529297,0.61371868848801,0.67485618591309,0.68784189224243
68,4111216807,0.843792,-0.090444,0.279527,-0.449113,-3.92224097251892,-4.03198003768921,8.25917053222656,0.85520809888840,0.44019263982773,0.85605323314667
69,4111233474,0.843799,-0.090357,0.279485,-0.449143,-3.90050268173218,-3.97805976867676,8.25491046905518,1.61847901344299,0.61817526817322,1.03240931034088
70,4111250141,0.843805,-0.090442,0.279532,-0.449085,-3.88719248771667,-4.00973892211914,8.24156188964844,0.20044499635696,0.56586134433746,1.21854972839355
71,4111266808,0.843817,-0.090373,0.279482,-0.449108,-3.89342331886292,-4.00736427307129,8.24433326721191,1.55712401866913,0.52673792839050,1.00105953216553
72,4111283475,0.843841,-0.090384,0.279439,-0.449087,-3.91779518127441,-3.97508835792542,8.26954841613770,0.99064785242081,0.26866436004639,1.14122509956360
73,4111300142,0.843841,-0.090421,0.279429,-0.449087,-3.90008664131165,-3.98820614814758,8.26255702972412,0.76713883876801,0.44103792309761,0.91430938243866
74,4111316809,0.843847,-0.090457,0.279423,-0.449072,-3.92062520980835,-4.00321483612061,8.25507450103760,0.72555655241013,0.43522375822067,1.04070806503296
75,4111333476,0.843845,-0.090481,0.279427,-0.449068,-3.89901375770569,-4.02960491180420,8.25620746612549,0.77981692552567,0.55894589424133,0.98615294694901
76,4111350143,0.843857,-0.090406,0.279372,-0.449095,-3.89299750328064,-4.02195978164673,8.27359771728516,1.62237226963043,0.52641773223877,0.95914429426193
77,4111366810,0.843876,-0.090394,0.279332,-0.449087,-3.88582897186279,-3.97860646247864,8.25013160705566,1.13488602638245,0.36979615688324,1.09995007514954
78,4111383477,0.843876,-0.090409,0.279322,-0.449089,-3.89903926849365,-4.00757646560669,8.25024127960205,0.87970668077469,0.49023991823196,0.98187565803528
79,4111400144,0.843889,-0.090371,0.279273,-0.449103,-3.90651798248291,-3.98187255859375,8.25648880004883,1.33992826938629,0.41342741250992,1.03230714797974
80,4111416811,0.843875,-0.090443,0.279308,-0.449094,-3.88777089118958,-3.98608946800232,8.26863479614258,0.38672614097595,0.59526473283768,0.91163271665573
81,4111433478,0.843858,-0.090518,0.279353,-0.449083,-3.90761160850525,-4.02655172348022,8.26209163665771,0.33007088303566,0.65832322835922,0.90230971574783
82,4111450145,0.843848,-0.090471,0.279334,-0.449122,-3.91694164276123,-4.00703811645508,8.27455234527588,1.35115969181061,0.69190150499344,0.81523948907852
83,4111466812,0.843819,-0.090602,0.279385,-0.449119,-3.90732431411743,-4.00966930389404,8.25027370452881,0.00471273669973,0.55027598142624,0.71088045835495
84,4111483479,0.843814,-0.090591,0.279360,-0.449146,-3.89211773872375,-4.01829862594604,8.25246810913086,1.13160753250122,0.52653312683105,0.83047896623611
85,4111500146,0.843795,-0.090582,0.279346,-0.449191,-3.89042830467224,-3.96066474914551,8.28260898590088,1.12211799621582,0.62293928861618,0.68344926834106
86,4111516813,0.843773,-0.090696,0.279403,-0.449175,-3.90099620819092,-4.01228523254395,8.25519561767578,0.06021545454860,0.61161834001541,0.84183818101883
87,4111533480,0.843765,-0.090717,0.279398,-0.449188,-3.88829159736633,-4.02156829833984,8.28447723388672,0.86244344711304,0.54512786865234,0.84917616844177
88,4111550147,0.843746,-0.090748,0.279407,-0.449214,-3.90959048271179,-4.00487375259399,8.25354290008545,0.77064782381058,0.61225879192352,0.74946606159210
89,4111566814,0.843772,-0.090769,0.279392,-0.449168,-3.88035416603088,-4.05132722854614,8.23615360260010,0.79280269145966,0.36600548028946,1.30362224578857
90,4111583481,0.843801,-0.090714,0.279336,-0.449161,-3.88652610778809,-4.04302787780762,8.25234603881836,1.45966768264771,0.41513061523438,1.16580045223236
91,4111600148,0.843813,-0.090627,0.279247,-0.449211,-3.92210316658020,-3.94631075859070,8.28763771057129,1.81350684165955,0.35035607218742,0.88827389478683
92,4111616815,0.843801,-0.090779,0.279323,-0.449155,-3.89671778678894,-3.97927308082581,8.26606273651123,-0.28256574273109,0.56954962015152,1.04355108737946
93,4111633482,0.843832,-0.090741,0.279329,-0.449102,-3.85308480262756,-4.04354190826416,8.23858451843262,1.07150733470917,0.68040132522583,1.45863020420074
94,4111650149,0.843850,-0.090643,0.279310,-0.449100,-3.89650487899780,-4.02394151687622,8.24901390075684,1.58479869365692,0.76968729496002,1.23362302780151
95,4111666816,0.843856,-0.090643,0.279280,-0.449107,-3.91094470024109,-3.99985575675964,8.29289627075195,1.04365360736847,0.41630885004997,0.97105431556702
96,4111683483,0.843834,-0.090782,0.279313,-0.449098,-3.93573045730591,-4.01973199844360,8.30057048797607,0.01631529070437,0.41283831000328,0.72291845083237
97,4111700150,0.843813,-0.090844,0.279280,-0.449147,-3.91887950897217,-4.00913763046265,8.25623607635498,0.76269495487213,0.29020470380783,0.52375406026840
98,4111716817,0.843777,-0.090935,0.279294,-0.449186,-3.87815713882446,-3.99493813514709,8.25194454193115,0.41251814365387,0.48545026779175,0.52307534217834
99,4111733484,0.843753,-0.091005,0.279314,-0.449205,-3.87132334709167,-4.00351572036743,8.23454761505127,0.51002568006516,0.57862931489944,0.67897987365723
100,4111750151,0.843779,-0.090944,0.279281,-0.449189,-3.85734820365906,-4.03348922729492,8.22500038146973,1.38769602775574,0.54251539707184,1.26676559448242
101,4111766818,0.843775,-0.090940,0.279287,-0.449195,-3.88084673881531,-3.99190950393677,8.30071163177490,0.95016717910767,0.66593021154404,0.97479385137558
102,4111783485,0.843756,-0.090954,0.279289,-0.449225,-3.89669942855835,-4.03024530410767,8.28347396850586,0.89572721719742,0.62287527322769,0.75567710399628
103,4111800152,0.843753,-0.090968,0.279317,-0.449212,-3.88590478897095,-4.01942873001099,8.23966312408447,0.74958127737045,0.72294402122498,1.05229783058167
104,4111816819,0.843746,-0.090934,0.279283,-0.449252,-3.90433454513550,-3.99691724777222,8.26749229431152,1.32667386531830,0.55539858341217,0.79165017604828
105,4111833486,0.843710,-0.091017,0.279310,-0.449287,-3.92227888107300,-3.97822618484497,8.27667140960693,0.42126491665840,0.59321576356888,0.54817581176758
106,4111850153,0.843684,-0.091146,0.279345,-0.449287,-3.89997196197510,-4.03547096252441,8.24128341674805,0.08829978108406,0.48255601525307,0.65846407413483
107,4111866820,0.843658,-0.091204,0.279343,-0.449327,-3.85218930244446,-4.04029083251953,8.24019432067871,0.68017083406448,0.49396649003029,0.56621992588043
108,4111883487,0.843628,-0.091283,0.279367,-0.449350,-3.88349080085754,-4.01729106903076,8.26144886016846,0.43846377730370,0.57561981678009,0.63044375181198
109,4111900154,0.843635,-0.091237,0.279320,-0.449376,-3.86616039276123,-3.97420120239258,8.25423812866211,1.41286075115204,0.48693588376045,0.92808902263641
110,4111916821,0.843625,-0.091366,0.279402,-0.449317,-3.88316297531128,-3.98492932319641,8.24792766571045,-0.16068767011166,0.67552214860916,1.08818113803864
111,4111933488,0.843617,-0.091444,0.279415,-0.449308,-3.92354965209961,-4.07497406005859,8.25929546356201,0.42378771305084,0.44892656803131,0.89136034250259
112,4111950155,0.843634,-0.091350,0.279319,-0.449355,-3.91353392601013,-3.99475979804993,8.26099395751953,1.88950014114380,0.33815169334412,0.89775079488754
113,4111966822,0.843606,-0.091557,0.279351,-0.449347,-3.89992904663086,-3.98319745063782,8.27182483673096,-0.37192842364311,0.22504600882530,0.54466682672501
114,4111983489,0.843556,-0.091784,0.279408,-0.449358,-3.86933827400208,-4.08652114868164,8.21986579895020,-0.55167835950851,0.34445238113403,0.37306177616119
115,4112000156,0.843557,-0.091715,0.279337,-0.449416,-3.87990665435791,-4.05124711990356,8.21270847320557,1.66880810260773,0.43380224704742,0.77025067806244
116,4112016823,0.843537,-0.091749,0.279356,-0.449435,-3.86037397384644,-4.00365400314331,8.26464080810547,0.71497851610184,0.66779994964600,0.77295285463333
117,4112033490,0.843520,-0.091833,0.279422,-0.449408,-3.86836028099060,-4.03595876693726,8.23689746856689,0.19265875220299,0.74865931272507,0.97300088405609
118,4112050157,0.843499,-0.091819,0.279440,-0.449438,-3.90690922737122,-4.02857971191406,8.24728393554688,1.01238048076630,0.81151270866394,0.80948942899704
119,4112066824,0.843493,-0.091838,0.279453,-0.449438,-3.88032007217407,-3.98160386085510,8.23750114440918,0.78962671756744,0.63429856300354,0.95603239536285
120,4112083491,0.843465,-0.091881,0.279515,-0.449442,-3.89305233955383,-4.04788589477539,8.24558067321777,0.50030571222305,0.89223122596741,0.83393669128418
121,4112100158,0.843410,-0.091971,0.279588,-0.449481,-3.90727066993713,-4.02948760986328,8.27163600921631,0.23466353118420,0.88434243202209,0.48682057857513
122,4112116825,0.843358,-0.092098,0.279660,-0.449509,-3.90603256225586,-4.05659675598145,8.25165367126465,0.00913092680275,0.74693036079407,0.47955939173698
123,4112133492,0.843321,-0.092137,0.279681,-0.449557,-3.87070679664612,-4.06242704391479,8.25864315032959,0.71262210607529,0.70597559213638,0.55368250608444
124,4112150159,0.843291,-0.092205,0.279716,-0.449578,-3.88265204429626,-4.02789163589478,8.26136398315430,0.46766224503517,0.67238456010818,0.67157781124115
125,4112166826,0.843277,-0.092188,0.279721,-0.449606,-3.88638782501221,-4.04589176177979,8.23245716094971,1.08440315723419,0.74476605653763,0.81244760751724
126,4112183493,0.843251,-0.092206,0.279734,-0.449641,-3.88277959823608,-4.02310132980347,8.25351333618164,0.84553933143616,0.69648611545563,0.69839435815811
127,4112200160,0.843214,-0.092295,0.279797,-0.449654,-3.87999725341797,-4.04544925689697,8.26755332946777,0.24361519515514,0.78660446405411,0.66681385040283
128,4112216827,0.843163,-0.092351,0.279847,-0.449705,-3.90549945831299,-4.05454969406128,8.24982547760010,0.51637762784958,0.83711266517639,0.50455731153488
129,4112233494,0.843122,-0.092392,0.279888,-0.449750,-3.88832283020020,-4.03910160064697,8.22321510314941,0.64237928390503,0.82776403427124,0.54881608486176
130,4112250161,0.843093,-0.092489,0.279916,-0.449766,-3.88215541839600,-4.07964229583740,8.22666168212891,0.30326718091965,0.52772408723831,0.66943913698196
131,4112266828,0.843074,-0.092398,0.279897,-0.449832,-3.88511991500854,-4.02876138687134,8.24872112274170,1.64393818378448,0.85418349504471,0.72430151700974
132,4112283495,0.843068,-0.092467,0.279939,-0.449805,-3.89468717575073,-4.04372501373291,8.24999427795410,0.36238127946854,0.63431137800217,1.02179300785065
133,4112300162,0.843046,-0.092455,0.279943,-0.449845,-3.87048554420471,-4.05501222610474,8.24543190002441,1.06824159622192,0.74157726764679,0.71757817268372
134,4112316829,0.843031,-0.092474,0.279931,-0.449876,-3.90772318840027,-4.02829217910767,8.26444244384766,0.92131453752518,0.52659714221954,0.73581439256668
135,4112333496,0.843015,-0.092530,0.279942,-0.449889,-3.88399815559387,-4.01518964767456,8.24551963806152,0.59882491827011,0.53723913431168,0.77856200933456
136,4112350163,0.842988,-0.092680,0.279992,-0.449876,-3.88733100891113,-4.06695604324341,8.24692821502686,-0.12106482684612,0.47578147053719,0.72875809669495
137,4112366830,0.842954,-0.092719,0.279990,-0.449934,-3.87199163436890,-4.06768894195557,8.20360374450684,0.82083582878113,0.57953852415085,0.47984108328819
138,4112383497,0.842966,-0.092750,0.279991,-0.449904,-3.89511656761169,-4.08760261535645,8.21116352081299,0.70587319135666,0.46798247098923,1.15465891361237
139,4112400164,0.842979,-0.092646,0.279915,-0.449948,-3.85509371757507,-4.06578969955444,8.22561264038086,1.87671935558319,0.49043196439743,0.94599229097366
140,4112416831,0.842961,-0.092652,0.279926,-0.449974,-3.90051221847534,-4.01847457885742,8.24132251739502,0.92424714565277,0.71614396572113,0.76873964071274
141,4112433498,0.842942,-0.092700,0.279962,-0.449977,-3.87496519088745,-4.04066896438599,8.25589942932129,0.55675601959229,0.71294218301773,0.83821398019791
142,4112450165,0.842931,-0.092682,0.279977,-0.449991,-3.89150810241699,-4.02154064178467,8.24071693420410,1.02608311176300,0.78683495521545,0.92114794254303
143,4112466832,0.842891,-0.092810,0.280070,-0.449982,-3.86347746849060,-4.10233974456787,8.23496055603027,-0.12646910548210,0.82686752080917,0.73192125558853
144,4112483499,0.842860,-0.092786,0.280070,-0.450047,-3.89752936363220,-4.09003877639771,8.22705841064453,1.17699313163757,0.77062213420868,0.59471404552460
145,4112500166,0.842841,-0.092759,0.280047,-0.450101,-3.89237022399902,-4.02110004425049,8.27314186096191,1.27088928222656,0.63048225641251,0.66500806808472
146,4112516833,0.842786,-0.092888,0.280132,-0.450125,-3.88464236259460,-4.04424953460693,8.22658157348633,-0.05321678146720,0.82303845882416,0.48265847563744
147,4112533500,0.842764,-0.092860,0.280145,-0.450163,-3.86361670494080,-4.05482482910156,8.21284484863281,1.14140427112579,0.85126364231110,0.74823653697968
148,4112550167,0.842754,-0.092875,0.280179,-0.450159,-3.87349653244019,-4.06419706344604,8.25102996826172,0.74339574575424,0.78394079208374,0.97398704290390
149,4112566834,0.842743,-0.092817,0.280168,-0.450198,-3.89477086067200,-4.03756952285767,8.25570678710938,1.38975799083710,0.77411830425262,0.83204144239426
150,4112583501,0.842726,-0.092840,0.280205,-0.450203,-3.89450812339783,-4.03560733795166,8.24111366271973,0.68581837415695,0.77577030658722,0.91223460435867
151,4112600168,0.842711,-0.092900,0.280258,-0.450185,-3.88751769065857,-4.07790660858154,8.26077651977539,0.39612603187561,0.75347441434860,0.96550917625427
152,4112616835,0.842716,-0.092800,0.280213,-0.450224,-3.88903641700745,-4.03903341293335,8.22650051116943,1.73391568660736,0.66199856996536,0.96403640508652
153,4112633502,0.842717,-0.092836,0.280252,-0.450190,-3.87631821632385,-4.01093721389771,8.22459983825684,0.54657500982285,0.69259297847748,1.17185795307159
154,4112650169,0.842716,-0.092864,0.280288,-0.450163,-3.88341665267944,-4.07888650894165,8.22797870635986,0.61466640233994,0.71517068147659,1.12307846546173
155,4112666836,0.842716,-0.092812,0.280288,-0.450174,-3.89250564575195,-4.07485008239746,8.25098133087158,1.27850914001465,0.78655326366425,1.02247202396393
156,4112683503,0.842693,-0.092868,0.280323,-0.450185,-3.91224622726440,-4.04912137985229,8.25737762451172,0.51499450206757,0.68146431446075,0.78394073247910
157,4112700170,0.842670,-0.092861,0.280335,-0.450221,-3.88398027420044,-4.03698205947876,8.26246452331543,0.99951004981995,0.76811206340790,0.74264025688171
158,4112716837,0.842658,-0.092897,0.280401,-0.450195,-3.86485886573792,-4.03845310211182,8.21020317077637,0.48069918155670,0.88694214820862,1.08427524566650
159,4112733504,0.842676,-0.092895,0.280423,-0.450149,-3.86440348625183,-4.11028528213501,8.22453689575195,0.79477494955063,0.66030824184418,1.36762857437134
160,4112750171,0.842699,-0.092716,0.280356,-0.450183,-3.90609097480774,-4.03137063980103,8.25606060028076,2.26171636581421,0.74657177925110,1.18760967254639
161,4112766838,0.842690,-0.092765,0.280376,-0.450179,-3.90559577941895,-4.01388549804688,8.25135898590088,0.59010380506516,0.59102588891983,0.90421801805496
162,4112783505,0.842646,-0.092935,0.280475,-0.450164,-3.87817835807800,-4.07749032974243,8.21410369873047,-0.41005289554596,0.72021627426147,0.70017433166504
163,4112800172,0.842617,-0.092931,0.280475,-0.450220,-3.90449142456055,-4.06321763992310,8.24550533294678,1.05483353137970,0.70424675941467,0.61035066843033
164,4112816839,0.842581,-0.093027,0.280534,-0.450231,-3.89354014396667,-4.06338024139404,8.23011875152588,0.19383688271046,0.72063887119293,0.69715201854706
165,4112833506,0.842549,-0.093070,0.280579,-0.450253,-3.88109779357910,-4.09551763534546,8.24632930755615,0.57999962568283,0.81536746025085,0.70655190944672
166,4112850173,0.842519,-0.093031,0.280583,-0.450314,-3.86684250831604,-4.05941772460938,8.22501277923584,1.24901616573334,0.83272004127502,0.65724748373032
167,4112866840,0.842489,-0.093038,0.280628,-0.450342,-3.87582397460938,-4.03861379623413,8.23345661163330,0.79094570875168,0.91284936666489,0.78054696321487
168,4112883507,0.842462,-0.093056,0.280695,-0.450346,-3.87644076347351,-4.05785179138184,8.22815513610840,0.61948156356812,0.99492537975311,0.90446132421494
169,4112900174,0.842425,-0.093112,0.280758,-0.450364,-3.90741324424744,-4.07831716537476,8.25430488586426,0.42661792039871,0.87427663803101,0.72636336088181
170,4112916841,0.842396,-0.093071,0.280805,-0.450397,-3.90511703491211,-4.06575679779053,8.22237873077393,1.07784640789032,1.07830750942230,0.83850860595703
171,4112933508,0.842363,-0.093126,0.280881,-0.450401,-3.91753816604614,-4.08104705810547,8.22666454315186,0.38112983107567,0.94157415628433,0.81561088562012
172,4112950175,0.842346,-0.093015,0.280864,-0.450467,-3.89547777175903,-4.06004142761230,8.22315025329590,1.75677514076233,0.92829388380051,0.76961040496826
173,4112966842,0.842301,-0.093080,0.280939,-0.450490,-3.89654159545898,-4.05182504653931,8.23613643646240,0.35490238666534,0.94171500205994,0.64949971437454
174,4112983509,0.842264,-0.093158,0.280990,-0.450512,-3.88147234916687,-4.08034563064575,8.22075462341309,0.34902423620224,0.75261628627777,0.63427287340164
175,4113000176,0.842251,-0.093137,0.281002,-0.450532,-3.88384652137756,-4.07211256027222,8.21762847900391,1.05386006832123,0.76307916641235,0.91474473476410
176,4113016843,0.842231,-0.093168,0.281056,-0.450529,-3.86462903022766,-4.06197071075439,8.22569274902344,0.58872073888779,0.87778568267822,0.91272139549255
177,4113033510,0.842217,-0.093155,0.281086,-0.450540,-3.89396786689758,-4.05731344223022,8.23699951171875,0.92901086807251,0.84064710140228,0.95316380262375
178,4113050177,0.842192,-0.093195,0.281157,-0.450534,-3.89762353897095,-4.05859899520874,8.21640396118164,0.46594622731209,0.93970423936844,0.92464399337769
179,4113066844,0.842200,-0.093199,0.281188,-0.450500,-3.91996622085571,-4.10414123535156,8.25265884399414,0.78274971246719,0.76286143064499,1.18996596336365
180,4113083511,0.842198,-0.093153,0.281181,-0.450517,-3.88948941230774,-4.08294391632080,8.22697925567627,1.25444614887238,0.70481032133102,1.01084363460541
181,4113100178,0.842194,-0.093143,0.281202,-0.450513,-3.89221835136414,-4.07704448699951,8.23772525787354,0.92414468526840,0.75985205173492,1.04972374439240
182,4113116845,0.842164,-0.093143,0.281218,-0.450559,-3.87283873558044,-4.05668926239014,8.23430061340332,0.95610910654068,0.77845954895020,0.66736447811127
183,4113133512,0.842139,-0.093232,0.281278,-0.450549,-3.87421584129333,-4.06333255767822,8.22984600067139,0.19720496237278,0.71385145187378,0.86263567209244
184,4113150179,0.842128,-0.093284,0.281291,-0.450553,-3.89219236373901,-4.09391975402832,8.22333049774170,0.61336010694504,0.55833119153976,0.83832925558090
185,4113166846,0.842121,-0.093324,0.281233,-0.450593,-3.94117379188538,-4.08997535705566,8.26684188842773,0.94843828678131,0.15872187912464,0.67740464210510
186,4113183513,0.842150,-0.093503,0.281048,-0.450616,-3.95975899696350,-4.00181341171265,8.29601955413818,0.55283725261688,-1.04732239246368,0.46805927157402
187,4113200180,0.842152,-0.093786,0.280913,-0.450638,-3.86621546745300,-3.94940686225891,8.27318382263184,-0.22786976397038,-1.03701329231262,0.23041184246540
188,4113216847,0.842138,-0.094471,0.280987,-0.450476,-3.87365007400513,-4.20010662078857,8.17681217193604,-3.58792352676392,-1.17190289497375,0.64705377817154
189,4113233514,0.842184,-0.094488,0.280671,-0.450582,-3.84573411941528,-4.10173177719116,8.20181941986084,2.06022167205811,-1.29679024219513,0.28865513205528
190,4113250181,0.842233,-0.094806,0.280525,-0.450516,-3.84225940704346,-4.00590848922729,8.23185825347900,-0.53747618198395,-1.36251246929169,0.82146340608597
191,4113266848,0.842243,-0.095218,0.280477,-0.450440,-3.84906339645386,-4.15049028396606,8.20764255523682,-1.42768394947052,-1.00680315494537,0.63607853651047
192,4113283515,0.842261,-0.095337,0.280313,-0.450483,-3.88226842880249,-4.12202024459839,8.23223781585693,0.85187834501266,-0.72850841283798,0.48570638895035
193,4113300182,0.842248,-0.095613,0.280257,-0.450483,-3.87371921539307,-4.08347463607788,8.23492145538330,-0.48663488030434,-0.54138195514679,0.38153958320618
194,4113316849,0.842226,-0.095824,0.280249,-0.450484,-3.83656597137451,-4.12525177001953,8.20967006683350,-0.26653215289116,-0.04818389192224,0.51610875129700
195,4113333516,0.842226,-0.095886,0.280245,-0.450474,-3.82463455200195,-4.11581993103027,8.21083068847656,0.57998681068420,0.38554796576500,0.93513244390488
196,4113350183,0.842221,-0.095896,0.280250,-0.450479,-3.83345651626587,-4.12030410766602,8.20967483520508,0.88038533926010,0.62032681703568,0.92998439073563
197,4113366850,0.842211,-0.095890,0.280262,-0.450492,-3.82678079605103,-4.09650135040283,8.18923282623291,0.96161592006683,0.72020351886749,0.92000812292099
198,4113383517,0.842202,-0.095888,0.280282,-0.450495,-3.85887002944946,-4.09959220886230,8.22496032714844,0.89636754989624,0.74782687425613,0.96557319164276
199,4113400184,0.842197,-0.095887,0.280300,-0.450494,-3.86460208892822,-4.09198141098022,8.23704147338867,0.89559930562973,0.73459786176682,0.99489969015121
200,4113416851,0.842181,-0.095897,0.280315,-0.450512,-3.85418558120728,-4.08551120758057,8.22665786743164,0.85227531194687,0.68967318534851,0.86155998706818
201,4113433518,0.842161,-0.095991,0.280383,-0.450487,-3.87701058387756,-4.13372611999512,8.23516941070557,0.13739933073521,0.74684077501297,0.92721813917160
202,4113450185,0.842138,-0.095935,0.280392,-0.450537,-3.86098551750183,-4.14472055435181,8.20779609680176,1.31850349903107,0.90844410657883,0.74900501966476
203,4113466852,0.842122,-0.095923,0.280413,-0.450557,-3.84908747673035,-4.10869073867798,8.25272369384766,0.99277389049530,0.81827455759048,0.85313349962234
204,4113483519,0.842094,-0.095951,0.280415,-0.450601,-3.83932352066040,-4.08514881134033,8.22414588928223,0.83708715438843,0.61120873689651,0.60789185762405
205,4113500186,0.842069,-0.096054,0.280428,-0.450618,-3.86719965934753,-4.09324121475220,8.23065853118896,0.33355414867401,0.42978107929230,0.62418144941330
206,4113516853,0.842057,-0.096207,0.280428,-0.450607,-3.85210800170898,-4.12664270401001,8.21492004394531,0.02876306138933,0.15201136469841,0.72194510698318
207,4113533520,0.842044,-0.096246,0.280382,-0.450652,-3.87560081481934,-4.11069536209106,8.22344017028809,0.91433489322662,0.25360411405563,0.64486372470856
208,4113550187,0.842041,-0.096384,0.280383,-0.450627,-3.87277054786682,-4.12826204299927,8.23221588134766,0.09718738496304,0.17018356919289,0.87600547075272
209,4113566854,0.842040,-0.096435,0.280331,-0.450651,-3.85650539398193,-4.13266372680664,8.22970294952393,0.85656547546387,0.16940239071846,0.71732211112976
210,4113583521,0.842048,-0.096477,0.280293,-0.450651,-3.84022831916809,-4.11309862136841,8.19709968566895,0.82946729660034,0.25001838803291,0.90074741840363
211,4113600188,0.842047,-0.096509,0.280295,-0.450644,-3.81814289093018,-4.12570905685425,8.21180343627930,0.76142710447311,0.53956985473633,0.93260961771011
212,4113616855,0.842037,-0.096511,0.280312,-0.450652,-3.84977650642395,-4.11450052261353,8.20343112945557,0.90058094263077,0.73792749643326,0.91059559583664
213,4113633522,0.842036,-0.096479,0.280321,-0.450655,-3.83899307250977,-4.11842918395996,8.20441818237305,1.10404825210571,0.75292378664017,1.05707454681396
214,4113650189,0.842037,-0.096436,0.280327,-0.450659,-3.84594082832336,-4.14915657043457,8.21296310424805,1.19772672653198,0.79559451341629,1.03448414802551
215,4113666856,0.842027,-0.096369,0.280329,-0.450691,-3.86547756195068,-4.09498167037964,8.22585201263428,1.38407182693481,0.87017858028412,0.90588277578354
216,4113683523,0.841988,-0.096389,0.280403,-0.450713,-3.85802268981934,-4.09375429153442,8.23083209991455,0.60668796300888,1.05508959293365,0.77817785739899
217,4113700190,0.841933,-0.096486,0.280494,-0.450739,-3.84884977340698,-4.14505004882812,8.21952533721924,0.11719090491533,0.95085859298706,0.55480945110321
218,4113716857,0.841916,-0.096418,0.280489,-0.450788,-3.86068248748779,-4.13838148117065,8.19946861267090,1.44623374938965,0.87028104066849,0.77117276191711
219,4113733524,0.841900,-0.096407,0.280510,-0.450808,-3.83955240249634,-4.11616516113281,8.20854091644287,0.95555865764618,0.78342843055725,0.90515291690826
220,4113750191,0.841892,-0.096303,0.280497,-0.450852,-3.86760663986206,-4.09250974655151,8.23279666900635,1.66706669330597,0.90325754880905,0.90617734193802
221,4113766858,0.841887,-0.096327,0.280544,-0.450828,-3.85468196868896,-4.11050987243652,8.21671485900879,0.60648316144943,0.79001092910767,1.12087583541870
222,4113783525,0.841879,-0.096246,0.280550,-0.450857,-3.85661101341248,-4.12739181518555,8.21451759338379,1.42925262451172,0.91123580932617,0.99206930398941
223,4113800192,0.841864,-0.096190,0.280585,-0.450874,-3.84805560112000,-4.08868408203125,8.22287464141846,1.19642031192780,1.04256486892700,0.95559692382812
224,4113816859,0.841856,-0.096169,0.280655,-0.450849,-3.86368894577026,-4.13347530364990,8.21879100799561,0.78473466634750,1.06542432308197,1.22856450080872
225,4113833526,0.841862,-0.096090,0.280637,-0.450867,-3.85811424255371,-4.14365339279175,8.22432422637939,1.49181151390076,0.74280667304993,1.06571865081787
226,4113850193,0.841870,-0.095978,0.280563,-0.450922,-3.88166189193726,-4.06999588012695,8.25703239440918,1.93547499179840,0.54441076517105,0.87170267105103
227,4113866860,0.841857,-0.096153,0.280584,-0.450896,-3.88693690299988,-4.07844638824463,8.24950885772705,-0.18955318629742,0.19715376198292,0.78721904754639
228,4113883527,0.841841,-0.096249,0.280567,-0.450915,-3.86131691932678,-4.12486553192139,8.22191143035889,0.47630649805069,0.26737096905708,0.61382108926773
229,4113900194,0.841813,-0.096453,0.280603,-0.450902,-3.85387802124023,-4.15122890472412,8.20482063293457,-0.39679831266403,0.22224137187004,0.63186526298523
230,4113916861,0.841807,-0.096513,0.280539,-0.450939,-3.85882449150085,-4.16450214385986,8.22051906585693,0.86231547594070,0.08394561707973,0.61666411161423
231,4113933528,0.841802,-0.096532,0.280459,-0.450994,-3.85555505752563,-4.08783149719238,8.23106765747070,1.18597042560577,0.13150840997696,0.56972891092300
232,4113950195,0.841762,-0.096749,0.280495,-0.451000,-3.82121324539185,-4.11171197891235,8.22972869873047,-0.44446355104446,0.21918064355850,0.46325683593750
233,4113966862,0.841752,-0.096856,0.280481,-0.451006,-3.83113265037537,-4.18321704864502,8.18454933166504,0.38097608089447,0.21832263469696,0.71526020765305
234,4113983529,0.841761,-0.096776,0.280388,-0.451063,-3.82863759994507,-4.09165287017822,8.22805595397949,1.80692470073700,0.33734485507011,0.79010045528412
235,4114000196,0.841738,-0.096918,0.280456,-0.451034,-3.81998825073242,-4.13681221008301,8.20949077606201,-0.15601336956024,0.58202302455902,0.86812967061996
236,4114016863,0.841741,-0.096886,0.280433,-0.451049,-3.84002017974854,-4.18296527862549,8.20012569427490,1.22373628616333,0.57109910249710,0.98817640542984
237,4114033530,0.841750,-0.096776,0.280397,-0.451078,-3.84812808036804,-4.07539844512939,8.25286293029785,1.75795316696167,0.74591875076294,1.03059101104736
238,4114050197,0.841734,-0.096889,0.280476,-0.451035,-3.86041784286499,-4.14615869522095,8.20080471038818,-0.05923577770591,0.71048355102539,1.05159354209900
239,4114066864,0.841756,-0.096731,0.280406,-0.451071,-3.81867432594299,-4.12015819549561,8.19571018218994,2.15915036201477,0.67038679122925,1.12174665927887
240,4114083531,0.841751,-0.096693,0.280445,-0.451065,-3.84183430671692,-4.08562088012695,8.22093486785889,1.03555989265442,0.95555871725082,1.11689317226410
241,4114100198,0.841748,-0.096706,0.280503,-0.451032,-3.84243106842041,-4.16740989685059,8.20831203460693,0.62464249134064,0.88808190822601,1.18949210643768
242,4114116865,0.841749,-0.096597,0.280454,-0.451084,-3.88373708724976,-4.12414169311523,8.25571155548096,1.81044661998749,0.67835241556168,0.91943192481995
243,4114133532,0.841738,-0.096643,0.280424,-0.451113,-3.89367628097534,-4.06714487075806,8.26536846160889,0.82270544767380,0.33688381314278,0.68302661180496
244,4114150199,0.841712,-0.096893,0.280417,-0.451112,-3.86372351646423,-4.12690734863281,8.26010894775391,-0.50724023580551,-0.16892212629318,0.44691598415375
245,4114166866,0.841716,-0.097031,0.280332,-0.451127,-3.83994174003601,-4.12116384506226,8.21616077423096,0.45030969381332,-0.29895782470703,0.58083206415176
246,4114183533,0.841731,-0.097257,0.280247,-0.451105,-3.83583140373230,-4.14546251296997,8.21853828430176,-0.15126219391823,-0.65455168485641,0.72901421785355
247,4114200200,0.841785,-0.097419,0.280004,-0.451118,-3.83002042770386,-4.12506484985352,8.22551727294922,0.81252443790436,-1.40714251995087,0.64408254623413
248,4114216867,0.841821,-0.097656,0.279845,-0.451099,-3.80611872673035,-4.12991714477539,8.20392799377441,0.04714017361403,-1.13546860218048,0.66215234994888
249,4114233534,0.841853,-0.097916,0.279719,-0.451061,-3.80217528343201,-4.15332841873169,8.19158649444580,-0.21196432411671,-1.01336002349854,0.71935838460922
250,4114250201,0.841887,-0.098095,0.279602,-0.451031,-3.81435513496399,-4.14520025253296,8.21541786193848,0.24000380933285,-0.70185846090317,0.84122353792191
251,4114266868,0.841910,-0.098195,0.279523,-0.451016,-3.82004451751709,-4.18416023254395,8.21136188507080,0.60364007949829,-0.20530499517918,0.90415388345718
252,4114283535,0.841935,-0.098222,0.279422,-0.451027,-3.83251690864563,-4.17932462692261,8.23535442352295,1.13847172260284,-0.11239492893219,0.90359038114548
253,4114300202,0.841941,-0.098213,0.279347,-0.451063,-3.80878901481628,-4.12668132781982,8.23485183715820,1.29970383644104,0.21471127867699,0.78032940626144
254,4114316869,0.841930,-0.098226,0.279344,-0.451082,-3.81583070755005,-4.14054965972900,8.22502136230469,0.89001578092575,0.56344097852707,0.86079156398773
255,4114333536,0.841917,-0.098228,0.279374,-0.451088,-3.77859163284302,-4.13695955276489,8.21417522430420,0.85005992650986,0.80832397937775,0.93613141775131
256,4114350203,0.841926,-0.098132,0.279372,-0.451093,-3.80264902114868,-4.15322351455688,8.20966529846191,1.51029121875763,0.87216371297836,1.19891786575317
257,4114366870,0.841938,-0.098033,0.279369,-0.451094,-3.80127191543579,-4.12625551223755,8.22572326660156,1.54354929924011,0.87879741191864,1.21133995056152
258,4114383537,0.841951,-0.097949,0.279390,-0.451075,-3.83752727508545,-4.11023139953613,8.22727394104004,1.34912347793579,0.95922130346298,1.29887127876282
259,4114400204,0.841943,-0.097928,0.279429,-0.451070,-3.82916736602783,-4.14755249023438,8.24291706085205,0.93170034885406,0.91448867321014,1.06765246391296
260,4114416871,0.841931,-0.097891,0.279460,-0.451081,-3.82220506668091,-4.15438652038574,8.23578739166260,1.07864034175873,0.93806511163712,0.98444968461990
261,4114433538,0.841911,-0.097859,0.279471,-0.451118,-3.82566857337952,-4.14222049713135,8.22691345214844,1.16361045837402,0.84502696990967,0.76941829919815
262,4114450205,0.841916,-0.097866,0.279436,-0.451129,-3.81647443771362,-4.12268543243408,8.22588920593262,1.04096412658691,0.38134750723839,0.90804696083069
263,4114466872,0.841911,-0.097915,0.279414,-0.451141,-3.80835342407227,-4.09174442291260,8.22849464416504,0.74449706077576,0.34164777398109,0.80650544166565
264,4114483539,0.841905,-0.098018,0.279419,-0.451128,-3.82068681716919,-4.12857484817505,8.20868587493896,0.30657121539116,0.32380855083466,0.85627096891403
265,4114500206,0.841915,-0.098073,0.279383,-0.451120,-3.81172156333923,-4.16622638702393,8.22441959381104,0.73530215024948,0.20911489427090,0.94086974859238
266,4114516873,0.841917,-0.098073,0.279351,-0.451135,-3.82117319107056,-4.12016630172729,8.24712944030762,1.08354520797729,0.43272653222084,0.88225501775742
267,4114533540,0.841908,-0.098139,0.279376,-0.451122,-3.82657122612000,-4.15275192260742,8.21936035156250,0.45036086440086,0.55523204803467,0.94223999977112
268,4114550207,0.841907,-0.098148,0.279351,-0.451138,-3.81880450248718,-4.16985464096069,8.21075534820557,0.99742257595062,0.44316375255585,0.87382853031158
269,4114566874,0.841904,-0.098150,0.279312,-0.451168,-3.81143450737000,-4.11841964721680,8.23133373260498,1.11425483226776,0.40635830163956,0.77694839239120
270,4114583541,0.841903,-0.098213,0.279337,-0.451140,-3.81074452400208,-4.16282510757446,8.21723842620850,0.44879856705666,0.54001820087433,1.05261802673340
271,4114600208,0.841904,-0.098206,0.279333,-0.451142,-3.79938554763794,-4.18625354766846,8.21333789825439,1.00089299678802,0.60426765680313,1.00451719760895
272,4114616875,0.841905,-0.098112,0.279287,-0.451190,-3.83544373512268,-4.10725069046021,8.21533966064453,1.71720314025879,0.65358483791351,0.88354837894440
273,4114633542,0.841886,-0.098157,0.279324,-0.451192,-3.82764077186584,-4.11317682266235,8.23331546783447,0.56377393007278,0.72542846202850,0.86848819255829
274,4114650209,0.841861,-0.098224,0.279361,-0.451201,-3.79859614372253,-4.17009401321411,8.20289802551270,0.42651551961899,0.65471184253693,0.78837174177170
275,4114666876,0.841850,-0.098207,0.279344,-0.451236,-3.80220723152161,-4.14896059036255,8.24191761016846,1.17555892467499,0.61980175971985,0.75351279973984
276,4114683543,0.841848,-0.098159,0.279334,-0.451256,-3.82026743888855,-4.11806917190552,8.24431514739990,1.30985927581787,0.74312692880630,0.90931493043900
277,4114700210,0.841842,-0.098195,0.279353,-0.451248,-3.80610704421997,-4.14502811431885,8.23519039154053,0.64415943622589,0.59561055898666,1.00027847290039
278,4114716877,0.841839,-0.098172,0.279363,-0.451253,-3.80086350440979,-4.15017604827881,8.21555137634277,1.04793083667755,0.73418802022934,1.03089845180511
279,4114733544,0.841832,-0.098140,0.279373,-0.451267,-3.80637264251709,-4.13065242767334,8.23190307617188,1.12820100784302,0.79578661918640,0.95216500759125
280,4114750211,0.841797,-0.098222,0.279440,-0.451272,-3.81782531738281,-4.14056682586670,8.22122287750244,0.24618923664093,0.81071871519089,0.75187355279922
281,4114766878,0.841771,-0.098238,0.279479,-0.451293,-3.81303906440735,-4.16634654998779,8.21434211730957,0.75830239057541,0.85304385423660,0.78956270217896
282,4114783545,0.841752,-0.098157,0.279456,-0.451360,-3.81152606010437,-4.14468860626221,8.22664356231689,1.60101127624512,0.80439239740372,0.69950836896896
283,4114800212,0.841721,-0.098182,0.279486,-0.451394,-3.82043313980103,-4.10926055908203,8.23984527587891,0.75675278902054,0.79346865415573,0.65795189142227
284,4114816879,0.841674,-0.098268,0.279563,-0.451415,-3.81442165374756,-4.13421821594238,8.21694183349609,0.21865561604500,0.89303797483444,0.61841863393784
285,4114833546,0.841656,-0.098274,0.279579,-0.451437,-3.80323219299316,-4.16949701309204,8.19731330871582,0.88352280855179,0.71505528688431,0.83625459671021
286,4114850213,0.841643,-0.098179,0.279559,-0.451495,-3.79411983489990,-4.12336635589600,8.22296810150146,1.64448881149292,0.83863645792007,0.80819582939148
287,4114866880,0.841619,-0.098182,0.279588,-0.451520,-3.81539392471313,-4.10405254364014,8.21274662017822,0.88630187511444,0.84570568799973,0.76788163185120
288,4114883547,0.841605,-0.098237,0.279610,-0.451521,-3.81720876693726,-4.16594362258911,8.20643138885498,0.55350321531296,0.59576421976089,0.84930425882339
289,4114900214,0.841598,-0.098191,0.279603,-0.451549,-3.81149649620056,-4.15173959732056,8.22962284088135,1.29190468788147,0.75726515054703,0.87379008531570
290,4114916881,0.841572,-0.098218,0.279636,-0.451570,-3.81715154647827,-4.13843536376953,8.21117305755615,0.71108543872833,0.77739667892456,0.76164489984512
291,4114933548,0.841548,-0.098235,0.279651,-0.451602,-3.81824350357056,-4.14382362365723,8.21931743621826,0.86107331514359,0.72200924158096,0.69149160385132
292,4114950215,0.841548,-0.098215,0.279653,-0.451607,-3.82386326789856,-4.12409734725952,8.21032333374023,1.07023942470551,0.69583302736282,0.99847263097763
293,4114966882,0.841520,-0.098272,0.279737,-0.451594,-3.80031490325928,-4.15642976760864,8.21027374267578,0.31834030151367,0.97051644325256,0.91246527433395
294,4114983549,0.841537,-0.098202,0.279724,-0.451584,-3.79475784301758,-4.19126987457275,8.21574592590332,1.39097440242767,0.71867948770523,1.21484875679016
295,4115000216,0.841546,-0.098045,0.279717,-0.451607,-3.79743432998657,-4.11087226867676,8.22559547424316,1.93350279331207,1.06091642379761,1.17213964462280
296,4115016883,0.841520,-0.098119,0.279826,-0.451573,-3.82035160064697,-4.18007469177246,8.22502040863037,0.07241991162300,1.01378905773163,1.09742736816406
297,4115033550,0.841506,-0.098041,0.279824,-0.451615,-3.86324834823608,-4.16272068023682,8.23859405517578,1.48501145839691,0.89978694915771,0.84332370758057
298,4115050217,0.841471,-0.098068,0.279840,-0.451664,-3.85446023941040,-4.09739875793457,8.27672958374023,0.80745321512222,0.72039562463760,0.55885630846024
299,4115066884,0.841426,-0.098232,0.279936,-0.451654,-3.82251644134521,-4.16329002380371,8.22709178924561,-0.35202732682228,0.72473698854446,0.67977386713028
300,4115083551,0.841400,-0.098273,0.279947,-0.451687,-3.80570101737976,-4.18233251571655,8.21789264678955,0.71470957994461,0.60880094766617,0.66919577121735
301,4115100218,0.841410,-0.098221,0.279910,-0.451702,-3.78581571578979,-4.12835359573364,8.18751907348633,1.39739048480988,0.55150538682938,1.00558018684387
302,4115116885,0.841415,-0.098225,0.279935,-0.451677,-3.80664920806885,-4.12446355819702,8.21028804779053,0.80361127853394,0.71852588653564,1.15563225746155
303,4115133552,0.841415,-0.098233,0.279974,-0.451650,-3.81272459030151,-4.16643476486206,8.21269226074219,0.72240620851517,0.79012614488602,1.17887556552887
304,4115150219,0.841440,-0.098174,0.279954,-0.451628,-3.83140373229980,-4.18374824523926,8.22694778442383,1.33421647548676,0.62382286787033,1.27973842620850
305,4115166886,0.841452,-0.098133,0.279947,-0.451620,-3.83789205551147,-4.14189338684082,8.22567749023438,1.21109664440155,0.67522758245468,1.12809872627258
306,4115183553,0.841451,-0.098145,0.279974,-0.451603,-3.84256505966187,-4.14150571823120,8.23015022277832,0.76457750797272,0.72713178396225,1.07994675636292
307,4115200220,0.841428,-0.098168,0.280005,-0.451622,-3.82301020622253,-4.16601943969727,8.22288608551025,0.74750667810440,0.78716790676117,0.76789438724518
308,4115216887,0.841399,-0.098190,0.280034,-0.451654,-3.81160402297974,-4.15500259399414,8.22231483459473,0.77075022459030,0.78916567564011,0.68685579299927
309,4115233554,0.841372,-0.098176,0.280049,-0.451697,-3.81896305084229,-4.12547683715820,8.20845317840576,1.06429731845856,0.83183646202087,0.67841631174088
310,4115250221,0.841339,-0.098217,0.280119,-0.451706,-3.81952404975891,-4.14650869369507,8.21604061126709,0.47911119461060,0.94674789905548,0.82300013303757
311,4115266888,0.841308,-0.098182,0.280160,-0.451746,-3.79577112197876,-4.11858606338501,8.18708610534668,1.06792140007019,1.03253757953644,0.78272408246994
312,4115283555,0.841275,-0.098262,0.280272,-0.451721,-3.80344295501709,-4.16129398345947,8.20709419250488,0.06669546663761,1.05893146991730,0.95559692382812
313,4115300222,0.841269,-0.098167,0.280300,-0.451735,-3.83158898353577,-4.18544483184814,8.21361064910889,1.41900765895844,1.07465779781342,1.11927509307861
314,4115316889,0.841257,-0.098076,0.280309,-0.451772,-3.84037971496582,-4.12340164184570,8.23338508605957,1.50487399101257,0.98470580577850,0.93664360046387
315,4115333556,0.841222,-0.098142,0.280382,-0.451777,-3.83525252342224,-4.13787317276001,8.23553943634033,0.30846658349037,0.87624895572662,0.82438319921494
316,4115350223,0.841178,-0.098196,0.280434,-0.451815,-3.82613730430603,-4.14727544784546,8.21574020385742,0.51517379283905,0.85061055421829,0.57011306285858
317,4115366890,0.841161,-0.098240,0.280465,-0.451818,-3.81528353691101,-4.15229606628418,8.22637176513672,0.58573693037033,0.68635636568069,0.86010009050369
318,4115383557,0.841159,-0.098287,0.280487,-0.451798,-3.81404232978821,-4.17213821411133,8.22612380981445,0.56805127859116,0.58345735073090,1.03228151798248
319,4115400224,0.841179,-0.098236,0.280419,-0.451814,-3.83715081214905,-4.15201902389526,8.21048164367676,1.49405276775360,0.34438833594322,1.01903963088989
320,4115416891,0.841178,-0.098315,0.280413,-0.451802,-3.82795858383179,-4.12550640106201,8.20861244201660,0.48281213641167,0.31763583421707,0.91121023893356
321,4115433558,0.841165,-0.098423,0.280451,-0.451780,-3.80850720405579,-4.18352460861206,8.23278141021729,0.15236996114254,0.50258523225784,0.90852093696594
322,4115450225,0.841173,-0.098426,0.280406,-0.451792,-3.84891557693481,-4.16794919967651,8.20980739593506,1.10595643520355,0.34381207823753,0.88441938161850
323,4115466892,0.841176,-0.098448,0.280340,-0.451822,-3.83118247985840,-4.12652492523193,8.20403671264648,1.08026695251465,0.16699481010437,0.75809752941132
324,4115483559,0.841162,-0.098535,0.280345,-0.451826,-3.80880427360535,-4.15261077880859,8.20694255828857,0.42105996608734,0.39715054631233,0.77641057968140
325,4115500226,0.841150,-0.098547,0.280329,-0.451856,-3.83093333244324,-4.16827774047852,8.22693634033203,0.97932726144791,0.52055245637894,0.74790364503860
326,4115516893,0.841142,-0.098586,0.280287,-0.451888,-3.83270239830017,-4.16165399551392,8.23725223541260,0.90959668159485,0.28910335898399,0.67367798089981
327,4115533560,0.841133,-0.098650,0.280281,-0.451894,-3.82467913627625,-4.15855789184570,8.21842002868652,0.59147405624390,0.37984913587570,0.83111923933029
328,4115550227,0.841136,-0.098652,0.280237,-0.451915,-3.81583881378174,-4.17099761962891,8.21268367767334,1.11334562301636,0.36016577482224,0.84999579191208
329,4115566894,0.841138,-0.098654,0.280206,-0.451931,-3.78971719741821,-4.15162706375122,8.21906471252441,1.07609200477600,0.43968042731285,0.86010009050369
330,4115583561,0.841135,-0.098675,0.280203,-0.451934,-3.79364132881165,-4.16998052597046,8.19463157653809,0.81626403331757,0.51098620891571,0.97178429365158
331,4115600228,0.841144,-0.098601,0.280156,-0.451963,-3.82168292999268,-4.15895509719849,8.21703624725342,1.55740571022034,0.55085223913193,1.00551617145538
332,4115616895,0.841146,-0.098612,0.280131,-0.451973,-3.80532097816467,-4.16207933425903,8.22106742858887,0.98731827735901,0.43766981363297,0.89721292257309
333,4115633562,0.841155,-0.098616,0.280095,-0.451977,-3.82455587387085,-4.17133617401123,8.22645282745361,1.05485904216766,0.37995156645775,0.95453399419785
334,4115650229,0.841157,-0.098568,0.280026,-0.452026,-3.81873631477356,-4.12557077407837,8.21833324432373,1.53142178058624,0.38863432407379,0.77072465419769
335,4115666896,0.841147,-0.098647,0.280043,-0.452018,-3.79386758804321,-4.14247608184814,8.21464920043945,0.40975192189217,0.46799516677856,0.87731176614761
336,4115683563,0.841156,-0.098621,0.280006,-0.452028,-3.80598306655884,-4.19682073593140,8.22358703613281,1.23961615562439,0.46083649992943,0.99591135978699
337,4115700230,0.841149,-0.098589,0.279969,-0.452071,-3.81959581375122,-4.13682556152344,8.22591686248779,1.31941258907318,0.53488284349442,0.77332431077957
338,4115716897,0.841136,-0.098636,0.279962,-0.452090,-3.82238650321960,-4.15753459930420,8.22395420074463,0.70487427711487,0.43646597862244,0.79115068912506
339,4115733564,0.841123,-0.098600,0.279949,-0.452130,-3.79622197151184,-4.16423130035400,8.21508502960205,1.26220655441284,0.69845831394196,0.78317230939865
340,4115750231,0.841118,-0.098601,0.279945,-0.452141,-3.82176065444946,-4.16467523574829,8.21618175506592,0.97268074750900,0.60746926069260,0.90699696540833
341,4115766898,0.841121,-0.098560,0.279909,-0.452167,-3.79068636894226,-4.16301155090332,8.20978927612305,1.35752439498901,0.55420756340027,0.88023161888123
342,4115783565,0.841122,-0.098566,0.279902,-0.452169,-3.80790305137634,-4.15539550781250,8.19992637634277,0.95463645458221,0.56483685970306,0.94382786750793
343,4115800232,0.841135,-0.098512,0.279846,-0.452191,-3.83193230628967,-4.18560457229614,8.21336936950684,1.49552547931671,0.45087310671806,0.95078176259995
344,4115816899,0.841135,-0.098439,0.279805,-0.452232,-3.80219388008118,-4.11748933792114,8.21297073364258,1.58027780056000,0.63548940420151,0.86134225130081
345,4115833566,0.841121,-0.098443,0.279819,-0.452249,-3.80030798912048,-4.13342142105103,8.20081996917725,0.89073294401169,0.70066106319427,0.87831073999405
346,4115850233,0.841111,-0.098452,0.279835,-0.452254,-3.81175541877747,-4.16847705841064,8.21269416809082,0.84459161758423,0.68949389457703,0.94467324018478
347,4115866900,0.841129,-0.098336,0.279775,-0.452285,-3.80724596977234,-4.15593719482422,8.22289085388184,1.86213302612305,0.60344809293747,1.07066214084625
348,4115883567,0.841112,-0.098377,0.279779,-0.452304,-3.83957934379578,-4.14659643173218,8.23990440368652,0.72004973888397,0.54713845252991,0.75951892137527
349,4115900234,0.841107,-0.098343,0.279751,-0.452338,-3.82421731948853,-4.14479207992554,8.20950412750244,1.30627322196960,0.60066902637482,0.80677443742752
350,4115916901,0.841095,-0.098327,0.279756,-0.452361,-3.79919123649597,-4.13693284988403,8.22121620178223,1.03577756881714,0.69583308696747,0.91484719514847
351,4115933568,0.841093,-0.098312,0.279755,-0.452369,-3.79509544372559,-4.15944862365723,8.19783210754395,1.03906893730164,0.64524793624878,0.99399048089981
352,4115950235,0.841115,-0.098196,0.279714,-0.452378,-3.79868268966675,-4.11992025375366,8.24515724182129,1.77867400646210,0.70519447326660,1.19060635566711
353,4115966902,0.841108,-0.098236,0.279755,-0.452357,-3.79964947700500,-4.15017700195312,8.24303054809570,0.53448581695557,0.71441507339478,1.06872820854187
354,4115983569,0.841104,-0.098240,0.279770,-0.452355,-3.80782532691956,-4.15823268890381,8.21574497222900,0.86622148752213,0.67625206708908,1.02012825012207
355,4116000236,0.841078,-0.098275,0.279801,-0.452376,-3.84821820259094,-4.19250488281250,8.22598075866699,0.63821727037430,0.71756535768509,0.80124211311340
356,4116016903,0.841055,-0.098274,0.279790,-0.452426,-3.83497190475464,-4.16633367538452,8.22761440277100,1.07511878013611,0.62578237056732,0.62443763017654
357,4116033570,0.841022,-0.098309,0.279769,-0.452493,-3.83742833137512,-4.13110923767090,8.26488494873047,0.90329581499100,0.47904711961746,0.44119152426720
358,4116050237,0.840999,-0.098432,0.279782,-0.452500,-3.83156323432922,-4.14938831329346,8.25663661956787,0.19465652108192,0.35272529721260,0.64835989475250
359,4116066904,0.840969,-0.098525,0.279771,-0.452543,-3.77750849723816,-4.18203830718994,8.21323585510254,0.50900119543076,0.35026648640633,0.46563893556595
360,4116083571,0.840972,-0.098577,0.279738,-0.452547,-3.79150843620300,-4.16718196868896,8.21735095977783,0.76170891523361,0.24964699149132,0.85881948471069
361,4116100238,0.840988,-0.098505,0.279664,-0.452578,-3.77338838577271,-4.12251472473145,8.21493816375732,1.65954923629761,0.39064487814903,0.96170556545258
362,4116116905,0.841010,-0.098427,0.279664,-0.452555,-3.77937579154968,-4.12340831756592,8.17466259002686,1.37468481063843,0.80403381586075,1.33239817619324
363,4116133572,0.841045,-0.098278,0.279663,-0.452522,-3.82228326797485,-4.15477037429810,8.21857738494873,1.75896489620209,0.97066998481750,1.59138107299805
364,4116150239,0.841060,-0.098163,0.279668,-0.452516,-3.82478356361389,-4.17107295989990,8.24612331390381,1.59617078304291,0.95927244424820,1.31019210815430
365,4116166906,0.841046,-0.098119,0.279662,-0.452555,-3.84040665626526,-4.13696289062500,8.27367019653320,1.28383672237396,0.75944215059280,0.81576448678970
366,4116183573,0.841025,-0.098165,0.279697,-0.452563,-3.82613825798035,-4.14225673675537,8.23178482055664,0.56111025810242,0.71182817220688,0.82790488004684
367,4116200240,0.840999,-0.098168,0.279707,-0.452604,-3.81350588798523,-4.16207456588745,8.21528720855713,0.96202576160431,0.73493081331253,0.67522758245468
368,4116216907,0.840977,-0.098150,0.279719,-0.452641,-3.80550789833069,-4.14004659652710,8.20683383941650,1.07237815856934,0.79741299152374,0.76452624797821
369,4116233574,0.840957,-0.098144,0.279762,-0.452654,-3.80877900123596,-4.12952518463135,8.20418548583984,0.86896210908890,0.94116431474686,0.86395484209061
370,4116250241,0.840927,-0.098176,0.279822,-0.452666,-3.79504966735840,-4.14899587631226,8.21154212951660,0.57902628183365,0.91916298866272,0.81808251142502
371,4116266908,0.840894,-0.098162,0.279857,-0.452708,-3.81532263755798,-4.15656661987305,8.21649932861328,0.95062810182571,0.92009776830673,0.74489414691925
372,4116283575,0.840877,-0.098172,0.279870,-0.452730,-3.82261872291565,-4.11884689331055,8.23671627044678,0.89623951911926,0.72134321928024,0.77475851774216
373,4116300242,0.840845,-0.098303,0.279942,-0.452715,-3.83694767951965,-4.19195032119751,8.21254920959473,-0.09846162050962,0.65549302101135,0.80658227205276
374,4116316909,0.840839,-0.098216,0.279886,-0.452781,-3.81678748130798,-4.17294406890869,8.20340538024902,1.73636138439178,0.60621410608292,0.73544299602509
375,4116333576,0.840797,-0.098277,0.279911,-0.452830,-3.80868935585022,-4.10630941390991,8.24766826629639,0.58477628231049,0.67196202278137,0.48294025659561
376,4116350243,0.840744,-0.098439,0.279988,-0.452844,-3.83063602447510,-4.18071651458740,8.20148372650146,-0.23355579376221,0.66922140121460,0.48474594950676
377,4116366910,0.840713,-0.098400,0.279973,-0.452921,-3.80565333366394,-4.15772676467896,8.20144176483154,1.33905756473541,0.74880009889603,0.53351253271103
378,4116383577,0.840684,-0.098492,0.280034,-0.452917,-3.80558633804321,-4.17533636093140,8.22063159942627,0.19461809098721,0.72793859243393,0.79245692491531
379,4116400244,0.840661,-0.098447,0.280029,-0.452972,-3.82277822494507,-4.18204402923584,8.18354225158691,1.31202328205109,0.79663175344467,0.68845653533936
380,4116416911,0.840645,-0.098427,0.280015,-0.453015,-3.83118748664856,-4.13196992874146,8.20815086364746,1.17965686321259,0.65103632211685,0.72814345359802
381,4116433578,0.840627,-0.098505,0.280057,-0.453006,-3.81175398826599,-4.15502452850342,8.22144699096680,0.33610263466835,0.63589930534363,0.87432801723480
382,4116450245,0.840635,-0.098468,0.280071,-0.452990,-3.80391311645508,-4.16604614257812,8.19862079620361,1.09280431270599,0.77849811315536,1.19323170185089
383,4116466912,0.840658,-0.098370,0.280053,-0.452980,-3.79767560958862,-4.11822271347046,8.21572494506836,1.57072448730469,0.76870119571686,1.27847075462341
384,4116483579,0.840672,-0.098393,0.280112,-0.452913,-3.80599212646484,-4.17134618759155,8.22790431976318,0.51083254814148,0.80587804317474,1.42591035366058
385,4116500246,0.840690,-0.098315,0.280085,-0.452913,-3.81445312500000,-4.18372583389282,8.23167228698730,1.51464533805847,0.68602323532104,1.13930404186249
386,4116516913,0.840703,-0.098330,0.280090,-0.452882,-3.83347487449646,-4.15408134460449,8.22476673126221,0.77789616584778,0.53275698423386,1.22017633914948
387,4116533580,0.840702,-0.098328,0.280112,-0.452871,-3.82380700111389,-4.15155887603760,8.24558830261230,0.86898773908615,0.74203836917877,1.06025063991547
388,4116550247,0.840679,-0.098376,0.280123,-0.452896,-3.81515002250671,-4.17252779006958,8.22494983673096,0.65661990642548,0.56879401206970,0.72109991312027
389,4116566914,0.840658,-0.098410,0.280143,-0.452916,-3.82993268966675,-4.17852687835693,8.20219707489014,0.69193994998932,0.64837270975113,0.80682569742203
390,4116583581,0.840659,-0.098338,0.280131,-0.452937,-3.79684805870056,-4.12950515747070,8.21551418304443,1.43579649925232,0.77547556161880,1.01346874237061
391,4116600248,0.840643,-0.098392,0.280195,-0.452915,-3.80053997039795,-4.19652175903320,8.22648906707764,0.38251283764839,0.82307684421539,1.01778459548950
392,4116616915,0.840656,-0.098256,0.280138,-0.452956,-3.80610275268555,-4.13297080993652,8.22181415557861,2.00268244743347,0.71463274955750,1.01221394538879
393,4116633582,0.840640,-0.098320,0.280230,-0.452914,-3.80420589447021,-4.11551237106323,8.22265434265137,0.19498948752880,0.93164914846420,1.14141702651978
394,4116650249,0.840624,-0.098420,0.280296,-0.452882,-3.82576251029968,-4.23413944244385,8.22110080718994,0.06919271498919,0.67025876045227,1.02240777015686
395,4116666916,0.840643,-0.098288,0.280222,-0.452921,-3.84540247917175,-4.17873716354370,8.24310970306396,2.03084397315979,0.58667171001434,1.02972018718719
396,4116683583,0.840628,-0.098302,0.280226,-0.452943,-3.82572889328003,-4.09637594223022,8.23552989959717,0.88034689426422,0.61955833435059,0.81182014942169
397,4116700250,0.840602,-0.098486,0.280338,-0.452882,-3.81953024864197,-4.19823503494263,8.23247528076172,-0.61247003078461,0.68510127067566,1.00623333454132
398,4116716917,0.840607,-0.098364,0.280290,-0.452929,-3.80380344390869,-4.17816638946533,8.21506690979004,1.90608453750610,0.75018316507339,0.91359215974808
399,4116733584,0.840616,-0.098406,0.280303,-0.452896,-3.81476569175720,-4.11710929870605,8.22854900360107,0.63582247495651,0.54053044319153,1.08797621726990
400,4116750251,0.840617,-0.098418,0.280342,-0.452866,-3.80620694160461,-4.19406747817993,8.20261955261230,0.68928897380829,0.76265656948090,1.19146442413330
401,4116766918,0.840636,-0.098346,0.280315,-0.452863,-3.82580828666687,-4.17048931121826,8.23538017272949,1.46899068355560,0.65910434722900,1.16411006450653
402,4116783585,0.840663,-0.098271,0.280284,-0.452848,-3.81030845642090,-4.17230272293091,8.19965362548828,1.46231842041016,0.60218006372452,1.29337716102600
403,4116800252,0.840683,-0.098208,0.280253,-0.452845,-3.82055377960205,-4.12936258316040,8.23209381103516,1.41775250434875,0.58874630928040,1.16997528076172
404,4116816919,0.840687,-0.098240,0.280271,-0.452820,-3.83665323257446,-4.17460441589355,8.23511791229248,0.65370011329651,0.58576244115829,1.11139905452728
405,4116833586,0.840671,-0.098214,0.280255,-0.452865,-3.80390667915344,-4.15222501754761,8.21273422241211,1.20561540126801,0.63756418228149,0.75862258672714
406,4116850253,0.840635,-0.098264,0.280304,-0.452891,-3.82603406906128,-4.13830566406250,8.24631977081299,0.52869731187820,0.81981122493744,0.67416459321976
407,4116866920,0.840594,-0.098320,0.280360,-0.452919,-3.82670569419861,-4.17033052444458,8.21663951873779,0.48465636372566,0.86866760253906,0.62369489669800
408,4116883587,0.840583,-0.098334,0.280377,-0.452926,-3.81831598281860,-4.21964836120605,8.20805072784424,0.82171940803528,0.69341260194778,0.88969546556473
409,4116900254,0.840581,-0.098176,0.280297,-0.453013,-3.81059598922729,-4.12746191024780,8.24222469329834,2.29809927940369,0.72217571735382,0.69980299472809
410,4116916921,0.840557,-0.098293,0.280365,-0.452991,-3.83486461639404,-4.13737058639526,8.24408817291260,-0.00329763488844,0.66540509462357,0.86236673593521
411,4116933588,0.840526,-0.098330,0.280390,-0.453025,-3.84189558029175,-4.17798995971680,8.22034931182861,0.69192707538605,0.72061330080032,0.65746521949768
412,4116950255,0.840496,-0.098410,0.280422,-0.453044,-3.81624770164490,-4.16104936599731,8.21305084228516,0.40163269639015,0.61487126350403,0.65919399261475
413,4116966922,0.840498,-0.098344,0.280399,-0.453069,-3.81989645957947,-4.15624809265137,8.18737125396729,1.44381344318390,0.68686860799789,0.98451370000839
414,4116983589,0.840498,-0.098347,0.280416,-0.453056,-3.81279587745667,-4.15168523788452,8.24773979187012,0.85760289430618,0.69470614194870,1.07081592082977
415,4117000256,0.840503,-0.098283,0.280385,-0.453081,-3.82332706451416,-4.15051031112671,8.21663093566895,1.46947729587555,0.64195668697357,0.94975721836090
416,4117016923,0.840513,-0.098313,0.280402,-0.453045,-3.81373238563538,-4.15288496017456,8.25257396697998,0.65765732526779,0.57121443748474,1.19499886035919
417,4117033590,0.840515,-0.098305,0.280420,-0.453032,-3.81575584411621,-4.18126726150513,8.22453212738037,0.91865062713623,0.72599190473557,1.09704315662384
418,4117050257,0.840523,-0.098241,0.280397,-0.453045,-3.80849742889404,-4.14357137680054,8.19455432891846,1.41010689735413,0.66326636075974,1.06466853618622
419,4117066924,0.840532,-0.098292,0.280419,-0.453004,-3.83118748664856,-4.17167091369629,8.21567440032959,0.50129175186157,0.51847791671753,1.20369446277618
420,4117083591,0.840521,-0.098231,0.280403,-0.453047,-3.81839156150818,-4.15551948547363,8.21075248718262,1.39737761020660,0.73832446336746,0.86053544282913
421,4117100258,0.840510,-0.098326,0.280459,-0.453012,-3.79509782791138,-4.16647958755493,8.22574234008789,0.14727300405502,0.63025164604187,1.01980781555176
422,4117116925,0.840506,-0.098290,0.280459,-0.453029,-3.81885433197021,-4.19995307922363,8.20876789093018,1.17206287384033,0.72827154397964,0.98433452844620
423,4117133592,0.840510,-0.098226,0.280414,-0.453062,-3.84509992599487,-4.13846206665039,8.23420715332031,1.53179311752319,0.57107353210449,0.89216709136963
424,4117150259,0.840486,-0.098262,0.280436,-0.453086,-3.82182502746582,-4.13402128219604,8.22379207611084,0.69648611545563,0.67876219749451,0.73699265718460
425,4117166926,0.840454,-0.098369,0.280506,-0.453079,-3.81359887123108,-4.17941331863403,8.22184371948242,0.07971951365471,0.74787795543671,0.76393711566925
426,4117183593,0.840454,-0.098303,0.280503,-0.453095,-3.81957578659058,-4.18541097640991,8.18096828460693,1.37369871139526,0.81810802221298,1.00774443149567
427,4117200260,0.840446,-0.098215,0.280477,-0.453146,-3.81008982658386,-4.11975860595703,8.21727848052979,1.60249674320221,0.74896651506424,0.88960582017899
428,4117216927,0.840441,-0.098314,0.280557,-0.453082,-3.82113599777222,-4.17115259170532,8.22256374359131,-0.00737005425617,0.71961450576782,1.22753989696503
429,4117233594,0.840456,-0.098209,0.280512,-0.453105,-3.80997300148010,-4.16724491119385,8.19631004333496,1.74740087985992,0.66073083877563,1.09133160114288
430,4117250261,0.840457,-0.098222,0.280554,-0.453075,-3.81497478485107,-4.16173744201660,8.22244548797607,0.65956544876099,0.77022516727448,1.21708989143372
431,4117266928,0.840462,-0.098136,0.280536,-0.453096,-3.83030629158020,-4.16826963424683,8.21672821044922,1.53631365299225,0.76318156719208,1.06471979618073
432,4117283595,0.840463,-0.098100,0.280541,-0.453098,-3.82780790328979,-4.13395977020264,8.21934032440186,1.11922383308411,0.72275197505951,1.11175763607025
433,4117300262,0.840459,-0.098145,0.280580,-0.453073,-3.82761812210083,-4.17426013946533,8.21294116973877,0.51233077049255,0.69071054458618,1.06733238697052
434,4117316929,0.840464,-0.098102,0.280592,-0.453065,-3.81023740768433,-4.17214584350586,8.22355937957764,1.13324689865112,0.78600257635117,1.16722214221954
435,4117333596,0.840472,-0.098021,0.280574,-0.453079,-3.84028887748718,-4.15036725997925,8.23036003112793,1.50358068943024,0.74607223272324,1.08779692649841
436,4117350263,0.840453,-0.098059,0.280614,-0.453080,-3.83178281784058,-4.13848018646240,8.23674106597900,0.59156370162964,0.76350170373917,0.87331616878510
437,4117366930,0.840441,-0.098082,0.280648,-0.453076,-3.82391119003296,-4.17754936218262,8.20145893096924,0.69026225805283,0.75467818975449,0.96944069862366
438,4117383597,0.840442,-0.098031,0.280645,-0.453088,-3.80295085906982,-4.14276838302612,8.21785259246826,1.27940559387207,0.75764930248260,1.01004970073700
439,4117400264,0.840412,-0.098127,0.280729,-0.453069,-3.82585716247559,-4.20682430267334,8.21502494812012,0.05355615168810,0.82413983345032,0.92131441831589
440,4117416931,0.840427,-0.098009,0.280649,-0.453118,-3.82367968559265,-4.13996076583862,8.22663402557373,1.99738085269928,0.53846859931946,0.90479433536530
441,4117433598,0.840406,-0.098053,0.280694,-0.453119,-3.81895709037781,-4.12820625305176,8.21671009063721,0.53768736124039,0.77104467153549,0.87279117107391
442,4117450265,0.840399,-0.098131,0.280740,-0.453088,-3.82952404022217,-4.21372222900391,8.20257759094238,0.28214949369431,0.61337292194366,1.05237448215485
443,4117466932,0.840405,-0.098000,0.280701,-0.453129,-3.81085324287415,-4.14484548568726,8.22227764129639,1.88797616958618,0.78574639558792,1.04178380966187
444,4117483599,0.840387,-0.098077,0.280771,-0.453101,-3.83341169357300,-4.15874528884888,8.20933151245117,0.21423743665218,0.78523421287537,1.01227796077728
445,4117500266,0.840362,-0.098120,0.280811,-0.453114,-3.82815575599670,-4.21282768249512,8.22221183776855,0.57658028602600,0.76666486263275,0.78099530935287
446,4117516933,0.840337,-0.098061,0.280770,-0.453197,-3.84720182418823,-4.16559648513794,8.24982166290283,1.55986475944519,0.66115349531174,0.52059102058411
447,4117533600,0.840306,-0.098112,0.280792,-0.453231,-3.82767009735107,-4.12599468231201,8.23842716217041,0.61401325464249,0.64359587430954,0.65628701448441
448,4117550267,0.840284,-0.098164,0.280846,-0.453228,-3.80801677703857,-4.16736459732056,8.17509651184082,0.45036089420319,0.78853821754456,0.89388316869736
449,4117566934,0.840290,-0.098088,0.280833,-0.453241,-3.79840993881226,-4.18048191070557,8.22160720825195,1.45878410339355,0.77281194925308,1.07374835014343
450,4117583601,0.840298,-0.098029,0.280830,-0.453240,-3.83689785003662,-4.13615703582764,8.21718311309814,1.28372108936310,0.74101376533508,1.17071795463562
451,4117600268,0.840301,-0.098074,0.280852,-0.453211,-3.83147096633911,-4.17152070999146,8.23542499542236,0.56518262624741,0.57600396871567,1.09508371353149
452,4117616935,0.840322,-0.098014,0.280796,-0.453221,-3.82552719116211,-4.17675781250000,8.22373104095459,1.49752342700958,0.43482679128647,1.08396780490875
453,4117633602,0.840333,-0.097965,0.280765,-0.453230,-3.81469607353210,-4.12555408477783,8.21319675445557,1.33948028087616,0.55548822879791,1.07308256626129
454,4117650269,0.840332,-0.098040,0.280813,-0.453186,-3.83147597312927,-4.16678524017334,8.21745491027832,0.26445111632347,0.61636954545975,1.16101098060608
455,4117666936,0.840351,-0.097970,0.280780,-0.453187,-3.83197736740112,-4.17788505554199,8.21943569183350,1.47082185745239,0.59431701898575,1.16521120071411
456,4117683603,0.840359,-0.097939,0.280750,-0.453197,-3.84466004371643,-4.15386104583740,8.22219467163086,1.24192142486572,0.52379256486893,0.99825501441956
457,4117700270,0.840339,-0.097955,0.280738,-0.453238,-3.83219480514526,-4.15526103973389,8.22309970855713,0.93102163076401,0.53315395116806,0.71316003799438
458,4117716937,0.840324,-0.098063,0.280777,-0.453217,-3.83222579956055,-4.18097496032715,8.20046043395996,0.15286940336227,0.51462316513062,0.88534146547318
459,4117733604,0.840317,-0.098029,0.280753,-0.453252,-3.81698036193848,-4.16662454605103,8.19315910339355,1.28650033473969,0.61894369125366,0.80733793973923
460,4117750271,0.840307,-0.098044,0.280777,-0.453253,-3.79171323776245,-4.14965581893921,8.20396518707275,0.78009879589081,0.71710437536240,0.94961637258530
461,4117766938,0.840302,-0.098078,0.280811,-0.453234,-3.81563830375671,-4.18125486373901,8.19241523742676,0.61047869920731,0.70399063825607,1.03083419799805
462,4117783605,0.840299,-0.098043,0.280779,-0.453267,-3.81832623481750,-4.14727830886841,8.20117473602295,1.29515731334686,0.54572981595993,0.87936085462570
463,4117800272,0.840299,-0.098058,0.280783,-0.453262,-3.83643507957458,-4.13136529922485,8.19992733001709,0.83147794008255,0.57523566484451,1.00223779678345
464,4117816939,0.840278,-0.098147,0.280841,-0.453245,-3.82044339179993,-4.17504024505615,8.22355651855469,0.19528400897980,0.69049268960953,0.91713947057724
465,4117833606,0.840279,-0.098100,0.280808,-0.453274,-3.83195257186890,-4.17854881286621,8.19321155548096,1.37764310836792,0.58249682188034,0.89695680141449
466,4117850273,0.840266,-0.098097,0.280806,-0.453301,-3.83299279212952,-4.13513469696045,8.22161960601807,1.01092052459717,0.64859038591385,0.81240922212601
467,4117866940,0.840251,-0.098155,0.280839,-0.453295,-3.81852841377258,-4.18001222610474,8.20730400085449,0.48738411068916,0.63824290037155,0.89702081680298
468,4117883607,0.840245,-0.098133,0.280846,-0.453306,-3.81208443641663,-4.17266988754272,8.19555473327637,1.06139028072357,0.73238241672516,0.97711169719696
469,4117900274,0.840235,-0.098108,0.280841,-0.453333,-3.80852890014648,-4.13054990768433,8.20249176025391,1.14269757270813,0.69083851575851,0.86856502294540
470,4117916941,0.840230,-0.098147,0.280886,-0.453306,-3.82020759582520,-4.16211700439453,8.20836639404297,0.52021956443787,0.72900140285492,1.10456049442291
471,4117933608,0.840222,-0.098165,0.280929,-0.453291,-3.82886409759521,-4.20435714721680,8.19502067565918,0.68367975950241,0.81637918949127,1.02768397331238
472,4117950275,0.840225,-0.098071,0.280880,-0.453336,-3.82565498352051,-4.15925359725952,8.22676944732666,1.72952294349670,0.64556801319122,0.89194929599762
473,4117966942,0.840213,-0.098108,0.280908,-0.453333,-3.82315278053284,-4.14112138748169,8.20155811309814,0.63842219114304,0.67844194173813,0.92020034790039
474,4117983609,0.840218,-0.098093,0.280911,-0.453325,-3.82777476310730,-4.18300533294678,8.18539142608643,1.01759254932404,0.66987448930740,1.06629514694214
475,4118000276,0.840220,-0.098054,0.280918,-0.453325,-3.82526969909668,-4.18170213699341,8.20546913146973,1.14802539348602,0.76040267944336,1.08948743343353
476,4118016943,0.840222,-0.097961,0.280881,-0.453365,-3.83655095100403,-4.14776563644409,8.19855785369873,1.68111515045166,0.71551632881165,0.92281270027161
477,4118033610,0.840225,-0.098010,0.280914,-0.453328,-3.83568000793457,-4.14996194839478,8.20964431762695,0.48311957716942,0.60492080450058,1.16877150535583
478,4118050277,0.840224,-0.098003,0.280912,-0.453333,-3.81356739997864,-4.18978595733643,8.20770072937012,0.99502772092819,0.62395095825195,0.97402530908585
479,4118066944,0.840237,-0.097889,0.280855,-0.453369,-3.84960794448853,-4.15701484680176,8.20860576629639,1.85384738445282,0.61917418241501,1.03135943412781
480,4118083611,0.840238,-0.097946,0.280882,-0.453337,-3.81779623031616,-4.13118839263916,8.22341823577881,0.46758547425270,0.56002163887024,1.09763228893280
481,4118100278,0.840234,-0.097987,0.280905,-0.453321,-3.82806777954102,-4.19660902023315,8.20550346374512,0.60744363069534,0.61877721548080,1.00765478610992
482,4118116945,0.840237,-0.097896,0.280881,-0.453350,-3.82344293594360,-4.15756130218506,8.20560169219971,1.60066545009613,0.75957006216049,1.00382554531097
483,4118133612,0.840226,-0.097963,0.280931,-0.453326,-3.81848573684692,-4.16972637176514,8.22011184692383,0.34992071986198,0.69649899005890,1.01168894767761
484,4118150279,0.840233,-0.097927,0.280907,-0.453336,-3.83101844787598,-4.15909671783447,8.20462608337402,1.24731290340424,0.57143217325211,1.01248288154602
485,4118166946,0.840212,-0.098015,0.280976,-0.453313,-3.81381440162659,-4.16901874542236,8.23378086090088,0.18443703651428,0.77903586626053,0.90078586339951
486,4118183613,0.840215,-0.097963,0.280958,-0.453330,-3.82567000389099,-4.19317913055420,8.19746875762939,1.33937776088715,0.67290967702866,0.99326062202454
487,4118200280,0.840214,-0.097882,0.280918,-0.453373,-3.82924294471741,-4.10615873336792,8.23062038421631,1.63211798667908,0.66835057735443,0.85894745588303
488,4118216947,0.840194,-0.098017,0.281007,-0.453325,-3.81741309165955,-4.17668533325195,8.21866607666016,-0.22308017313480,0.70673114061356,1.00903773307800
489,4118233614,0.840208,-0.097920,0.280952,-0.453357,-3.82736992835999,-4.16862010955811,8.20782279968262,1.76349854469299,0.60416519641876,0.98137623071671
490,4118250281,0.840202,-0.097929,0.280944,-0.453371,-3.82579398155212,-4.12691068649292,8.21523761749268,0.94592815637589,0.56144315004349,0.85977983474731
491,4118266948,0.840193,-0.098011,0.280992,-0.453339,-3.81888723373413,-4.19970464706421,8.20541667938232,0.25483351945877,0.63075113296509,1.02641618251801
492,4118283615,0.840198,-0.097942,0.280946,-0.453373,-3.81699275970459,-4.15931797027588,8.20817184448242,1.55457556247711,0.56377393007278,0.92027705907822
493,4118300282,0.840183,-0.097987,0.280971,-0.453376,-3.82210564613342,-4.16936159133911,8.20985984802246,0.60169357061386,0.64884650707245,0.86389082670212
494,4118316949,0.840172,-0.098031,0.280990,-0.453374,-3.85313868522644,-4.18573570251465,8.19660758972168,0.63336366415024,0.60800707340240,0.88562309741974
495,4118333616,0.840179,-0.097956,0.280951,-0.453401,-3.83211207389832,-4.14347934722900,8.21116161346436,1.54536783695221,0.61439740657806,0.99560403823853
496,4118350283,0.840177,-0.098027,0.280996,-0.453362,-3.83920240402222,-4.20533275604248,8.23031425476074,0.32635703682899,0.62608963251114,1.10266506671906
497,4118366950,0.840201,-0.097869,0.280916,-0.453403,-3.82463955879211,-4.14778280258179,8.20283985137939,2.18720912933350,0.60600930452347,1.11543297767639
498,4118383617,0.840202,-0.097858,0.280950,-0.453381,-3.80604100227356,-4.09577512741089,8.22013282775879,0.86061227321625,0.82188588380814,1.16951429843903
499,4118400284,0.840202,-0.097981,0.281025,-0.453308,-3.81980919837952,-4.24050426483154,8.17567348480225,-0.14211845397949,0.60671365261078,1.23463463783264
500,4118416951,0.840217,-0.097769,0.280908,-0.453399,-3.86825847625732,-4.17022037506104,8.23702621459961,2.72307801246643,0.63195490837097,0.84643560647964
501,4118433618,0.840192,-0.097869,0.280932,-0.453409,-3.86369609832764,-4.11501550674438,8.23732376098633,0.28928261995316,0.48153164982796,0.70136541128159
502,4118450285,0.840171,-0.097920,0.280940,-0.453431,-3.81173896789551,-4.18029689788818,8.20205497741699,0.65809273719788,0.54894423484802,0.70929253101349
503,4118466952,0.840174,-0.097936,0.280938,-0.453424,-3.81115841865540,-4.16487264633179,8.21359157562256,0.85182708501816,0.54875206947327,0.99826771020889
504,4118483619,0.840174,-0.097933,0.280924,-0.453432,-3.81064271926880,-4.15324211120605,8.19926548004150,1.00113654136658,0.51719725131989,0.99789643287659
505,4118500286,0.840194,-0.097917,0.280897,-0.453416,-3.81578373908997,-4.13054752349854,8.20395469665527,1.10462450981140,0.44925957918167,1.16273975372314
506,4118516953,0.840188,-0.097996,0.280947,-0.453379,-3.81176662445068,-4.20433282852173,8.20438575744629,0.22897753119469,0.60690569877625,1.12991702556610
507,4118533620,0.840214,-0.097918,0.280861,-0.453401,-3.82717132568359,-4.17852401733398,8.18933391571045,1.75146007537842,0.35488954186440,0.98500025272369
508,4118550287,0.840212,-0.097931,0.280851,-0.453409,-3.83250260353088,-4.11054992675781,8.22391510009766,0.91724193096161,0.51704359054565,0.90695840120316
509,4118566954,0.840192,-0.098056,0.280915,-0.453378,-3.82638406753540,-4.18084287643433,8.20071029663086,-0.04103795066476,0.61841869354248,0.90201514959335
510,4118583621,0.840206,-0.098012,0.280883,-0.453382,-3.83860087394714,-4.21884536743164,8.21487903594971,1.31726109981537,0.53188610076904,1.08319938182831
511,4118600288,0.840201,-0.097953,0.280836,-0.453433,-3.80488777160645,-4.15667200088501,8.21817779541016,1.51788556575775,0.55042982101440,0.79718255996704
512,4118616955,0.840196,-0.097948,0.280814,-0.453456,-3.81742358207703,-4.13786125183105,8.20886611938477,1.07702684402466,0.51847791671753,0.84824144840240
513,4118633622,0.840179,-0.098029,0.280841,-0.453454,-3.82953476905823,-4.17543125152588,8.20792675018311,0.37580230832100,0.53837895393372,0.82305133342743
514,4118650289,0.840175,-0.097996,0.280830,-0.453476,-3.81768774986267,-4.17392015457153,8.17734909057617,1.21387541294098,0.67581665515900,0.91265726089478
515,4118666956,0.840179,-0.098007,0.280846,-0.453456,-3.82453155517578,-4.16118001937866,8.20991897583008,0.79536390304565,0.64866715669632,1.10924744606018
516,4118683623,0.840187,-0.098005,0.280844,-0.453443,-3.82306861877441,-4.17648887634277,8.19684791564941,0.95042318105698,0.58030694723129,1.09318840503693
517,4118700290,0.840194,-0.097978,0.280824,-0.453447,-3.83383727073669,-4.17810487747192,8.19565582275391,1.14670610427856,0.53845578432083,1.09809327125549
518,4118716957,0.840202,-0.097962,0.280797,-0.453453,-3.81205034255981,-4.14770269393921,8.23496341705322,1.12665140628815,0.47610163688660,1.01540255546570
519,4118733624,0.840204,-0.097978,0.280810,-0.453438,-3.82649111747742,-4.17115783691406,8.20156574249268,0.78394073247910,0.61615192890167,1.07358181476593
520,4118750291,0.840205,-0.097913,0.280765,-0.453478,-3.81666207313538,-4.14182949066162,8.22164249420166,1.52229058742523,0.55396425724030,0.90393614768982
521,4118766958,0.840191,-0.098008,0.280834,-0.453440,-3.82092785835266,-4.17548751831055,8.21949672698975,0.09691846370697,0.71449190378189,1.03798031806946
522,4118783625,0.840193,-0.097931,0.280816,-0.453464,-3.82178592681885,-4.21655702590942,8.19106388092041,1.47991454601288,0.73877269029617,1.04015719890594
523,4118800292,0.840200,-0.097832,0.280768,-0.453502,-3.80898284912109,-4.14256429672241,8.20669174194336,1.73266065120697,0.63473391532898,0.98560225963593
524,4118816959,0.840201,-0.097869,0.280815,-0.453464,-3.80268716812134,-4.15982723236084,8.22272109985352,0.50649112462997,0.74023264646530,1.18504834175110
525,4118833626,0.840211,-0.097838,0.280823,-0.453447,-3.82000422477722,-4.19046258926392,8.20702552795410,1.07907593250275,0.72275197505951,1.17941355705261
526,4118850293,0.840224,-0.097744,0.280779,-0.453472,-3.82586383819580,-4.14723396301270,8.20577621459961,1.69552218914032,0.65198403596878,1.02724850177765
527,4118866960,0.840219,-0.097779,0.280796,-0.453462,-3.83863759040833,-4.12859296798706,8.25127315521240,0.68118250370026,0.62090307474136,0.94211190938950
528,4118883627,0.840205,-0.097855,0.280826,-0.453453,-3.83112168312073,-4.19243383407593,8.22319698333740,0.37324106693268,0.55100595951080,0.91163271665573
529,4118900294,0.840202,-0.097796,0.280791,-0.453493,-3.83075809478760,-4.17168331146240,8.22162246704102,1.47539412975311,0.62165868282318,0.84347748756409
530,4118916961,0.840201,-0.097806,0.280798,-0.453488,-3.81599521636963,-4.15741300582886,8.19070529937744,0.86090683937073,0.61954557895660,0.99633401632309
531,4118933628,0.840213,-0.097719,0.280755,-0.453512,-3.82076597213745,-4.14561796188354,8.23162555694580,1.62754607200623,0.61558842658997,1.05597305297852
532,4118950295,0.840217,-0.097698,0.280754,-0.453509,-3.81195616722107,-4.12961769104004,8.22774791717529,1.06122374534607,0.65559548139572,1.06963765621185
533,4118966962,0.840218,-0.097739,0.280778,-0.453483,-3.80984163284302,-4.17178249359131,8.22290325164795,0.57348114252090,0.59075695276260,1.11704671382904
534,4118983629,0.840239,-0.097678,0.280737,-0.453483,-3.81847643852234,-4.16614866256714,8.23510456085205,1.44456899166107,0.52481698989868,1.14218544960022
535,4119000296,0.840254,-0.097680,0.280723,-0.453463,-3.82724046707153,-4.17056751251221,8.22168159484863,0.94371271133423,0.47704935073853,1.15593957901001
536,4119016963,0.840261,-0.097662,0.280700,-0.453469,-3.82299041748047,-4.16390752792358,8.22114562988281,1.12288641929626,0.49801337718964,1.03790354728699
537,4119033630,0.840257,-0.097682,0.280712,-0.453465,-3.83019542694092,-4.15654134750366,8.22148132324219,0.78102087974548,0.62698608636856,0.97077256441116
538,4119050297,0.840243,-0.097696,0.280721,-0.453483,-3.81691122055054,-4.18957042694092,8.20185184478760,0.86460787057877,0.65244507789612,0.83510208129883
539,4119066964,0.840244,-0.097654,0.280700,-0.453502,-3.82059478759766,-4.15418148040771,8.24283885955811,1.28958666324615,0.63329970836639,0.95094835758209
540,4119083631,0.840231,-0.097698,0.280730,-0.453499,-3.80579304695129,-4.16942310333252,8.21480941772461,0.59132039546967,0.66977202892303,0.90265548229218
541,4119100298,0.840228,-0.097645,0.280696,-0.453535,-3.82520937919617,-4.15936422348022,8.22205734252930,1.42313134670258,0.60823762416840,0.86520981788635
542,4119116965,0.840218,-0.097702,0.280714,-0.453532,-3.83060789108276,-4.14985799789429,8.21870326995850,0.54027432203293,0.54256659746170,0.89333254098892
543,4119133632,0.840207,-0.097751,0.280724,-0.453534,-3.81733536720276,-4.15701293945312,8.21252441406250,0.65193289518356,0.56870436668396,0.80548101663589
544,4119150299,0.840198,-0.097781,0.280743,-0.453533,-3.82523345947266,-4.17485618591309,8.20899391174316,0.69680631160736,0.62424552440643,0.96041220426559
545,4119166966,0.840202,-0.097742,0.280725,-0.453545,-3.83428764343262,-4.17111301422119,8.22270298004150,1.24791467189789,0.62268310785294,1.00684797763824
546,4119183633,0.840205,-0.097707,0.280697,-0.453565,-3.82113385200500,-4.15386915206909,8.20338058471680,1.27897024154663,0.56824338436127,0.93456906080246
547,4119200300,0.840187,-0.097742,0.280698,-0.453589,-3.82002186775208,-4.15583181381226,8.22788619995117,0.76616549491882,0.54953330755234,0.75421720743179
548,4119216967,0.840169,-0.097783,0.280718,-0.453602,-3.81821727752686,-4.18266153335571,8.21150779724121,0.63265931606293,0.61261737346649,0.85055941343307
549,4119233634,0.840170,-0.097796,0.280698,-0.453609,-3.83027863502502,-4.19621181488037,8.21912193298340,0.94736260175705,0.44966939091682,0.92650097608566
550,4119250301,0.840186,-0.097671,0.280615,-0.453659,-3.82492542266846,-4.11001873016357,8.22975254058838,2.03669619560242,0.52660995721817,0.94108748435974
551,4119266968,0.840167,-0.097808,0.280684,-0.453621,-3.82704567909241,-4.12442493438721,8.22809410095215,-0.14698489010334,0.58877193927765,0.93842363357544
552,4119283635,0.840183,-0.097807,0.280676,-0.453596,-3.80742955207825,-4.21127605438232,8.17107677459717,0.93591374158859,0.52097511291504,1.19310367107391
553,4119300302,0.840196,-0.097677,0.280635,-0.453626,-3.79328536987305,-4.12966060638428,8.20372009277344,1.86323440074921,0.74080902338028,1.14742338657379
554,4119316969,0.840192,-0.097757,0.280696,-0.453579,-3.82645487785339,-4.16882467269897,8.21333599090576,0.20194333791733,0.68857181072235,1.13292658329010
555,4119333636,0.840191,-0.097730,0.280670,-0.453603,-3.83472537994385,-4.18096017837524,8.23261070251465,1.22114932537079,0.55651265382767,0.90018391609192
556,4119350303,0.840178,-0.097746,0.280638,-0.453642,-3.84158372879028,-4.13275337219238,8.23353099822998,1.02394449710846,0.42080387473106,0.67705899477005
557,4119366970,0.840155,-0.097850,0.280673,-0.453640,-3.83144283294678,-4.16335153579712,8.21696281433105,0.21416059136391,0.53215497732162,0.76341205835342
558,4119383637,0.840152,-0.097837,0.280667,-0.453653,-3.80244517326355,-4.17638540267944,8.16214847564697,1.07198107242584,0.63433694839478,0.92108398675919
559,4119400304,0.840169,-0.097791,0.280646,-0.453646,-3.81440734863281,-4.16537380218506,8.21692085266113,1.26991593837738,0.58849012851715,1.17490553855896
560,4119416971,0.840179,-0.097759,0.280642,-0.453635,-3.81953978538513,-4.15281867980957,8.21603488922119,1.12791931629181,0.65956544876099,1.15400588512421
561,4119433638,0.840180,-0.097760,0.280640,-0.453635,-3.81224775314331,-4.14547538757324,8.22155094146729,0.93819320201874,0.58265054225922,1.01705467700958
562,4119450305,0.840194,-0.097796,0.280622,-0.453611,-3.80732679367065,-4.17808437347412,8.20293617248535,0.76168334484100,0.35079154372215,1.09110093116760
563,4119466972,0.840202,-0.097744,0.280594,-0.453626,-3.81645822525024,-4.15389347076416,8.23933506011963,1.35821592807770,0.60132223367691,1.02128088474274
564,4119483639,0.840196,-0.097778,0.280612,-0.453619,-3.82082319259644,-4.17312383651733,8.22293472290039,0.68410241603851,0.61768865585327,0.96013039350510
565,4119500306,0.840191,-0.097808,0.280630,-0.453610,-3.83016514778137,-4.19352340698242,8.21615791320801,0.69961082935333,0.62368202209473,0.97757267951965
566,4119516973,0.840182,-0.097744,0.280595,-0.453661,-3.83649635314941,-4.14477539062500,8.22988033294678,1.50944626331329,0.65240675210953,0.78529822826385
567,4119533640,0.840159,-0.097833,0.280643,-0.453657,-3.82363367080688,-4.14904975891113,8.25283145904541,0.25907245278358,0.65209931135178,0.80850327014923
568,4119550307,0.840144,-0.097835,0.280634,-0.453689,-3.82122206687927,-4.16732358932495,8.20255088806152,1.00456857681274,0.59199911355972,0.77381086349487
569,4119566974,0.840148,-0.097835,0.280626,-0.453687,-3.79011821746826,-4.14575052261353,8.19378662109375,0.97119516134262,0.55409240722656,1.01806640625000
570,4119583641,0.840168,-0.097816,0.280646,-0.453641,-3.78016901016235,-4.18608236312866,8.19346046447754,0.92148101329803,0.71354424953461,1.36545157432556
571,4119600308,0.840195,-0.097671,0.280587,-0.453659,-3.82502508163452,-4.13704347610474,8.23332214355469,2.02429962158203,0.68612575531006,1.21112215518951
572,4119616975,0.840202,-0.097714,0.280619,-0.453616,-3.83974766731262,-4.14200830459595,8.24711227416992,0.52150022983551,0.62131285667419,1.19408988952637
573,4119633642,0.840187,-0.097740,0.280651,-0.453620,-3.81750655174255,-4.17398118972778,8.21626853942871,0.68817478418350,0.74488127231598,0.90766280889511
574,4119650309,0.840179,-0.097714,0.280646,-0.453643,-3.82873415946960,-4.17059278488159,8.21953582763672,1.12585747241974,0.66043627262115,0.95064097642899
575,4119666976,0.840171,-0.097688,0.280648,-0.453663,-3.81526899337769,-4.15154600143433,8.21080493927002,1.12156736850739,0.72554373741150,0.90419232845306
576,4119683643,0.840170,-0.097696,0.280659,-0.453655,-3.81291985511780,-4.16786956787109,8.20810317993164,0.85474693775177,0.64754027128220,1.03060376644135
577,4119700310,0.840176,-0.097583,0.280619,-0.453693,-3.81441998481750,-4.13915348052979,8.22920989990234,1.79933071136475,0.75034970045090,0.97807222604752
578,4119716977,0.840165,-0.097599,0.280669,-0.453680,-3.83115601539612,-4.13878440856934,8.23353385925293,0.66657048463821,0.85596358776093,1.04244959354401
579,4119733644,0.840145,-0.097656,0.280727,-0.453669,-3.80851626396179,-4.17540407180786,8.18765258789062,0.40074914693832,0.80084514617920,0.92668038606644
580,4119750311,0.840140,-0.097635,0.280731,-0.453680,-3.82791829109192,-4.18143510818481,8.19925212860107,1.06217145919800,0.70409315824509,0.97928881645203
581,4119766978,0.840139,-0.097574,0.280732,-0.453694,-3.83153462409973,-4.16764640808105,8.22006797790527,1.32886362075806,0.81585413217545,1.02740216255188
582,4119783645,0.840124,-0.097569,0.280753,-0.453709,-3.81977486610413,-4.15502500534058,8.20044040679932,0.91719067096710,0.78182756900787,0.90204077959061
583,4119800312,0.840119,-0.097571,0.280761,-0.453714,-3.82462191581726,-4.16272306442261,8.22040271759033,0.92180109024048,0.66662174463272,0.93596482276917
584,4119816979,0.840123,-0.097538,0.280733,-0.453730,-3.81748461723328,-4.14592456817627,8.21601963043213,1.23920643329620,0.53175806999207,1.01107418537140
585,4119833646,0.840117,-0.097570,0.280740,-0.453731,-3.80940723419189,-4.15542221069336,8.21534061431885,0.73326593637466,0.55407959222794,0.92595028877258
586,4119850313,0.840119,-0.097583,0.280737,-0.453725,-3.82852053642273,-4.14787960052490,8.19437980651855,0.85692411661148,0.53731596469879,1.02381646633148
587,4119866980,0.840124,-0.097579,0.280737,-0.453718,-3.80639743804932,-4.15592765808105,8.22296714782715,0.96475356817245,0.60704660415649,1.05178546905518
588,4119883647,0.840135,-0.097579,0.280743,-0.453693,-3.82838416099548,-4.18539953231812,8.22844505310059,0.88413751125336,0.60235947370529,1.18416464328766
589,4119900314,0.840150,-0.097503,0.280701,-0.453708,-3.82363557815552,-4.14470052719116,8.22941207885742,1.56356561183929,0.59229367971420,1.06585967540741
590,4119916981,0.840137,-0.097595,0.280765,-0.453673,-3.81886649131775,-4.13867473602295,8.23221206665039,0.14140771329403,0.69580745697021,1.02090942859650
591,4119933648,0.840130,-0.097624,0.280797,-0.453659,-3.81994104385376,-4.20025873184204,8.21641921997070,0.62168425321579,0.68793153762817,1.06395149230957
592,4119950315,0.840129,-0.097538,0.280772,-0.453695,-3.82050919532776,-4.14809846878052,8.22576236724854,1.59688770771027,0.75846880674362,0.92570698261261
593,4119966982,0.840108,-0.097595,0.280829,-0.453686,-3.81059479713440,-4.15514993667603,8.21946907043457,0.39981430768967,0.79529994726181,0.92109680175781
594,4119983649,0.840088,-0.097612,0.280895,-0.453680,-3.81649875640869,-4.20042753219604,8.21015930175781,0.61834186315536,0.96915894746780,0.97871255874634
595,4120000316,0.840072,-0.097497,0.280869,-0.453750,-3.81890368461609,-4.14770507812500,8.21337604522705,1.82484066486359,0.90680474042892,0.72349470853806
596,4120016983,0.840035,-0.097560,0.280933,-0.453764,-3.82353806495667,-4.11824989318848,8.21844005584717,0.38475397229195,0.86565798521042,0.72360998392105
597,4120033650,0.840007,-0.097627,0.281007,-0.453757,-3.82891201972961,-4.19321632385254,8.20597362518311,0.29840072989464,0.87925833463669,0.87257343530655
598,4120050317,0.839994,-0.097562,0.280982,-0.453809,-3.82612490653992,-4.15484476089478,8.21275138854980,1.49556386470795,0.73021799325943,0.74954283237457
599,4120066984,0.839979,-0.097603,0.280995,-0.453821,-3.83316016197205,-4.14785528182983,8.19485187530518,0.67402380704880,0.58567285537720,0.83077347278595
600,4120083651,0.839966,-0.097607,0.280999,-0.453842,-3.81669044494629,-4.14439582824707,8.19381427764893,0.93221271038055,0.64389055967331,0.84970134496689
601,4120100318,0.839948,-0.097690,0.281044,-0.453829,-3.81588578224182,-4.17080450057983,8.23153972625732,0.29914349317551,0.65006309747696,0.86818081140518
602,4120116985,0.839949,-0.097677,0.281009,-0.453851,-3.83715128898621,-4.17591476440430,8.22607326507568,1.18075823783875,0.46739330887794,0.85477256774902
603,4120133652,0.839942,-0.097693,0.281007,-0.453862,-3.80950379371643,-4.12954187393188,8.20456314086914,0.86716920137405,0.56447833776474,0.88893997669220
604,4120150319,0.839934,-0.097774,0.281047,-0.453836,-3.82544851303101,-4.19640684127808,8.21544170379639,0.30773657560349,0.59068006277084,0.98476988077164
605,4120166986,0.839942,-0.097719,0.281013,-0.453853,-3.83730530738831,-4.18134737014771,8.19878005981445,1.41140043735504,0.58567273616791,1.00072658061981
606,4120183653,0.839942,-0.097624,0.280968,-0.453902,-3.81940674781799,-4.09426259994507,8.23324680328369,1.72810161113739,0.67307609319687,0.85952371358871
607,4120200320,0.839936,-0.097784,0.281052,-0.453826,-3.82617449760437,-4.17913722991943,8.22625446319580,-0.38011166453362,0.57372444868088,1.14478516578674
608,4120216987,0.839952,-0.097625,0.280995,-0.453867,-3.80808734893799,-4.16676712036133,8.19826126098633,2.13060545921326,0.77662831544876,1.07006025314331
609,4120233654,0.839945,-0.097607,0.281025,-0.453864,-3.82333850860596,-4.15016794204712,8.23991584777832,0.95128124952316,0.84525746107101,1.04182195663452
610,4120250321,0.839935,-0.097699,0.281082,-0.453827,-3.83307671546936,-4.21093702316284,8.22007846832275,0.15931099653244,0.65209937095642,1.03955543041229
611,4120266988,0.839927,-0.097586,0.281020,-0.453906,-3.85701894760132,-4.14648199081421,8.23489856719971,1.93537259101868,0.66472637653351,0.70519447326660
612,4120283655,0.839894,-0.097695,0.281089,-0.453901,-3.83920264244080,-4.13115739822388,8.24540042877197,0.09205203503370,0.75096428394318,0.70621889829636
613,4120300322,0.839869,-0.097720,0.281124,-0.453919,-3.79740214347839,-4.19901227951050,8.20840072631836,0.69610196352005,0.78415834903717,0.81813359260559
614,4120316989,0.839865,-0.097653,0.281124,-0.453942,-3.81245040893555,-4.17319583892822,8.18836784362793,1.38072931766510,0.84468120336533,0.97773915529251
615,4120333656,0.839861,-0.097608,0.281130,-0.453955,-3.81310725212097,-4.14426517486572,8.22869873046875,1.20912444591522,0.80452054738998,0.99401611089706
616,4120350323,0.839847,-0.097629,0.281194,-0.453936,-3.81797170639038,-4.16320133209229,8.22995185852051,0.57652902603149,0.92177546024323,1.07139205932617
617,4120366990,0.839840,-0.097539,0.281204,-0.453963,-3.83924508094788,-4.18134689331055,8.20450687408447,1.48324418067932,0.98037731647491,0.99877995252609
618,4120383657,0.839824,-0.097504,0.281216,-0.453992,-3.83239793777466,-4.14092350006104,8.24510860443115,1.15198242664337,0.83362942934036,0.86545318365097
619,4120400324,0.839796,-0.097580,0.281262,-0.453999,-3.82983040809631,-4.17135572433472,8.19529056549072,0.35503041744232,0.68948101997375,0.76321995258331
620,4120416991,0.839776,-0.097594,0.281265,-0.454032,-3.81251597404480,-4.20998811721802,8.19311904907227,0.89342224597931,0.63645005226135,0.73567366600037
621,4120433658,0.839751,-0.097606,0.281282,-0.454065,-3.82739448547363,-4.17411994934082,8.23558330535889,0.87081903219223,0.74192309379578,0.71412050724030
622,4120450325,0.839729,-0.097633,0.281254,-0.454116,-3.83793687820435,-4.17318582534790,8.24036312103271,0.95893955230713,0.42934572696686,0.57141935825348
623,4120466992,0.839706,-0.097735,0.281195,-0.454174,-3.85502266883850,-4.14629411697388,8.20929431915283,0.62938088178635,0.03074804879725,0.36872044205666
624,4120483659,0.839696,-0.097854,0.281137,-0.454203,-3.82022976875305,-4.08834505081177,8.23772239685059,0.47283595800400,-0.07853493839502,0.57647776603699
625,4120500326,0.839695,-0.098114,0.281142,-0.454145,-3.79538750648499,-4.16606569290161,8.21413135528564,-0.69685107469559,-0.22826676070690,0.85981827974319
626,4120516993,0.839716,-0.098174,0.281048,-0.454152,-3.80512952804565,-4.21208477020264,8.19661521911621,0.90743237733841,-0.17173957824707,0.86071485280991
627,4120533660,0.839728,-0.098274,0.281003,-0.454136,-3.82296752929688,-4.17460584640503,8.21522140502930,0.42944812774658,-0.05516334995627,1.02078127861023
628,4120550327,0.839744,-0.098352,0.280990,-0.454097,-3.79802966117859,-4.18099164962769,8.21161270141602,0.46423014998436,0.22067901492119,1.14281308650970
629,4120566994,0.839764,-0.098332,0.280975,-0.454074,-3.80066347122192,-4.20917510986328,8.20863819122314,1.08784818649292,0.54720252752304,1.19598507881165
630,4120583661,0.839777,-0.098224,0.280907,-0.454115,-3.81464076042175,-4.14930200576782,8.23740673065186,1.85990476608276,0.54661345481873,0.97531890869141
631,4120600328,0.839774,-0.098283,0.280980,-0.454063,-3.80632996559143,-4.14797878265381,8.20200443267822,0.29809337854385,0.84154361486435,1.17618632316589
632,4120616995,0.839764,-0.098269,0.281053,-0.454039,-3.79692745208740,-4.23974418640137,8.19814395904541,0.74571371078491,1.07833302021027,1.18808341026306
633,4120633662,0.839776,-0.098081,0.281013,-0.454082,-3.80154061317444,-4.18929195404053,8.17702484130859,2.23009753227234,0.95522552728653,1.14711594581604
634,4120650329,0.839773,-0.098009,0.281057,-0.454077,-3.80233240127563,-4.14894390106201,8.19119739532471,1.20757460594177,1.07878112792969,1.20761299133301
635,4120666996,0.839762,-0.097984,0.281115,-0.454066,-3.81831336021423,-4.19291400909424,8.24155044555664,0.87709403038025,1.03659701347351,1.11753320693970
636,4120683663,0.839745,-0.097858,0.281115,-0.454124,-3.83072257041931,-4.17143821716309,8.21443367004395,1.77375638484955,1.07029080390930,0.85582280158997
637,4120700330,0.839717,-0.097861,0.281176,-0.454138,-3.83356404304504,-4.16638851165771,8.21296024322510,0.73381656408310,1.00392806529999,0.88709580898285
638,4120716997,0.839693,-0.097796,0.281189,-0.454189,-3.81357979774475,-4.15792512893677,8.22842025756836,1.36168622970581,0.96839052438736,0.75953179597855
639,4120733664,0.839675,-0.097792,0.281210,-0.454210,-3.82905507087708,-4.15583419799805,8.22139930725098,0.93077838420868,0.78998529911041,0.84758836030960
640,4120750331,0.839665,-0.097777,0.281219,-0.454227,-3.83089160919189,-4.17104053497314,8.20763683319092,1.03600800037384,0.74199986457825,0.88785141706467
641,4120766998,0.839651,-0.097767,0.281222,-0.454253,-3.82298064231873,-4.15009832382202,8.20087909698486,1.02367556095123,0.68940424919128,0.84537285566330
642,4120783665,0.839656,-0.097781,0.281241,-0.454227,-3.81701993942261,-4.18443918228149,8.20209121704102,0.77555251121521,0.66845303773880,1.11898040771484
643,4120800332,0.839679,-0.097678,0.281168,-0.454252,-3.82677626609802,-4.16680717468262,8.19530582427979,1.83000195026398,0.47564065456390,1.08216226100922
644,4120816999,0.839680,-0.097689,0.281167,-0.454249,-3.82067227363586,-4.14043188095093,8.21200275421143,0.87294477224350,0.55897158384323,1.01186823844910
645,4120833666,0.839677,-0.097778,0.281197,-0.454217,-3.82421350479126,-4.20914316177368,8.20277500152588,0.27787217497826,0.49210959672928,1.01444208621979
646,4120850333,0.839690,-0.097684,0.281133,-0.454254,-3.81272220611572,-4.16870546340942,8.21003818511963,1.76370322704315,0.52782648801804,0.97157925367355
647,4120867000,0.839678,-0.097780,0.281189,-0.454219,-3.82734704017639,-4.18742990493774,8.21421623229980,0.14026793837547,0.62813860177994,1.01823282241821
648,4120883667,0.839668,-0.097739,0.281174,-0.454255,-3.82067751884460,-4.18606901168823,8.19698810577393,1.29172539710999,0.70039212703705,0.82203966379166
649,4120900334,0.839656,-0.097699,0.281172,-0.454289,-3.83287811279297,-4.13414955139160,8.21294021606445,1.24356055259705,0.76427018642426,0.84347736835480
650,4120917001,0.839629,-0.097821,0.281245,-0.454267,-3.84434270858765,-4.19479465484619,8.23141765594482,-0.03272662684321,0.70653915405273,0.81229394674301
651,4120933668,0.839611,-0.097765,0.281226,-0.454324,-3.82649397850037,-4.19681310653687,8.21986103057861,1.42324638366699,0.74841582775116,0.72007536888123
652,4120950335,0.839594,-0.097776,0.281231,-0.454349,-3.83000278472900,-4.16353321075439,8.20205402374268,0.89869850873947,0.64812940359116,0.78447860479355
653,4120967002,0.839584,-0.097766,0.281246,-0.454362,-3.82221460342407,-4.16659069061279,8.21486091613770,0.96970969438553,0.74608516693115,0.93818038702011
654,4120983669,0.839574,-0.097765,0.281257,-0.454374,-3.82929277420044,-4.14449214935303,8.22591876983643,0.93682301044464,0.70331197977066,0.90255314111710
655,4121000336,0.839572,-0.097804,0.281259,-0.454367,-3.81574273109436,-4.16746902465820,8.20441055297852,0.68922495841980,0.49465811252594,0.96575248241425
656,4121017003,0.839576,-0.097819,0.281264,-0.454353,-3.82772326469421,-4.18242931365967,8.20127677917480,0.82262867689133,0.57670837640762,1.06744766235352
657,4121033670,0.839583,-0.097778,0.281243,-0.454363,-3.82030630111694,-4.17718648910522,8.20112800598145,1.27068459987640,0.60246199369431,1.03325486183167
658,4121050337,0.839587,-0.097786,0.281241,-0.454355,-3.82819914817810,-4.13368701934814,8.19315242767334,0.89657247066498,0.56533628702164,1.02596783638000
659,4121067004,0.839584,-0.097811,0.281259,-0.454343,-3.82504940032959,-4.17433166503906,8.20137310028076,0.70618057250977,0.61858516931534,1.04653477668762
660,4121083671,0.839612,-0.097778,0.281240,-0.454310,-3.82961201667786,-4.19707441329956,8.19220447540283,1.15353190898895,0.53104084730148,1.33096385002136
661,4121100338,0.839625,-0.097633,0.281189,-0.454349,-3.83215308189392,-4.14229679107666,8.21794414520264,2.01481032371521,0.75866103172302,1.07272386550903
662,4121117005,0.839622,-0.097724,0.281244,-0.454300,-3.81108093261719,-4.16512203216553,8.21725845336914,0.15689060091972,0.61704838275909,1.12716376781464
663,4121133672,0.839620,-0.097652,0.281231,-0.454328,-3.81335926055908,-4.15884876251221,8.22257328033447,1.43091738224030,0.75522881746292,1.01202166080475
664,4121150339,0.839619,-0.097674,0.281275,-0.454299,-3.83989095687866,-4.17023229598999,8.21326828002930,0.62851005792618,0.77680754661560,1.14455461502075
665,4121167006,0.839636,-0.097547,0.281251,-0.454310,-3.78840017318726,-4.15563774108887,8.17875862121582,1.77990341186523,0.83567827939987,1.22200739383698
666,4121183673,0.839628,-0.097551,0.281317,-0.454283,-3.81590008735657,-4.18203163146973,8.19480991363525,0.65933495759964,0.97501152753830,1.16247093677521
667,4121200340,0.839619,-0.097507,0.281324,-0.454303,-3.85032463073730,-4.18176412582397,8.22226333618164,1.20236253738403,0.81165361404419,0.96491992473602
668,4121217007,0.839589,-0.097506,0.281316,-0.454365,-3.86835265159607,-4.13469409942627,8.23100757598877,1.07566940784454,0.66480326652527,0.55200487375259
669,4121233674,0.839549,-0.097645,0.281373,-0.454374,-3.83671975135803,-4.17113065719604,8.19591236114502,-0.05269172787666,0.57342988252640,0.60826313495636
670,4121250341,0.839534,-0.097647,0.281377,-0.454398,-3.79975748062134,-4.18290138244629,8.18831729888916,0.94795173406601,0.66144800186157,0.83105528354645
671,4121267008,0.839550,-0.097582,0.281355,-0.454397,-3.81167554855347,-4.17081594467163,8.19338226318359,1.39339482784271,0.64618277549744,1.17290794849396
672,4121283675,0.839564,-0.097569,0.281345,-0.454379,-3.81759119033813,-4.13913822174072,8.20070362091064,1.01953899860382,0.54829108715057,1.17514896392822
673,4121300342,0.839566,-0.097606,0.281381,-0.454346,-3.82484960556030,-4.18068885803223,8.22780132293701,0.55722987651825,0.67687970399857,1.14265954494476
674,4121317009,0.839582,-0.097564,0.281361,-0.454338,-3.84765768051147,-4.20651578903198,8.22752761840820,1.25042486190796,0.58723515272141,1.16431498527527
675,4121333676,0.839591,-0.097503,0.281305,-0.454369,-3.83605146408081,-4.14275598526001,8.19701862335205,1.53639054298401,0.48429772257805,0.92880606651306
676,4121350343,0.839578,-0.097597,0.281364,-0.454336,-3.83477473258972,-4.14767837524414,8.21517276763916,0.14691445231438,0.66044914722443,1.00077784061432
677,4121367010,0.839580,-0.097639,0.281376,-0.454315,-3.84328413009644,-4.20679092407227,8.21909427642822,0.60147577524185,0.49764192104340,1.10991346836090
678,4121383677,0.839590,-0.097562,0.281308,-0.454356,-3.83148884773254,-4.15177726745605,8.20082664489746,1.68968248367310,0.46629199385643,0.88529014587402
679,4121400344,0.839568,-0.097628,0.281329,-0.454370,-3.83003783226013,-4.14459991455078,8.23175334930420,0.52704536914825,0.59028315544128,0.70665442943573
680,4121417011,0.839550,-0.097660,0.281331,-0.454394,-3.82851600646973,-4.16380167007446,8.22000885009766,0.78833329677582,0.57222616672516,0.74033510684967
681,4121433678,0.839546,-0.097595,0.281314,-0.454426,-3.79108285903931,-4.13434267044067,8.20144939422607,1.43792247772217,0.74999105930328,0.90374404191971
682,4121450345,0.839540,-0.097691,0.281386,-0.454372,-3.81741809844971,-4.18569517135620,8.20901870727539,0.05160958692431,0.69784361124039,1.16186892986298
683,4121467012,0.839558,-0.097614,0.281356,-0.454374,-3.83818078041077,-4.19492864608765,8.21335601806641,1.51139247417450,0.64806532859802,1.16099786758423
684,4121483679,0.839560,-0.097549,0.281324,-0.454404,-3.83220052719116,-4.14421939849854,8.20900535583496,1.47479176521301,0.63554054498672,0.95019257068634
685,4121500346,0.839546,-0.097647,0.281376,-0.454377,-3.79843139648438,-4.17900657653809,8.20104694366455,0.15098685026169,0.60874986648560,0.95936208963394
686,4121517013,0.839545,-0.097543,0.281343,-0.454422,-3.83079743385315,-4.17649459838867,8.20358180999756,1.70132374763489,0.74088579416275,0.98588413000107
687,4121533680,0.839538,-0.097524,0.281372,-0.454420,-3.84881687164307,-4.12882089614868,8.21024131774902,0.95217782258987,0.83916163444519,1.05304050445557
688,4121550347,0.839532,-0.097576,0.281417,-0.454391,-3.82337427139282,-4.17177772521973,8.20904636383057,0.44354796409607,0.69798457622528,1.08291780948639
689,4121567014,0.839538,-0.097503,0.281399,-0.454409,-3.82004237174988,-4.15299987792969,8.21518230438232,1.47084736824036,0.74912017583847,1.01865541934967
690,4121583681,0.839539,-0.097511,0.281437,-0.454381,-3.82409143447876,-4.16851520538330,8.19058990478516,0.73240792751312,0.78319787979126,1.16650485992432
691,4121600348,0.839544,-0.097404,0.281430,-0.454398,-3.82170081138611,-4.15524864196777,8.17819976806641,1.62227010726929,0.90118283033371,1.11271822452545
692,4121617015,0.839529,-0.097396,0.281469,-0.454404,-3.82302522659302,-4.15939283370972,8.20028209686279,0.87799042463303,0.90006870031357,0.94702953100204
693,4121633682,0.839516,-0.097353,0.281486,-0.454428,-3.82699370384216,-4.17932367324829,8.22725105285645,1.16400754451752,0.87208688259125,0.92988193035126
694,4121650349,0.839493,-0.097355,0.281517,-0.454450,-3.83830809593201,-4.17899513244629,8.22394657135010,0.85175037384033,0.82598388195038,0.84738332033157
695,4121667016,0.839480,-0.097333,0.281520,-0.454477,-3.82012796401978,-4.16926193237305,8.21770572662354,1.10083389282227,0.73181885480881,0.85833287239075
696,4121683683,0.839468,-0.097316,0.281509,-0.454509,-3.82494163513184,-4.14499092102051,8.19892978668213,1.11744368076324,0.62712693214417,0.83478200435638
697,4121700350,0.839460,-0.097326,0.281509,-0.454521,-3.82456517219543,-4.17715644836426,8.23016262054443,0.89568883180618,0.58837491273880,0.91279810667038
698,4121717017,0.839471,-0.097310,0.281499,-0.454512,-3.84695601463318,-4.16370296478271,8.20084667205811,1.06026327610016,0.57634973526001,1.09799075126648
699,4121733684,0.839479,-0.097287,0.281485,-0.454511,-3.83092808723450,-4.14846181869507,8.20820903778076,1.11729001998901,0.57874453067780,1.07446563243866
700,4121750351,0.839495,-0.097303,0.281476,-0.454482,-3.82871031761169,-4.18065595626831,8.22792530059814,0.84471970796585,0.46355149149895,1.16124141216278
701,4121767018,0.839514,-0.097249,0.281438,-0.454482,-3.83261179924011,-4.15614366531372,8.20928192138672,1.36874258518219,0.50346881151199,1.18001544475555
702,4121783685,0.839526,-0.097242,0.281421,-0.454472,-3.83818030357361,-4.15791130065918,8.21312236785889,1.03018116950989,0.50629907846451,1.09718406200409
703,4121800352,0.839539,-0.097250,0.281422,-0.454446,-3.83859562873840,-4.18165397644043,8.22249889373779,0.85250586271286,0.54387289285660,1.17995142936707
704,4121817019,0.839544,-0.097209,0.281390,-0.454466,-3.83930468559265,-4.16598129272461,8.22707653045654,1.32251179218292,0.55049383640289,0.95728754997253
705,4121833686,0.839546,-0.097227,0.281380,-0.454464,-3.82392835617065,-4.17004776000977,8.20685577392578,0.85438835620880,0.47389897704124,1.00912749767303
706,4121850353,0.839546,-0.097187,0.281331,-0.454502,-3.82077980041504,-4.13301086425781,8.23089218139648,1.40607333183289,0.48324763774872,0.81075727939606
707,4121867020,0.839532,-0.097292,0.281359,-0.454489,-3.83278679847717,-4.16930007934570,8.22418022155762,0.22289450466633,0.46474239230156,0.83371895551682
708,4121883687,0.839523,-0.097298,0.281342,-0.454516,-3.83366465568542,-4.17963075637817,8.18660449981689,1.01459586620331,0.53137391805649,0.78606665134430
709,4121900354,0.839522,-0.097262,0.281308,-0.454545,-3.82262682914734,-4.13912487030029,8.20949840545654,1.32014262676239,0.54930275678635,0.85783338546753
710,4121917021,0.839510,-0.097316,0.281339,-0.454536,-3.81283712387085,-4.15760850906372,8.23005771636963,0.52027076482773,0.65053701400757,0.91400206089020
711,4121933688,0.839511,-0.097256,0.281320,-0.454559,-3.83227586746216,-4.15984153747559,8.23021888732910,1.38729894161224,0.68478107452393,0.98925197124481
712,4121950355,0.839501,-0.097272,0.281328,-0.454571,-3.82766270637512,-4.14823150634766,8.22594165802002,0.83292490243912,0.62655061483383,0.89314043521881
713,4121967022,0.839490,-0.097277,0.281334,-0.454586,-3.81808805465698,-4.16834783554077,8.22651290893555,0.88507241010666,0.62132567167282,0.94737529754639
714,4121983689,0.839492,-0.097225,0.281301,-0.454613,-3.82461023330688,-4.17257785797119,8.22424602508545,1.38185632228851,0.57319939136505,0.97028589248657
715,4122000356,0.839485,-0.097262,0.281303,-0.454616,-3.82479810714722,-4.16269731521606,8.21275711059570,0.71445351839066,0.50824564695358,0.90621572732925
716,4122017023,0.839468,-0.097320,0.281347,-0.454609,-3.81337714195251,-4.18078231811523,8.22455501556396,0.44847840070724,0.70947182178497,0.91231149435043
717,4122033690,0.839475,-0.097248,0.281314,-0.454632,-3.83502292633057,-4.15572547912598,8.22043609619141,1.50954842567444,0.63984364271164,1.00978064537048
718,4122050357,0.839464,-0.097286,0.281338,-0.454630,-3.83268165588379,-4.14201784133911,8.21394443511963,0.62293922901154,0.62653785943985,0.95637816190720
719,4122067024,0.839465,-0.097316,0.281343,-0.454617,-3.79263377189636,-4.18131113052368,8.20705795288086,0.73108881711960,0.53474193811417,1.02676188945770
720,4122083691,0.839479,-0.097229,0.281321,-0.454624,-3.81661486625671,-4.14912509918213,8.20546150207520,1.53673636913300,0.73174196481705,1.14883196353912
721,4122100358,0.839475,-0.097219,0.281337,-0.454623,-3.83107757568359,-4.15424585342407,8.22615051269531,0.94904017448425,0.73425209522247,1.02289462089539
722,4122117025,0.839479,-0.097236,0.281345,-0.454607,-3.84527492523193,-4.19401121139526,8.19752693176270,0.78442740440369,0.57136809825897,1.09622359275818
723,4122133692,0.839498,-0.097185,0.281283,-0.454622,-3.82521152496338,-4.15339231491089,8.23817348480225,1.47133433818817,0.38484358787537,1.03580307960510
724,4122150359,0.839492,-0.097207,0.281287,-0.454627,-3.83160519599915,-4.10865163803101,8.25417327880859,0.81283187866211,0.57752799987793,0.91413009166718
725,4122167026,0.839499,-0.097306,0.281340,-0.454560,-3.82797670364380,-4.19973993301392,8.18758106231689,0.10780385881662,0.57234144210815,1.19351351261139
726,4122183693,0.839511,-0.097166,0.281304,-0.454589,-3.78699564933777,-4.15240621566772,8.20528316497803,1.91937732696533,0.82132250070572,1.13816440105438
727,4122200360,0.839503,-0.097193,0.281369,-0.454559,-3.82867383956909,-4.15012168884277,8.17551612854004,0.50384020805359,0.87767034769058,1.17856836318970
728,4122217027,0.839488,-0.097238,0.281406,-0.454552,-3.85827636718750,-4.20152425765991,8.21245479583740,0.55032730102539,0.71491444110870,0.92075103521347
729,4122233694,0.839478,-0.097186,0.281363,-0.454608,-3.85594177246094,-4.15272092819214,8.24186229705811,1.48439693450928,0.57935929298401,0.71670746803284
730,4122250361,0.839444,-0.097286,0.281418,-0.454617,-3.83451318740845,-4.14430809020996,8.22100639343262,0.18690866231918,0.68037569522858,0.68849492073059
731,4122267028,0.839432,-0.097281,0.281431,-0.454631,-3.80342459678650,-4.18177843093872,8.19312286376953,0.95215207338333,0.72912949323654,0.89767384529114
732,4122283695,0.839445,-0.097226,0.281426,-0.454623,-3.81661915779114,-4.14780044555664,8.18221187591553,1.26704728603363,0.72198349237442,1.19519078731537
733,4122300362,0.839454,-0.097195,0.281417,-0.454618,-3.82403421401978,-4.16732788085938,8.22873210906982,1.14460575580597,0.62587189674377,1.11859619617462
734,4122317029,0.839464,-0.097199,0.281422,-0.454594,-3.83150148391724,-4.14699125289917,8.23909759521484,0.87290632724762,0.60307657718658,1.14610421657562
735,4122333696,0.839471,-0.097179,0.281399,-0.454601,-3.82767868041992,-4.15705442428589,8.19752788543701,1.15301966667175,0.52433043718338,1.01134300231934
736,4122350363,0.839466,-0.097206,0.281410,-0.454598,-3.82827091217041,-4.15456676483154,8.21084117889404,0.74146205186844,0.59366399049759,0.95965665578842
737,4122367030,0.839460,-0.097261,0.281435,-0.454582,-3.82705187797546,-4.16766929626465,8.20504760742188,0.51623672246933,0.58145946264267,0.98238784074783
738,4122383697,0.839443,-0.097249,0.281431,-0.454617,-3.82609677314758,-4.17270803451538,8.18206787109375,1.06868982315063,0.66936230659485,0.78561830520630
739,4122400364,0.839430,-0.097281,0.281438,-0.454631,-3.83262181282043,-4.14377927780151,8.20605850219727,0.75732922554016,0.58090889453888,0.82206517457962
740,4122417031,0.839418,-0.097306,0.281451,-0.454639,-3.83044290542603,-4.16052150726318,8.20998191833496,0.76708751916885,0.64080405235291,0.86243075132370
741,4122433698,0.839403,-0.097362,0.281464,-0.454647,-3.83522629737854,-4.18686723709106,8.21279048919678,0.57933360338211,0.53284657001495,0.83480757474899
742,4122450365,0.839399,-0.097341,0.281449,-0.454669,-3.80649423599243,-4.15610361099243,8.18424987792969,1.13994455337524,0.59799253940582,0.90928930044174
743,4122467032,0.839418,-0.097293,0.281427,-0.454657,-3.82193851470947,-4.12605619430542,8.20660018920898,1.28359305858612,0.58700460195541,1.20378398895264
744,4122483699,0.839432,-0.097300,0.281440,-0.454621,-3.82335591316223,-4.18251371383667,8.22653293609619,0.80190807580948,0.60780215263367,1.24701833724976
745,4122500366,0.839454,-0.097207,0.281386,-0.454635,-3.85239410400391,-4.15946960449219,8.19856739044189,1.69580423831940,0.55641031265259,1.12693333625793
746,4122517033,0.839437,-0.097246,0.281419,-0.454638,-3.83932757377625,-4.12961578369141,8.21253204345703,0.60237228870392,0.70664155483246,0.89501011371613
747,4122533700,0.839425,-0.097338,0.281467,-0.454611,-3.83421516418457,-4.19791460037231,8.21255016326904,0.19276116788387,0.58939939737320,0.99256896972656
748,4122550367,0.839425,-0.097274,0.281428,-0.454648,-3.82445049285889,-4.17167139053345,8.21572113037109,1.49528193473816,0.59007805585861,0.91961103677750
749,4122567034,0.839421,-0.097309,0.281439,-0.454640,-3.83636093139648,-4.15749359130859,8.21632289886475,0.68310344219208,0.56350499391556,0.98661392927170
750,4122583701,0.839429,-0.097279,0.281417,-0.454647,-3.82556581497192,-4.17464017868042,8.20553970336914,1.20377135276794,0.55827999114990,1.02726137638092
751,4122600368,0.839423,-0.097271,0.281419,-0.454657,-3.80599880218506,-4.14710569381714,8.20254135131836,1.00684809684753,0.67430561780930,0.92675721645355
752,4122617035,0.839423,-0.097279,0.281435,-0.454646,-3.83468270301819,-4.16346502304077,8.20473003387451,0.82517725229263,0.66840183734894,1.06188976764679
753,4122633702,0.839416,-0.097273,0.281462,-0.454643,-3.81925225257874,-4.14512825012207,8.21702003479004,0.87329065799713,0.78392797708511,1.04224479198456
754,4122650369,0.839404,-0.097278,0.281486,-0.454649,-3.83609628677368,-4.16408967971802,8.20816612243652,0.85856324434280,0.76832973957062,0.91478323936462
755,4122667036,0.839382,-0.097294,0.281521,-0.454665,-3.84099459648132,-4.16646003723145,8.22265243530273,0.76389873027802,0.81817203760147,0.82351231575012
756,4122683703,0.839365,-0.097297,0.281543,-0.454681,-3.83784484863281,-4.15366506576538,8.21082019805908,0.87824672460556,0.77165943384171,0.85951101779938
757,4122700370,0.839352,-0.097302,0.281553,-0.454700,-3.82821178436279,-4.16099071502686,8.21377086639404,0.90921247005463,0.68886637687683,0.84387433528900
758,4122717037,0.839347,-0.097262,0.281532,-0.454729,-3.82401371002197,-4.15200853347778,8.19686794281006,1.29098260402679,0.64319896697998,0.88408643007278
759,4122733704,0.839335,-0.097290,0.281561,-0.454728,-3.83189249038696,-4.16506052017212,8.23052406311035,0.68361574411392,0.70755088329315,0.94063925743103
760,4122750371,0.839329,-0.097229,0.281548,-0.454761,-3.82494831085205,-4.15754032135010,8.19061374664307,1.38986015319824,0.75023436546326,0.91188883781433
761,4122767038,0.839323,-0.097202,0.281544,-0.454780,-3.82744240760803,-4.11340284347534,8.22220706939697,1.14966440200806,0.70537376403809,0.90320628881454
762,4122783705,0.839308,-0.097278,0.281597,-0.454758,-3.81882596015930,-4.18275356292725,8.21488285064697,0.29501989483833,0.68853342533112,0.96735328435898
