sep=,
DeviceTag:,B
FirmwareVersion:,3.0.0
AppVersion:,2023.6.0
StartTime: ,2024-03-14_12:04:07_000 EDT
© Movella Technologies B. V. 2005-2024

PacketCounter,SampleTimeFine,Quat_W,Quat_X,Quat_Y,Quat_Z,Acc_X,Acc_Y,Acc_Z,Gyr_X,Gyr_Y,Gyr_Z
0,4110066784,0.009358,-0.653839,0.197535,-0.730332,0.00000000000000,0.00000000000000,0.00000000000000,0.00000000000000,0.00000000000000,0.00000000000000
1,4110083451,0.009455,-0.653715,0.197363,-0.730489,9.68960952758789,-2.99499940872192,0.71496295928955,4.64051628112793,4.58744668960571,1.12189412117004
2,4110100118,0.009541,-0.653410,0.197301,-0.730777,9.73360919952393,-2.99218940734863,0.75438159704208,4.23239660263062,6.10439062118530,1.79449009895325
3,4110116785,0.009612,-0.652939,0.197333,-0.731188,9.71903896331787,-3.00104999542236,0.76499825716019,3.88716316223145,7.51380681991577,2.36346340179443
4,4110133452,0.009622,-0.652412,0.197506,-0.731612,9.66780567169189,-3.01051783561707,0.79010009765625,2.95381712913513,7.94246864318848,2.75972437858582
5,4110150119,0.009634,-0.651873,0.197710,-0.732037,9.63126564025879,-3.03187489509583,0.75556367635727,2.82512664794922,7.99161958694458,2.93432617187500
6,4110166786,0.009764,-0.651366,0.197811,-0.732459,9.61973762512207,-3.08660340309143,0.68122380971909,3.84342980384827,7.66485977172852,3.01830363273621
7,4110183453,0.009972,-0.650913,0.197758,-0.732873,9.61511611938477,-3.08524990081787,0.61202090978622,4.95543670654297,7.23620986938477,2.64836001396179
8,4110200120,0.010233,-0.650504,0.197547,-0.733289,9.59730052947998,-3.06186723709106,0.55907458066940,5.99332904815674,6.94163894653320,2.14988589286804
9,4110216787,0.010501,-0.650155,0.197290,-0.733665,9.55757045745850,-2.97288227081299,0.60379981994629,6.20708513259888,6.44094181060791,1.89536559581757
10,4110233454,0.010701,-0.649905,0.197077,-0.733940,9.52991199493408,-2.91161036491394,0.61459964513779,5.54986286163330,5.57893371582031,1.63108098506927
11,4110250121,0.010833,-0.649745,0.196957,-0.734112,9.52813625335693,-2.89354300498962,0.60327750444412,4.57191801071167,4.79010057449341,1.58436322212219
12,4110266788,0.010841,-0.649650,0.197012,-0.734181,9.51891326904297,-2.90292668342590,0.62396627664566,3.18835210800171,4.11284303665161,1.66855871677399
13,4110283455,0.010775,-0.649631,0.197121,-0.734170,9.55969524383545,-2.94507169723511,0.63181155920029,2.08561015129089,3.60416150093079,1.40997266769409
14,4110300122,0.010664,-0.649662,0.197254,-0.734108,9.56396102905273,-2.99105620384216,0.65866655111313,1.67213165760040,3.19657421112061,1.22932648658752
15,4110316789,0.010492,-0.649722,0.197393,-0.734020,9.56151580810547,-3.01861596107483,0.70254391431808,1.86511039733887,2.83998084068298,0.94914895296097
16,4110333456,0.010398,-0.649828,0.197484,-0.733903,9.58446025848389,-3.03698801994324,0.70297253131866,2.17168140411377,2.44204926490784,1.05407142639160
17,4110350123,0.010407,-0.649984,0.197464,-0.733770,9.58296871185303,-3.06525421142578,0.72488337755203,2.77281188964844,2.11132526397705,0.98152339458466
18,4110366790,0.010423,-0.650143,0.197421,-0.733641,9.60761070251465,-3.04988884925842,0.73412817716599,3.15259051322937,2.02139282226562,0.92181384563446
19,4110383457,0.010470,-0.650293,0.197362,-0.733522,9.62243366241455,-3.00549149513245,0.73980730772018,3.32354283332825,2.08662867546082,1.01425027847290
20,4110400124,0.010468,-0.650383,0.197367,-0.733442,9.61510276794434,-3.01017427444458,0.74909067153931,3.09812474250793,2.55326581001282,1.15186703205109
21,4110416791,0.010462,-0.650429,0.197392,-0.733395,9.61942481994629,-3.03849434852600,0.75451123714447,2.91909217834473,2.96036720275879,1.27054357528687
22,4110433458,0.010408,-0.650439,0.197472,-0.733365,9.62688732147217,-3.04063606262207,0.73294806480408,2.67144942283630,3.21811413764954,1.33964037895203
23,4110450125,0.010374,-0.650457,0.197518,-0.733337,9.62066459655762,-3.05117964744568,0.71395021677017,2.51454615592957,3.30597877502441,1.24475812911987
24,4110466792,0.010320,-0.650478,0.197558,-0.733308,9.62790393829346,-3.06407785415649,0.75142502784729,2.54220128059387,3.26864147186279,1.12161850929260
25,4110483459,0.010294,-0.650506,0.197570,-0.733280,9.63016128540039,-3.06620073318481,0.71315926313400,2.84116578102112,3.19409584999084,1.12777853012085
26,4110500126,0.010386,-0.650549,0.197472,-0.733267,9.62988853454590,-3.05526995658875,0.69517546892166,3.35333061218262,3.21504759788513,1.16313683986664
27,4110516793,0.010435,-0.650577,0.197382,-0.733266,9.61879730224609,-3.04229688644409,0.70863026380539,3.71284222602844,3.20381522178650,1.05261790752411
28,4110533460,0.010474,-0.650615,0.197308,-0.733252,9.61942100524902,-2.99067950248718,0.72083324193954,3.56590270996094,3.11588740348816,1.05511522293091
29,4110550127,0.010487,-0.650659,0.197252,-0.733228,9.61617279052734,-3.00811910629272,0.69649422168732,3.20076799392700,3.13143444061279,0.99124997854233
30,4110566794,0.010449,-0.650716,0.197249,-0.733179,9.60596656799316,-3.01041722297668,0.71011275053024,2.93930077552795,2.93174529075623,0.96883887052536
31,4110583461,0.010393,-0.650770,0.197266,-0.733126,9.62930011749268,-3.00858020782471,0.70134639739990,2.75123953819275,2.95471930503845,0.97694510221481
32,4110600128,0.010331,-0.650788,0.197305,-0.733101,9.61774349212646,-3.00866222381592,0.73700904846191,2.56734061241150,3.29823684692383,1.08450579643250
33,4110616795,0.010265,-0.650793,0.197361,-0.733083,9.58912944793701,-3.04594087600708,0.73189699649811,2.56185913085938,3.37893009185791,1.16185617446899
34,4110633462,0.010239,-0.650803,0.197402,-0.733063,9.59381484985352,-3.03100800514221,0.70450866222382,2.81743550300598,3.28712105751038,1.28698694705963
35,4110650129,0.010265,-0.650804,0.197399,-0.733062,9.59370994567871,-3.04140996932983,0.71305084228516,3.21703839302063,3.36769199371338,1.36105239391327
36,4110666796,0.010315,-0.650811,0.197349,-0.733069,9.58413600921631,-3.01697254180908,0.69409871101379,3.70827102661133,3.29419064521790,1.27354049682617
37,4110683463,0.010412,-0.650841,0.197274,-0.733061,9.54031181335449,-2.99181103706360,0.69665455818176,3.85179162025452,3.09772801399231,1.35286295413971
38,4110700130,0.010498,-0.650848,0.197218,-0.733069,9.59189033508301,-2.97653818130493,0.68933653831482,3.60305428504944,3.34623551368713,1.41035068035126
39,4110716797,0.010489,-0.650850,0.197253,-0.733058,9.66888046264648,-2.98525452613831,0.68240314722061,2.91847157478333,3.34620356559753,1.36041235923767
40,4110733464,0.010387,-0.650869,0.197362,-0.733013,9.66359043121338,-2.99870419502258,0.69062358140945,2.14485263824463,3.22048377990723,1.20014071464539
41,4110750131,0.010223,-0.650924,0.197506,-0.732928,9.61569976806641,-3.03656935691833,0.70389133691788,1.60890662670135,2.95832443237305,0.99837666749954
42,4110766798,0.010155,-0.651004,0.197546,-0.732847,9.55098724365234,-3.07100605964661,0.69612735509872,2.19358062744141,2.82704663276672,0.96062356233597
43,4110783465,0.010208,-0.651102,0.197462,-0.732782,9.54748535156250,-3.07954907417297,0.68288743495941,3.17498874664307,2.71264100074768,0.97487068176270
44,4110800132,0.010324,-0.651183,0.197316,-0.732747,9.59731864929199,-3.02837514877319,0.70285505056381,3.98696875572205,2.78514385223389,1.05066490173340
45,4110816799,0.010428,-0.651232,0.197180,-0.732739,9.63536453247070,-3.00670576095581,0.68293082714081,4.22187614440918,2.98027467727661,1.08955800533295
46,4110833466,0.010447,-0.651249,0.197125,-0.732738,9.65059757232666,-2.97645115852356,0.67132377624512,3.70895576477051,3.20118427276611,1.09095382690430
47,4110850133,0.010397,-0.651280,0.197173,-0.732699,9.62472915649414,-2.95825099945068,0.68828040361404,2.63972759246826,3.12854623794556,1.17156958580017
48,4110866800,0.010284,-0.651316,0.197301,-0.732634,9.60870361328125,-2.97617721557617,0.72287327051163,2.04879832267761,3.03479766845703,1.21884441375732
49,4110883467,0.010200,-0.651350,0.197446,-0.732566,9.63354396820068,-3.03065490722656,0.71467643976212,1.75324058532715,3.10765337944031,1.42190206050873
50,4110900134,0.010142,-0.651359,0.197558,-0.732528,9.62597370147705,-3.07492733001709,0.71845340728760,2.18806743621826,3.29269218444824,1.44186699390411
51,4110916801,0.010143,-0.651354,0.197585,-0.732525,9.61617565155029,-3.08620190620422,0.71728128194809,3.11328792572021,3.36972236633301,1.39276754856110
52,4110933468,0.010209,-0.651336,0.197490,-0.732566,9.63144207000732,-3.08439111709595,0.69856166839600,3.91345477104187,3.59262990951538,1.16889965534210
53,4110950135,0.010317,-0.651341,0.197314,-0.732608,9.58223342895508,-3.04062294960022,0.70563536882401,4.32065820693970,3.48482608795166,0.97972428798676
54,4110966802,0.010397,-0.651327,0.197171,-0.732658,9.59007072448730,-3.01571416854858,0.69660657644272,4.36241960525513,3.54780769348145,1.03257620334625
55,4110983469,0.010505,-0.651282,0.197036,-0.732733,9.61278152465820,-3.01907396316528,0.67564934492111,4.41430425643921,3.79760193824768,1.24515509605408
56,4111000136,0.010580,-0.651235,0.196919,-0.732805,9.62823581695557,-3.00281143188477,0.67444562911987,4.18929672241211,3.84070754051208,1.15944206714630
57,4111016803,0.010564,-0.651205,0.196859,-0.732848,9.62243652343750,-2.96636533737183,0.67799007892609,3.44147014617920,3.75225448608398,0.93454992771149
58,4111033470,0.010489,-0.651181,0.196868,-0.732867,9.61405181884766,-2.95883631706238,0.65373843908310,2.69673562049866,3.73077154159546,0.93837249279022
59,4111050137,0.010291,-0.651183,0.197029,-0.732826,9.58568859100342,-2.98847937583923,0.67498785257339,1.89288771152496,3.31084537506104,1.00543308258057
60,4111066804,0.010071,-0.651178,0.197203,-0.732785,9.59068775177002,-3.03453993797302,0.67652612924576,2.04174900054932,3.27378368377686,0.99064177274704
61,4111083471,0.010033,-0.651178,0.197183,-0.732792,9.58486843109131,-3.05046892166138,0.67613017559052,3.23584508895874,3.42983555793762,0.97255277633667
62,4111100138,0.010155,-0.651189,0.196997,-0.732830,9.60490798950195,-3.04151511192322,0.68503111600876,4.25150394439697,3.46980428695679,0.98780512809753
63,4111116805,0.010193,-0.651191,0.196890,-0.732856,9.63082981109619,-2.98750138282776,0.69119948148727,4.13162994384766,3.36377358436584,0.97240537405014
64,4111133472,0.010208,-0.651223,0.196838,-0.732842,9.64206314086914,-2.96656537055969,0.68800634145737,3.25555992126465,3.20950841903687,1.03397834300995
65,4111150139,0.010119,-0.651251,0.196889,-0.732805,9.63631153106689,-2.97845125198364,0.67356228828430,2.44815135002136,3.20805478096008,0.99601382017136
66,4111166806,0.009965,-0.651265,0.197010,-0.732762,9.62677097320557,-3.01065254211426,0.68430638313293,2.13106656074524,3.23526835441589,1.02170360088348
67,4111183473,0.009887,-0.651288,0.197041,-0.732734,9.62464332580566,-3.04833316802979,0.71550822257996,2.48868370056152,3.29731512069702,0.95832473039627
68,4111200140,0.009869,-0.651298,0.197028,-0.732729,9.63201904296875,-3.04638719558716,0.70350700616837,2.94817590713501,3.40590023994446,1.07314658164978
69,4111216807,0.009898,-0.651311,0.196955,-0.732737,9.63729286193848,-3.04004883766174,0.71684145927429,3.42245244979858,3.39996457099915,1.03427278995514
70,4111233474,0.009879,-0.651297,0.196935,-0.732755,9.62019538879395,-3.02264189720154,0.74281644821167,3.51053404808044,3.46050000190735,1.10155749320984
71,4111250141,0.009906,-0.651295,0.196892,-0.732768,9.64042568206787,-3.03135919570923,0.71122175455093,3.44356369972229,3.43917107582092,1.19026052951813
72,4111266808,0.009892,-0.651254,0.196867,-0.732811,9.64273071289062,-3.02706456184387,0.70219522714615,3.59533214569092,3.70462155342102,1.14509272575378
73,4111283475,0.009900,-0.651200,0.196831,-0.732869,9.62097644805908,-2.99483036994934,0.70965218544006,3.42362427711487,3.91317248344421,1.19798290729523
74,4111300142,0.009889,-0.651151,0.196791,-0.732923,9.61022090911865,-2.99115300178528,0.68822443485260,3.16170239448547,3.96516013145447,1.05760598182678
75,4111316809,0.009836,-0.651094,0.196808,-0.732970,9.61121654510498,-3.00822949409485,0.68285346031189,2.83438467979431,3.97841453552246,1.12448084354401
76,4111333476,0.009820,-0.651062,0.196814,-0.732997,9.58980941772461,-3.03421235084534,0.69503450393677,2.98042130470276,3.73876237869263,1.23294389247894
77,4111350143,0.009798,-0.651040,0.196796,-0.733021,9.58855247497559,-3.00340294837952,0.68970495462418,3.26139330863953,3.60675477981567,1.09428977966309
78,4111366810,0.009805,-0.651006,0.196725,-0.733071,9.57347965240479,-2.99859023094177,0.69651031494141,3.74526214599609,3.73111128807068,1.01594710350037
79,4111383477,0.009824,-0.650980,0.196627,-0.733120,9.59899044036865,-2.99659013748169,0.68045371770859,3.85316896438599,3.68619942665100,0.94412904977798
80,4111400144,0.009778,-0.650954,0.196584,-0.733155,9.61634635925293,-2.97598385810852,0.69117528200150,3.43633484840393,3.66843700408936,0.86926317214966
81,4111416811,0.009672,-0.650948,0.196595,-0.733158,9.62059974670410,-2.96966505050659,0.67938065528870,2.81458020210266,3.51456212997437,0.78898650407791
82,4111433478,0.009597,-0.650976,0.196594,-0.733135,9.62294483184814,-2.99870872497559,0.66478013992310,2.43325781822205,3.36162853240967,0.80395710468292
83,4111450145,0.009462,-0.650987,0.196666,-0.733108,9.60688781738281,-3.00933909416199,0.67576181888580,2.37089061737061,3.32918977737427,0.89451068639755
84,4111466812,0.009376,-0.650997,0.196674,-0.733098,9.62527847290039,-3.00996279716492,0.70225614309311,2.62041616439819,3.43947196006775,0.83174043893814
85,4111483479,0.009278,-0.650994,0.196666,-0.733104,9.61472797393799,-3.02029395103455,0.70016878843307,2.95909309387207,3.50319647789001,0.74281316995621
86,4111500146,0.009189,-0.650996,0.196637,-0.733111,9.62127590179443,-3.00069499015808,0.73518395423889,3.02139616012573,3.49699854850769,0.66925346851349
87,4111516813,0.009167,-0.651016,0.196561,-0.733114,9.62743854522705,-2.97747206687927,0.73250091075897,3.01592779159546,3.46995139122009,0.74698799848557
88,4111533480,0.009117,-0.651039,0.196532,-0.733102,9.63496875762939,-2.98027420043945,0.71002358198166,2.85034775733948,3.35055112838745,0.81694263219833
89,4111550147,0.009018,-0.651019,0.196563,-0.733112,9.65711307525635,-3.00705885887146,0.70719921588898,2.79690718650818,3.59405159950256,0.93697667121887
90,4111566814,0.008964,-0.650964,0.196539,-0.733168,9.65766334533691,-3.01402068138123,0.67572963237762,2.92116737365723,4.05109691619873,0.92806351184845
91,4111583481,0.008916,-0.650877,0.196509,-0.733254,9.62473869323730,-3.04886817932129,0.74678701162338,3.19800233840942,4.28012657165527,0.98343819379807
92,4111600148,0.008852,-0.650789,0.196450,-0.733349,9.57250022888184,-2.98540186882019,0.73557686805725,3.34840583801270,4.32656812667847,0.77804338932037
93,4111616815,0.008795,-0.650720,0.196387,-0.733428,9.54339313507080,-2.97274684906006,0.73180812597275,3.56770205497742,4.08498907089233,0.78874951601028
94,4111633482,0.008841,-0.650670,0.196279,-0.733500,9.61548519134521,-3.01530122756958,0.72214704751968,3.80451059341431,3.96310424804688,1.04805886745453
95,4111650149,0.008927,-0.650615,0.196104,-0.733596,9.69004821777344,-3.00443816184998,0.70239937305450,4.28472328186035,4.05870389938354,0.94521111249924
96,4111666816,0.008957,-0.650551,0.195942,-0.733695,9.71058273315430,-2.97625994682312,0.69506239891052,4.19628906250000,4.11974573135376,0.75168800354004
97,4111683483,0.008853,-0.650520,0.195925,-0.733728,9.64964866638184,-2.91621613502502,0.71451985836029,3.05677938461304,3.75740194320679,0.70713454484940
98,4111700150,0.008684,-0.650527,0.195996,-0.733705,9.57557392120361,-2.95967984199524,0.71438890695572,1.79692327976227,3.55793762207031,0.69233703613281
99,4111716817,0.008558,-0.650517,0.196026,-0.733707,9.53664779663086,-3.03303194046021,0.70925986766815,2.11961102485657,3.72360658645630,0.73973959684372
100,4111733484,0.008474,-0.650487,0.195960,-0.733753,9.53862380981445,-3.04457569122314,0.71395283937454,3.38947653770447,3.78334856033325,0.58186298608780
101,4111750151,0.008543,-0.650468,0.195737,-0.733828,9.57476902008057,-2.96338272094727,0.72006905078888,4.57508182525635,3.75210714340210,0.61587023735046
102,4111766818,0.008577,-0.650423,0.195583,-0.733909,9.60126399993896,-2.91802525520325,0.71861648559570,4.78723096847534,3.72650694847107,0.82869881391525
103,4111783485,0.008634,-0.650398,0.195457,-0.733964,9.61853122711182,-2.88767814636230,0.72147029638290,4.12289619445801,3.68377900123596,1.00344800949097
104,4111800152,0.008644,-0.650384,0.195419,-0.733986,9.61493015289307,-2.90186715126038,0.70670431852341,3.33492064476013,3.57324671745300,1.14036059379578
105,4111816819,0.008598,-0.650355,0.195486,-0.733995,9.62315940856934,-2.92502784729004,0.71542227268219,2.61119580268860,3.64569282531738,1.35507214069366
106,4111833486,0.008527,-0.650351,0.195606,-0.733967,9.59514141082764,-2.93044805526733,0.70878374576569,2.18539071083069,3.38321995735168,1.44022774696350
107,4111850153,0.008455,-0.650365,0.195738,-0.733920,9.58757972717285,-2.95437145233154,0.72003644704819,2.09132790565491,3.22363972663879,1.45314919948578
108,4111866820,0.008384,-0.650395,0.195874,-0.733858,9.59387874603271,-2.95443940162659,0.71810466051102,2.05308890342712,3.06338167190552,1.46695470809937
109,4111883487,0.008353,-0.650434,0.195942,-0.733806,9.53855800628662,-2.98056077957153,0.70696771144867,2.58901476860046,3.00921654701233,1.34468579292297
110,4111900154,0.008407,-0.650459,0.195936,-0.733785,9.49516010284424,-2.98827838897705,0.70566183328629,3.38934755325317,3.10842776298523,1.46089088916779
111,4111916821,0.008526,-0.650500,0.195844,-0.733771,9.56756305694580,-3.02293586730957,0.68538129329681,4.11575651168823,2.95392584800720,1.38823401927948
112,4111933488,0.008644,-0.650568,0.195695,-0.733750,9.61278820037842,-2.98182225227356,0.71957796812057,4.16790342330933,2.86137390136719,1.07195556163788
113,4111950155,0.008710,-0.650654,0.195581,-0.733703,9.63533878326416,-2.94618034362793,0.72749131917953,3.64678144454956,2.75332069396973,0.93572801351547
114,4111966822,0.008695,-0.650765,0.195576,-0.733606,9.65035247802734,-2.94573211669922,0.70945972204208,2.93264818191528,2.43307232856750,1.00584292411804
115,4111983489,0.008687,-0.650891,0.195605,-0.733487,9.63025474548340,-2.94884705543518,0.74855035543442,2.43632483482361,2.34993314743042,1.15426838397980
116,4112000156,0.008654,-0.650980,0.195674,-0.733390,9.63571071624756,-2.98201823234558,0.73599970340729,2.41609096527100,2.58651804924011,1.27092146873474
117,4112016823,0.008640,-0.651030,0.195758,-0.733323,9.62285232543945,-3.01666283607483,0.74365699291229,2.89733409881592,2.76039600372314,1.51240432262421
118,4112033490,0.008706,-0.651069,0.195771,-0.733284,9.64596271514893,-2.99824190139771,0.71674293279648,3.31991839408875,2.92984986305237,1.58925545215607
119,4112050157,0.008838,-0.651123,0.195709,-0.733251,9.62827968597412,-2.98798751831055,0.71219605207443,3.36978673934937,3.00104069709778,1.51980662345886
120,4112066824,0.008906,-0.651164,0.195707,-0.733214,9.64821529388428,-2.97864556312561,0.69388896226883,3.21876120567322,2.99021887779236,1.52065181732178
121,4112083491,0.008934,-0.651181,0.195759,-0.733185,9.66487979888916,-2.97469091415405,0.68367475271225,3.08866119384766,3.10898494720459,1.60883629322052
122,4112100158,0.009064,-0.651220,0.195751,-0.733151,9.64757442474365,-2.99328255653381,0.69381850957870,3.07412624359131,3.07985091209412,1.77323126792908
123,4112116825,0.009160,-0.651233,0.195774,-0.733132,9.64551353454590,-2.97088718414307,0.70881867408752,3.26072692871094,3.16634440422058,1.80604124069214
124,4112133492,0.009267,-0.651266,0.195791,-0.733097,9.63564872741699,-2.95502018928528,0.66406500339508,3.20544886589050,3.02186965942383,1.80503582954407
125,4112150159,0.009334,-0.651277,0.195864,-0.733067,9.63769626617432,-2.95930075645447,0.69883412122726,2.98821473121643,3.13532161712646,1.89457821846008
126,4112166826,0.009350,-0.651274,0.195990,-0.733036,9.63682937622070,-2.96960258483887,0.68235176801682,2.70181369781494,3.20194005966187,1.91318571567535
127,4112183493,0.009284,-0.651263,0.196175,-0.732997,9.62922954559326,-2.99929738044739,0.68269300460815,2.59246611595154,3.13280439376831,1.81206011772156
128,4112200160,0.009284,-0.651273,0.196306,-0.732953,9.62035369873047,-3.03280425071716,0.69516599178314,2.80951499938965,3.03077054023743,1.85364890098572
129,4112216827,0.009245,-0.651277,0.196426,-0.732917,9.63909149169922,-3.01000380516052,0.68915933370590,2.91350245475769,3.06912517547607,1.62605452537537
130,4112233494,0.009277,-0.651289,0.196478,-0.732893,9.64517974853516,-3.01424741744995,0.69394570589066,2.98582029342651,3.18867301940918,1.63174057006836
131,4112250161,0.009305,-0.651285,0.196517,-0.732885,9.62616443634033,-3.01563191413879,0.70622020959854,3.06465601921082,3.33702158927917,1.57320272922516
132,4112266828,0.009291,-0.651286,0.196589,-0.732866,9.61792182922363,-3.02094578742981,0.72481846809387,3.05779814720154,3.21088528633118,1.52417361736298
133,4112283495,0.009342,-0.651282,0.196598,-0.732866,9.62232398986816,-3.01864862442017,0.68873560428619,3.32350397109985,3.34517240524292,1.54895377159119
134,4112300162,0.009380,-0.651285,0.196610,-0.732860,9.65114307403564,-3.01148247718811,0.73690772056580,3.24940586090088,3.30315446853638,1.49287462234497
135,4112316829,0.009419,-0.651275,0.196642,-0.732859,9.64975833892822,-2.99374771118164,0.70623898506165,3.15438961982727,3.38945055007935,1.60468053817749
136,4112333496,0.009456,-0.651260,0.196679,-0.732862,9.63761425018311,-2.99935770034790,0.70238512754440,3.12570977210999,3.43024468421936,1.61842811107635
137,4112350163,0.009477,-0.651254,0.196748,-0.732848,9.62870883941650,-3.00041699409485,0.68961340188980,2.87379646301270,3.33871841430664,1.67062711715698
138,4112366830,0.009419,-0.651224,0.196854,-0.732848,9.60828685760498,-3.01254796981812,0.69962924718857,2.50731730461121,3.57977247238159,1.48764979839325
139,4112383497,0.009442,-0.651196,0.196881,-0.732865,9.60494518280029,-3.03189444541931,0.67238998413086,2.65177297592163,3.73714947700500,1.48571610450745
140,4112400164,0.009442,-0.651174,0.196894,-0.732881,9.57278156280518,-2.99191641807556,0.67105531692505,2.80165815353394,3.68100619316101,1.31257414817810
141,4112416831,0.009350,-0.651124,0.197012,-0.732895,9.54218673706055,-2.96000051498413,0.68451881408691,2.75535702705383,3.64105725288391,1.42819643020630
142,4112433498,0.009361,-0.651109,0.197060,-0.732895,9.54375457763672,-2.99226522445679,0.68985903263092,3.10929799079895,3.40417695045471,1.54595041275024
143,4112450165,0.009434,-0.651118,0.197037,-0.732893,9.62112426757812,-2.99934458732605,0.65789186954498,3.58448457717896,3.23853397369385,1.50303018093109
144,4112466832,0.009493,-0.651137,0.197032,-0.732876,9.69131851196289,-2.96382308006287,0.68382418155670,3.46062135696411,3.12558197975159,1.49972593784332
145,4112483499,0.009504,-0.651165,0.197086,-0.732836,9.65612983703613,-2.94335508346558,0.67770379781723,2.54711914062500,3.16328358650208,1.49241364002228
146,4112500166,0.009330,-0.651204,0.197341,-0.732735,9.59335136413574,-2.96633601188660,0.70675247907639,1.18005383014679,2.92052626609802,1.48478090763092
147,4112516833,0.009159,-0.651232,0.197574,-0.732650,9.58436870574951,-3.05944418907166,0.67853397130966,1.02583992481232,3.13256144523621,1.39573860168457
148,4112533500,0.009107,-0.651252,0.197641,-0.732614,9.59346389770508,-3.11542749404907,0.67265391349792,2.25331568717957,3.29823684692383,1.24503326416016
149,4112550167,0.009155,-0.651276,0.197603,-0.732603,9.58977699279785,-3.08106064796448,0.72049808502197,3.52925062179565,3.15748238563538,1.28465604782104
150,4112566834,0.009287,-0.651294,0.197478,-0.732620,9.62018871307373,-3.02062606811523,0.73231887817383,4.19569969177246,3.25573921203613,1.31560277938843
151,4112583501,0.009390,-0.651288,0.197391,-0.732647,9.59428119659424,-2.98523211479187,0.72715848684311,4.07969951629639,3.39595556259155,1.38621687889099
152,4112600168,0.009434,-0.651305,0.197399,-0.732629,9.60763549804688,-2.95946812629700,0.71989643573761,3.10906839370728,3.22794961929321,1.47196841239929
153,4112616835,0.009373,-0.651269,0.197526,-0.732628,9.61843490600586,-2.98802161216736,0.70755469799042,2.23174357414246,3.65884494781494,1.55981981754303
154,4112633502,0.009294,-0.651194,0.197684,-0.732653,9.63090705871582,-3.03290653228760,0.68207108974457,2.03054308891296,4.00055742263794,1.66214287281036
155,4112650169,0.009220,-0.651135,0.197808,-0.732673,9.62449932098389,-3.04567575454712,0.68309795856476,2.22357344627380,3.88848900794983,1.50762152671814
156,4112666836,0.009147,-0.651091,0.197895,-0.732689,9.62088203430176,-3.04221034049988,0.70080447196960,2.39972472190857,3.79177522659302,1.33529913425446
157,4112683503,0.009108,-0.651090,0.197915,-0.732685,9.59498786926270,-3.05769014358521,0.71817892789841,2.86678528785706,3.43201923370361,1.14124441146851
158,4112700170,0.009155,-0.651142,0.197834,-0.732660,9.55493450164795,-3.02366805076599,0.70201045274734,3.44980716705322,3.04010629653931,1.03424739837646
159,4112716837,0.009216,-0.651147,0.197762,-0.732675,9.59410858154297,-3.01966500282288,0.68186658620834,4.18429613113403,3.22124528884888,1.25296056270599
160,4112733504,0.009329,-0.651122,0.197648,-0.732726,9.62970066070557,-2.99649953842163,0.69117242097855,4.40243864059448,3.55543947219849,1.34512770175934
161,4112750171,0.009367,-0.651081,0.197599,-0.732775,9.63616275787354,-2.94188404083252,0.69703125953674,3.60139560699463,3.76789188385010,1.27307307720184
162,4112766838,0.009379,-0.651075,0.197597,-0.732781,9.62491035461426,-2.94510245323181,0.65802329778671,2.57471680641174,3.64414978027344,1.26050364971161
163,4112783505,0.009307,-0.651097,0.197686,-0.732738,9.61319065093994,-2.99264454841614,0.65676432847977,1.83672523498535,3.35890126228333,1.22834682464600
164,4112800172,0.009121,-0.651125,0.197903,-0.732657,9.60446739196777,-3.03568410873413,0.67877691984177,1.36458063125610,3.06779980659485,1.27113270759583
165,4112816839,0.009052,-0.651168,0.197989,-0.732597,9.59266376495361,-3.06822276115417,0.68861085176468,2.23821091651917,3.03324198722839,1.22648358345032
166,4112833506,0.008984,-0.651178,0.198045,-0.732573,9.58645725250244,-3.05772256851196,0.67643737792969,3.40440893173218,3.03769898414612,1.20408535003662
167,4112850173,0.009080,-0.651213,0.197960,-0.732563,9.58901405334473,-3.00252151489258,0.67772233486176,3.97124266624451,3.04412746429443,1.30512726306915
168,4112866840,0.009148,-0.651240,0.197895,-0.732556,9.60235786437988,-2.98392820358276,0.66269469261169,3.85972547531128,3.10033440589905,1.26975607872009
169,4112883507,0.009291,-0.651292,0.197765,-0.732543,9.60561084747314,-2.96489214897156,0.66823953390121,3.28760170936584,3.24461054801941,1.23815000057220
170,4112900174,0.009173,-0.651298,0.197893,-0.732505,9.61140823364258,-2.97138023376465,0.68384540081024,2.50748968124390,3.17079448699951,1.26349377632141
171,4112916841,0.009081,-0.651325,0.198012,-0.732450,9.60641098022461,-3.00988578796387,0.67482823133469,1.96265661716461,3.16695332527161,1.27966833114624
172,4112933508,0.009075,-0.651368,0.198034,-0.732406,9.62513446807861,-3.05632948875427,0.68568116426468,2.07231736183167,3.28019976615906,1.20397007465363
173,4112950175,0.009067,-0.651419,0.198032,-0.732361,9.62161540985107,-3.04390192031860,0.69057828187943,2.50976920127869,3.12718892097473,1.09427058696747
174,4112966842,0.009040,-0.651459,0.198049,-0.732321,9.62602996826172,-3.04291868209839,0.71605050563812,2.88605856895447,3.04657316207886,1.13842689990997
175,4112983509,0.009050,-0.651487,0.198006,-0.732308,9.61456298828125,-3.02786111831665,0.69478148221970,3.37781000137329,3.17773604393005,1.07289695739746
176,4113000176,0.009094,-0.651498,0.197934,-0.732317,9.62552928924561,-3.03617811203003,0.70635855197906,3.72110295295715,3.31442427635193,1.13078784942627
177,4113016843,0.009114,-0.651502,0.197865,-0.732332,9.62300491333008,-3.01446104049683,0.70086139440536,3.59819412231445,3.41041398048401,1.03308176994324
178,4113033510,0.009135,-0.651501,0.197812,-0.732347,9.60827541351318,-3.01380872726440,0.70169639587402,3.31595444679260,3.49750995635986,1.10794770717621
179,4113050177,0.009103,-0.651493,0.197822,-0.732352,9.61579418182373,-3.00186157226562,0.70299804210663,3.10371565818787,3.45576214790344,1.14977371692657
180,4113066844,0.009040,-0.651468,0.197871,-0.732362,9.61583042144775,-3.00893616676331,0.67961025238037,2.90485191345215,3.55441570281982,1.20593559741974
181,4113083511,0.009057,-0.651454,0.197859,-0.732377,9.64061546325684,-3.01374268531799,0.67053252458572,2.99333715438843,3.60902762413025,1.27629995346069
182,4113100178,0.009097,-0.651438,0.197826,-0.732400,9.61997890472412,-3.02385783195496,0.69345611333847,3.19594597816467,3.62730264663696,1.30202782154083
183,4113116845,0.009098,-0.651423,0.197808,-0.732418,9.60190010070801,-3.01203608512878,0.66721314191818,3.42003846168518,3.49777293205261,1.20533370971680
184,4113133512,0.008973,-0.651379,0.197913,-0.732430,9.61354732513428,-2.99424266815186,0.66683143377304,3.50973415374756,3.37045240402222,1.24413692951202
185,4113150179,0.009032,-0.651401,0.197842,-0.732429,9.62852191925049,-2.99217104911804,0.67418080568314,3.37600922584534,3.31818890571594,1.17151188850403
186,4113166846,0.009029,-0.651421,0.197852,-0.732409,9.62688541412354,-2.98165678977966,0.65197193622589,3.04577302932739,3.20915651321411,1.25575244426727
187,4113183513,0.009011,-0.651429,0.197903,-0.732388,9.61672687530518,-2.96470761299133,0.70351904630661,2.77982330322266,3.28504681587219,1.37675952911377
188,4113200180,0.008962,-0.651434,0.197982,-0.732363,9.59571266174316,-2.99714350700378,0.67352330684662,2.49729585647583,3.32830023765564,1.34959077835083
189,4113216847,0.008910,-0.651455,0.198082,-0.732317,9.57102203369141,-2.97334194183350,0.71998804807663,2.34627056121826,3.15568304061890,1.41204726696014
190,4113233514,0.008861,-0.651452,0.198213,-0.732285,9.60365009307861,-2.99765276908875,0.68565416336060,2.21928930282593,3.34057474136353,1.59909057617188
191,4113250181,0.008831,-0.651429,0.198292,-0.732285,9.66753387451172,-3.05840396881104,0.64305198192596,2.61250209808350,3.55138731002808,1.48353254795074
192,4113266848,0.008766,-0.651437,0.198347,-0.732263,9.67212867736816,-3.01161503791809,0.68325507640839,2.54239344596863,3.34905290603638,1.15549135208130
193,4113283515,0.008681,-0.651454,0.198396,-0.732237,9.63928127288818,-3.03144311904907,0.70055627822876,2.48624396324158,3.30692625045776,1.02096712589264
194,4113300182,0.008624,-0.651448,0.198407,-0.732239,9.59410095214844,-3.07563185691833,0.67938196659088,3.12229084968567,3.41254663467407,1.03554713726044
195,4113316849,0.008663,-0.651457,0.198319,-0.732255,9.57497406005859,-3.04904055595398,0.70555663108826,3.92855334281921,3.31539797782898,1.05147826671600
196,4113333516,0.008798,-0.651478,0.198162,-0.732276,9.60743618011475,-3.02674818038940,0.70483678579330,4.56485557556152,3.18777585029602,1.19821977615356
197,4113350183,0.008957,-0.651489,0.198028,-0.732301,9.64136981964111,-2.96588921546936,0.68911784887314,4.56147480010986,3.22665619850159,1.43034756183624
198,4113366850,0.009024,-0.651469,0.197997,-0.732327,9.64230251312256,-2.93717384338379,0.68416708707809,3.63950133323669,3.51371669769287,1.47711014747620
199,4113383517,0.008975,-0.651445,0.198090,-0.732323,9.61856746673584,-2.93937063217163,0.68725538253784,2.44974613189697,3.56684398651123,1.44811010360718
200,4113400184,0.008824,-0.651401,0.198309,-0.732305,9.61098384857178,-2.98697781562805,0.66759109497070,1.77843070030212,3.61450290679932,1.55951881408691
201,4113416851,0.008749,-0.651376,0.198470,-0.732285,9.60773181915283,-3.05212116241455,0.67158776521683,1.96972560882568,3.53779911994934,1.62943518161774
202,4113433518,0.008781,-0.651378,0.198493,-0.732276,9.59775638580322,-3.06699848175049,0.66359406709671,2.79868721961975,3.41742587089539,1.48794436454773
203,4113450185,0.008829,-0.651379,0.198479,-0.732279,9.61912918090820,-3.05252504348755,0.69499260187149,3.67964887619019,3.24930405616760,1.44688725471497
204,4113466852,0.008879,-0.651378,0.198456,-0.732285,9.62200546264648,-3.01722002029419,0.68837058544159,4.10302639007568,3.15693187713623,1.43702626228333
205,4113483519,0.008912,-0.651398,0.198413,-0.732278,9.59586811065674,-2.99234199523926,0.67870950698853,3.99640130996704,3.04377532005310,1.23375105857849
206,4113500186,0.008894,-0.651422,0.198414,-0.732258,9.58504199981689,-2.97890353202820,0.65110909938812,3.53549408912659,3.03865909576416,1.16182422637939
207,4113516853,0.008962,-0.651422,0.198387,-0.732264,9.62718105316162,-2.99634957313538,0.64952427148819,3.01681709289551,3.51673865318298,1.43046915531158
208,4113533520,0.008902,-0.651386,0.198468,-0.732275,9.63212013244629,-2.99636030197144,0.66979813575745,2.58532071113586,3.67795872688293,1.36524665355682
209,4113550187,0.008834,-0.651350,0.198547,-0.732286,9.63795566558838,-3.00746536254883,0.70783877372742,2.29207420349121,3.77507543563843,1.30400037765503
210,4113566854,0.008804,-0.651323,0.198604,-0.732295,9.61299705505371,-3.03370141983032,0.70122253894806,2.40135097503662,3.73182797431946,1.36392128467560
211,4113583521,0.008763,-0.651299,0.198652,-0.732303,9.59633159637451,-3.04205775260925,0.66454863548279,2.69780516624451,3.61458659172058,1.28873515129089
212,4113600188,0.008732,-0.651276,0.198651,-0.732325,9.61616802215576,-3.05577683448792,0.67955297231674,3.15183472633362,3.61240220069885,1.12857234477997
213,4113616855,0.008770,-0.651257,0.198530,-0.732374,9.60755920410156,-3.03127741813660,0.68765813112259,3.87975406646729,3.68956756591797,0.91769665479660
214,4113633522,0.008870,-0.651237,0.198362,-0.732436,9.58975505828857,-3.00095939636230,0.68229961395264,4.25204753875732,3.71450066566467,1.00486934185028
215,4113650189,0.008928,-0.651227,0.198265,-0.732470,9.60602569580078,-2.97957348823547,0.68690252304077,3.84335207939148,3.54356837272644,1.11330735683441
216,4113666856,0.008849,-0.651200,0.198319,-0.732481,9.60595893859863,-2.97747302055359,0.65466231107712,3.14649462699890,3.48406982421875,1.16960382461548
217,4113683523,0.008866,-0.651216,0.198281,-0.732476,9.61554431915283,-2.98142004013062,0.67016071081161,2.62754321098328,3.52497410774231,1.08812999725342
218,4113700190,0.008704,-0.651204,0.198438,-0.732447,9.62287139892578,-3.00000190734863,0.66295003890991,2.17265486717224,3.35953450202942,1.19462108612061
219,4113716857,0.008589,-0.651185,0.198547,-0.732436,9.63088607788086,-3.01279163360596,0.67521804571152,2.24885916709900,3.53628158569336,1.19553685188293
220,4113733524,0.008415,-0.651127,0.198699,-0.732447,9.59328079223633,-3.05309557914734,0.70681536197662,2.68564558029175,3.62406945228577,1.21109664440155
221,4113750191,0.008443,-0.651119,0.198663,-0.732464,9.61078643798828,-3.05444192886353,0.72371655702591,3.21504020690918,3.55995368957520,1.21929895877838
222,4113766858,0.008471,-0.651098,0.198579,-0.732506,9.61807823181152,-3.02704119682312,0.69876945018768,3.75194668769836,3.64094209671021,1.04148280620575
223,4113783525,0.008509,-0.651076,0.198489,-0.732549,9.61301422119141,-3.03168201446533,0.69701844453812,3.82240772247314,3.63416743278503,1.06534123420715
224,4113800192,0.008524,-0.651052,0.198400,-0.732595,9.60813045501709,-2.99862861633301,0.69115668535233,3.72976708412170,3.69611167907715,0.95742219686508
225,4113816859,0.008543,-0.651018,0.198333,-0.732642,9.59530162811279,-2.98551392555237,0.69609147310257,3.62812876701355,3.74807310104370,1.09008932113647
226,4113833526,0.008545,-0.650991,0.198296,-0.732677,9.60900783538818,-3.00076889991760,0.67749321460724,3.39279937744141,3.67653727531433,1.12832927703857
227,4113850193,0.008658,-0.650983,0.198169,-0.732717,9.61562919616699,-2.98685479164124,0.69835442304611,3.18089246749878,3.83778142929077,1.18152678012848
228,4113866860,0.008638,-0.650942,0.198148,-0.732759,9.60459136962891,-2.98879480361938,0.69944399595261,3.18538761138916,3.82665276527405,1.10566186904907
229,4113883527,0.008539,-0.650914,0.198212,-0.732767,9.62466144561768,-2.98881554603577,0.68639129400253,2.81264615058899,3.56560802459717,1.09941232204437
230,4113900194,0.008463,-0.650880,0.198262,-0.732785,9.61442184448242,-3.01714420318604,0.69144815206528,2.71209073066711,3.71061420440674,1.14680862426758
231,4113916861,0.008469,-0.650874,0.198253,-0.732793,9.62187480926514,-3.03451752662659,0.69521987438202,3.07922267913818,3.49905323982239,1.23724699020386
232,4113933528,0.008486,-0.650886,0.198234,-0.732787,9.60533523559570,-2.99995446205139,0.69411462545395,3.35965013504028,3.25608515739441,1.23990452289581
233,4113950195,0.008541,-0.650916,0.198185,-0.732773,9.61960315704346,-2.98131632804871,0.68484896421432,3.31263804435730,3.20398902893066,1.24819028377533
234,4113966862,0.008547,-0.650924,0.198191,-0.732764,9.59538078308105,-2.98997306823730,0.67959314584732,3.12980198860168,3.29954981803894,1.29434430599213
235,4113983529,0.008508,-0.650912,0.198251,-0.732759,9.62599182128906,-3.00992631912231,0.70094203948975,2.78913378715515,3.44549751281738,1.34937965869904
236,4114000196,0.008456,-0.650897,0.198314,-0.732756,9.60815048217773,-3.01777553558350,0.68399077653885,2.59004616737366,3.53059601783752,1.28527092933655
237,4114016863,0.008404,-0.650870,0.198366,-0.732766,9.60414123535156,-3.05790996551514,0.71142387390137,2.76699161529541,3.61518192291260,1.26775193214417
238,4114033530,0.008456,-0.650872,0.198307,-0.732780,9.60685157775879,-3.02018713951111,0.72116595506668,3.08925008773804,3.56868124008179,1.20190143585205
239,4114050197,0.008462,-0.650891,0.198269,-0.732773,9.56530094146729,-2.98545026779175,0.70037865638733,3.29496574401855,3.27622985839844,1.07813465595245
240,4114066864,0.008467,-0.650915,0.198259,-0.732754,9.57337665557861,-2.97420144081116,0.70272856950760,3.09892559051514,3.20835614204407,1.19066405296326
241,4114083531,0.008485,-0.650909,0.198248,-0.732763,9.67942810058594,-3.01876902580261,0.67196685075760,3.30413436889648,3.43040513992310,1.30054247379303
242,4114100198,0.008481,-0.650908,0.198230,-0.732769,9.67046165466309,-3.00913333892822,0.67608398199081,3.14584851264954,3.45854091644287,1.14695608615875
243,4114116865,0.008368,-0.650910,0.198287,-0.732753,9.62523269653320,-2.95717477798462,0.71976166963577,2.43266224861145,3.42976474761963,0.94102984666824
244,4114133532,0.008243,-0.650915,0.198366,-0.732728,9.57485866546631,-3.01286053657532,0.69824957847595,2.40379047393799,3.35201096534729,0.98250317573547
245,4114150199,0.008180,-0.650914,0.198396,-0.732721,9.55893039703369,-3.03252625465393,0.70140475034714,2.87950801849365,3.38886809349060,1.08448028564453
246,4114166866,0.008166,-0.650907,0.198400,-0.732727,9.59521007537842,-3.04462981224060,0.72210270166397,3.48507499694824,3.34336018562317,1.23596012592316
247,4114183533,0.008264,-0.650874,0.198346,-0.732770,9.64655780792236,-3.01453685760498,0.68971359729767,4.25164413452148,3.49537777900696,1.56476962566376
248,4114200200,0.008469,-0.650866,0.198225,-0.732807,9.64628314971924,-2.94184041023254,0.69638246297836,3.93968129158020,3.57450866699219,1.69689261913300
249,4114216867,0.008548,-0.650854,0.198248,-0.732811,9.61521339416504,-2.91815114021301,0.70733326673508,2.83939170837402,3.54983687400818,1.73302567005157
250,4114233534,0.008362,-0.650783,0.198518,-0.732803,9.62471961975098,-2.96332502365112,0.68760055303574,1.80931305885315,3.68984842300415,1.67492318153381
251,4114250201,0.008301,-0.650744,0.198668,-0.732797,9.61004161834717,-3.05481600761414,0.68401855230331,1.87557983398438,3.73307657241821,1.64930415153503
252,4114266868,0.008267,-0.650721,0.198751,-0.732796,9.59613418579102,-3.09040522575378,0.67252242565155,2.65013360977173,3.52604937553406,1.48826456069946
253,4114283535,0.008324,-0.650717,0.198734,-0.732804,9.61282062530518,-3.06253552436829,0.70415025949478,3.49552536010742,3.37239217758179,1.46650004386902
254,4114300202,0.008407,-0.650734,0.198650,-0.732810,9.62399291992188,-3.04696607589722,0.69507700204849,3.95205903053284,3.21171092987061,1.27115190029144
255,4114316869,0.008474,-0.650775,0.198536,-0.732804,9.58546161651611,-3.01601600646973,0.71627998352051,4.00373888015747,3.05836153030396,1.01839935779572
256,4114333536,0.008529,-0.650806,0.198442,-0.732801,9.56456184387207,-2.99226045608521,0.69100260734558,3.86151146888733,3.14699411392212,1.06693542003632
257,4114350203,0.008499,-0.650771,0.198468,-0.732826,9.59787940979004,-2.97610211372375,0.69099915027618,3.51050257682800,3.51937723159790,1.29674541950226
258,4114366870,0.008485,-0.650730,0.198460,-0.732865,9.61330699920654,-2.99679565429688,0.68814492225647,3.18006682395935,3.79323482513428,1.20275330543518
259,4114383537,0.008404,-0.650698,0.198508,-0.732880,9.62697219848633,-3.01327705383301,0.71278738975525,2.56314635276794,3.73085474967957,1.09826624393463
260,4114400204,0.008302,-0.650689,0.198579,-0.732870,9.62827205657959,-3.00531530380249,0.69245642423630,2.31814789772034,3.53719735145569,1.06412446498871
261,4114416871,0.008195,-0.650709,0.198677,-0.732828,9.60192203521729,-3.01452398300171,0.68803328275681,2.11607050895691,3.25557947158813,1.12341165542603
262,4114433538,0.008136,-0.650737,0.198721,-0.732791,9.60812664031982,-3.03546905517578,0.70989406108856,2.46016383171082,3.21315121650696,1.10631477832794
263,4114450205,0.008153,-0.650755,0.198685,-0.732785,9.59398841857910,-3.04035973548889,0.70780777931213,3.39610338211060,3.24725484848022,1.15091955661774
264,4114466872,0.008222,-0.650766,0.198589,-0.732800,9.59494781494141,-3.00787782669067,0.70003193616867,3.92652988433838,3.31665301322937,1.14578425884247
265,4114483539,0.008240,-0.650770,0.198535,-0.732811,9.59244346618652,-2.97923564910889,0.71530079841614,3.81186127662659,3.29366493225098,1.11981284618378
266,4114500206,0.008255,-0.650758,0.198522,-0.732825,9.60768127441406,-2.98415088653564,0.69675958156586,3.29402351379395,3.49828481674194,1.27897024154663
267,4114516873,0.008193,-0.650742,0.198579,-0.732825,9.64512920379639,-3.00516891479492,0.70911210775375,2.58153629302979,3.55454969406128,1.21557235717773
268,4114533540,0.008107,-0.650717,0.198670,-0.732823,9.64974308013916,-3.01934242248535,0.68854683637619,2.30278682708740,3.63576149940491,1.25684094429016
269,4114550207,0.008028,-0.650698,0.198745,-0.732820,9.62668132781982,-3.04246187210083,0.70894390344620,2.41085934638977,3.58338284492493,1.21953582763672
270,4114566874,0.007990,-0.650697,0.198764,-0.732817,9.59582996368408,-3.04208087921143,0.71782624721527,2.87357854843140,3.43767261505127,1.14025199413300
271,4114583541,0.007992,-0.650680,0.198724,-0.732843,9.61591434478760,-3.02932953834534,0.71128565073013,3.39425921440125,3.58827495574951,1.10604608058929
272,4114600208,0.008007,-0.650668,0.198650,-0.732873,9.61529064178467,-3.03087639808655,0.68602693080902,3.62751388549805,3.55702781677246,1.00892269611359
273,4114616875,0.008026,-0.650657,0.198543,-0.732912,9.60590934753418,-3.02107191085815,0.67778122425079,3.74222064018250,3.62193059921265,0.87469935417175
274,4114633542,0.007983,-0.650647,0.198489,-0.732936,9.61361217498779,-2.99572086334229,0.68940567970276,3.54518795013428,3.51054739952087,0.82263505458832
275,4114650209,0.007921,-0.650642,0.198483,-0.732942,9.62001895904541,-2.98601007461548,0.71362972259521,3.06250429153442,3.47293496131897,0.92759591341019
276,4114666876,0.007841,-0.650616,0.198494,-0.732964,9.61341953277588,-2.99144792556763,0.71902787685394,2.76957201957703,3.73234033584595,0.93293619155884
277,4114683543,0.007817,-0.650587,0.198496,-0.732989,9.61414527893066,-2.99163961410522,0.71180742979050,2.91859269142151,3.73121976852417,1.16430199146271
278,4114700210,0.007779,-0.650561,0.198492,-0.733014,9.60877895355225,-3.00128769874573,0.70809668302536,2.99642968177795,3.69490051269531,1.07469594478607
279,4114716877,0.007724,-0.650546,0.198520,-0.733020,9.62016677856445,-3.01983571052551,0.70489591360092,3.09854149818420,3.46114039421082,1.13918256759644
280,4114733544,0.007752,-0.650562,0.198475,-0.733018,9.63146400451660,-3.00997209548950,0.71885186433792,3.28722357749939,3.32482337951660,1.14984393119812
281,4114750211,0.007783,-0.650602,0.198396,-0.733003,9.61055183410645,-3.00077414512634,0.71294963359833,3.14226889610291,3.25328731536865,0.96513783931732
282,4114766878,0.007741,-0.650617,0.198365,-0.732998,9.61620521545410,-3.00525689125061,0.69544571638107,3.10451579093933,3.34651732444763,0.88107699155807
283,4114783545,0.007656,-0.650630,0.198350,-0.732992,9.60265541076660,-3.00473523139954,0.70840048789978,3.02600574493408,3.34617757797241,0.74833267927170
284,4114800212,0.007582,-0.650652,0.198334,-0.732978,9.60640239715576,-3.00527381896973,0.70130354166031,2.93497824668884,3.30068922042847,0.78308910131454
285,4114816879,0.007545,-0.650688,0.198264,-0.732964,9.59088420867920,-3.00610589981079,0.71761900186539,2.98968696594238,3.29884505271912,0.67844837903976
286,4114833546,0.007449,-0.650695,0.198258,-0.732961,9.61812782287598,-3.00627517700195,0.71363377571106,3.24586582183838,3.30947518348694,0.76325213909149
287,4114850213,0.007378,-0.650700,0.198246,-0.732961,9.63392734527588,-2.98584651947021,0.72291707992554,3.18071961402893,3.36189103126526,0.85634142160416
288,4114866880,0.007351,-0.650720,0.198206,-0.732955,9.63457870483398,-2.97819447517395,0.71556282043457,3.21835780143738,3.30066418647766,0.90544104576111
289,4114883547,0.007314,-0.650742,0.198177,-0.732943,9.61660099029541,-2.98293590545654,0.73459285497665,3.10884404182434,3.27248358726501,0.90560114383698
290,4114900214,0.007277,-0.650761,0.198177,-0.732926,9.60383796691895,-2.99099922180176,0.71563398838043,2.95534706115723,3.27224040031433,1.03626430034637
291,4114916881,0.007207,-0.650780,0.198205,-0.732903,9.60801410675049,-3.00026965141296,0.70968329906464,2.65882849693298,3.28721070289612,0.99618035554886
292,4114933548,0.007219,-0.650823,0.198150,-0.732879,9.58044624328613,-3.01427459716797,0.71517509222031,2.70028305053711,3.29586815834045,0.96325528621674
293,4114950215,0.007174,-0.650829,0.198124,-0.732881,9.57564163208008,-2.98561239242554,0.72399473190308,2.96732115745544,3.46541142463684,0.88783872127533
294,4114966882,0.007190,-0.650872,0.198030,-0.732868,9.56163024902344,-2.97668933868408,0.72365725040436,3.26949977874756,3.21991395950317,0.82269281148911
295,4114983549,0.007183,-0.650898,0.197979,-0.732859,9.57470512390137,-2.96371006965637,0.70607244968414,3.53694677352905,3.17173552513123,0.96476638317108
296,4115000216,0.007266,-0.650944,0.197832,-0.732857,9.65536975860596,-3.00220179557800,0.68240988254547,3.63853359222412,3.23465991020203,0.90532577037811
297,4115016883,0.007194,-0.650963,0.197784,-0.732854,9.70676898956299,-2.98526430130005,0.68164783716202,3.71200346946716,3.15816736221313,0.69514787197113
298,4115033550,0.007100,-0.651016,0.197758,-0.732814,9.68823623657227,-2.95288515090942,0.71189707517624,2.98542284965515,3.01606845855713,0.59468203783035
299,4115050217,0.006930,-0.651082,0.197838,-0.732736,9.62523937225342,-2.97165560722351,0.74444270133972,1.89485311508179,2.93109154701233,0.67198765277863
300,4115066884,0.006703,-0.651091,0.197982,-0.732691,9.60413360595703,-3.02107357978821,0.70517355203629,2.06485724449158,3.22434425354004,0.79286670684814
301,4115083551,0.006509,-0.651095,0.198063,-0.732668,9.58367919921875,-3.02475047111511,0.72412693500519,2.69253516197205,3.25655269622803,0.68585693836212
302,4115100218,0.006495,-0.651112,0.197992,-0.732671,9.59860324859619,-2.98855113983154,0.74518585205078,3.35696649551392,3.36465048789978,0.83695894479752
303,4115116885,0.006396,-0.651063,0.197983,-0.732719,9.61207866668701,-2.99795699119568,0.73585993051529,3.59832859039307,3.72926068305969,0.82686769962311
304,4115133552,0.006333,-0.651031,0.197943,-0.732758,9.61125469207764,-2.97285318374634,0.70223259925842,3.23488378524780,3.77601623535156,0.80363684892654
305,4115150219,0.006222,-0.651004,0.197945,-0.732782,9.60869598388672,-2.97430467605591,0.69726210832596,2.69240713119507,3.77999973297119,0.73637795448303
306,4115166886,0.006040,-0.650972,0.198008,-0.732796,9.64704895019531,-2.93158650398254,0.66830825805664,2.04076886177063,3.86494374275208,0.66123032569885
307,4115183553,0.005829,-0.650972,0.198087,-0.732776,9.66620635986328,-2.95607495307922,0.67414718866348,1.13929152488708,3.80308961868286,0.49661749601364
308,4115200220,0.005474,-0.650974,0.198287,-0.732723,9.64147663116455,-2.97600722312927,0.69040197134018,0.48100653290749,3.63154792785645,0.35933339595795
309,4115216887,0.005065,-0.650988,0.198513,-0.732652,9.60763072967529,-2.99237871170044,0.69890487194061,0.02795626223087,3.58817291259766,0.17236067354679
310,4115233554,0.004588,-0.651018,0.198736,-0.732568,9.57512760162354,-2.99271559715271,0.69870167970657,0.00804238766432,3.44161701202393,-0.17085590958595
311,4115250221,0.004132,-0.651076,0.198898,-0.732476,9.52970886230469,-2.98137593269348,0.69994783401489,0.16276870667934,3.31815099716187,-0.39875131845474
312,4115266888,0.003724,-0.651118,0.198986,-0.732416,9.56252193450928,-2.99683809280396,0.68708002567291,0.70343363285065,3.50104498863220,-0.47237503528595
313,4115283555,0.003465,-0.651180,0.198918,-0.732381,9.63422775268555,-3.00902748107910,0.70340913534164,1.50793516635895,3.52265596389771,-0.49603480100632
314,4115300222,0.003136,-0.651226,0.198865,-0.732356,9.66368103027344,-2.95133638381958,0.70243299007416,2.24015045166016,3.38925147056580,-0.67765432596207
315,4115316889,0.002889,-0.651297,0.198769,-0.732320,9.69415283203125,-2.93123054504395,0.71050071716309,2.47533917427063,3.20587706565857,-0.52262067794800
316,4115333556,0.002709,-0.651398,0.198677,-0.732255,9.64573478698730,-2.88986039161682,0.70355719327927,2.33683872222900,2.95614099502563,-0.23103296756744
317,4115350223,0.002539,-0.651520,0.198635,-0.732159,9.65016746520996,-2.87284040451050,0.68815433979034,2.07590913772583,2.70261335372925,0.01493220124394
318,4115366890,0.002355,-0.651601,0.198651,-0.732083,9.67210578918457,-2.89252448081970,0.69843423366547,2.13603520393372,2.89285206794739,0.29120358824730
319,4115383557,0.002233,-0.651654,0.198682,-0.732028,9.66908645629883,-2.91330885887146,0.70315432548523,2.36955928802490,3.04795050621033,0.70014894008636
320,4115400224,0.002162,-0.651696,0.198699,-0.731986,9.68124866485596,-2.89872598648071,0.68931454420090,2.67862701416016,3.08565115928650,0.91316950321198
321,4115416891,0.002110,-0.651731,0.198745,-0.731943,9.68255233764648,-2.89988350868225,0.67250621318817,2.62603187561035,3.09414243698120,1.14931869506836
322,4115433558,0.002098,-0.651788,0.198796,-0.731878,9.66553783416748,-2.92221951484680,0.67017549276352,2.74539971351624,2.82234025001526,1.34321951866150
323,4115450225,0.002096,-0.651835,0.198850,-0.731821,9.68596839904785,-2.94836735725403,0.66169929504395,2.78654646873474,2.90856552124023,1.41366732120514
324,4115466892,0.002071,-0.651872,0.198907,-0.731773,9.65570259094238,-2.95830106735229,0.66507077217102,2.68162393569946,3.01986527442932,1.33050298690796
325,4115483559,0.002022,-0.651890,0.198981,-0.731737,9.67381095886230,-2.93538260459900,0.65278178453445,2.50563931465149,3.20968103408813,1.31349599361420
326,4115500226,0.001931,-0.651906,0.199084,-0.731695,9.65606307983398,-2.94187021255493,0.66484940052032,2.16059756278992,3.24640917778015,1.23142015933990
327,4115516893,0.001781,-0.651907,0.199214,-0.731660,9.66162967681885,-2.96640229225159,0.66263234615326,1.77230942249298,3.43385696411133,1.08262336254120
328,4115533560,0.001658,-0.651887,0.199286,-0.731657,9.62894153594971,-2.98503088951111,0.65455871820450,2.23030257225037,3.64773464202881,0.98188847303391
329,4115550227,0.001623,-0.651868,0.199254,-0.731684,9.62146282196045,-2.97001433372498,0.66789215803146,3.09475064277649,3.68712139129639,0.94470524787903
330,4115566894,0.001579,-0.651807,0.199215,-0.731749,9.61991977691650,-2.94361376762390,0.65935164690018,3.46185159683228,3.97536063194275,0.95549470186234
331,4115583561,0.001597,-0.651768,0.199107,-0.731813,9.64282703399658,-2.90637230873108,0.67531156539917,3.49306011199951,3.96588325500488,0.88367658853531
332,4115600228,0.001566,-0.651712,0.199077,-0.731871,9.64527416229248,-2.89715552330017,0.66740047931671,3.23772740364075,3.97212052345276,1.03596985340118
333,4115616895,0.001538,-0.651664,0.199068,-0.731916,9.63305568695068,-2.90944242477417,0.65577733516693,3.13011527061462,3.87192320823669,1.13442492485046
334,4115633562,0.001522,-0.651607,0.199075,-0.731965,9.62356281280518,-2.91664719581604,0.65515434741974,3.10726857185364,3.91844844818115,1.27799677848816
335,4115650229,0.001522,-0.651557,0.199097,-0.732004,9.62698554992676,-2.92493319511414,0.68342900276184,3.08902001380920,3.82092833518982,1.41718924045563
336,4115666896,0.001516,-0.651511,0.199113,-0.732040,9.63488674163818,-2.90776491165161,0.64344757795334,3.01051688194275,3.81663799285889,1.35569298267365
337,4115683563,0.001427,-0.651446,0.199214,-0.732070,9.63815021514893,-2.90945053100586,0.67707961797714,2.90441632270813,3.77477407455444,1.37958967685699
338,4115700230,0.001402,-0.651409,0.199288,-0.732083,9.64400577545166,-2.94364428520203,0.67133271694183,2.72191953659058,3.65218544006348,1.51063072681427
339,4115716897,0.001373,-0.651373,0.199320,-0.732107,9.62554740905762,-2.94435596466064,0.69515758752823,3.04637455940247,3.67074775695801,1.31176722049713
340,4115733564,0.001405,-0.651360,0.199303,-0.732123,9.62664890289307,-2.92527770996094,0.68474471569061,3.01706075668335,3.60964870452881,1.32690429687500
341,4115750231,0.001458,-0.651346,0.199283,-0.732140,9.63670349121094,-2.92157673835754,0.68275445699692,2.79305195808411,3.69230079650879,1.39261364936829
342,4115766898,0.001377,-0.651273,0.199371,-0.732181,9.65888023376465,-2.96947240829468,0.68602943420410,2.49305033683777,4.02179574966431,1.34987878799438
343,4115783565,0.001306,-0.651207,0.199411,-0.732229,9.63279533386230,-2.96549916267395,0.67801272869110,2.62904143333435,4.05447769165039,1.15841114521027
344,4115800232,0.001254,-0.651140,0.199417,-0.732288,9.58723354339600,-2.95160126686096,0.69186639785767,2.88614153862000,4.08915758132935,1.09732496738434
345,4115816899,0.001220,-0.651059,0.199383,-0.732369,9.60175704956055,-2.96571826934814,0.66990268230438,3.51047682762146,4.12895965576172,1.05243861675262
346,4115833566,0.001218,-0.650977,0.199300,-0.732464,9.62430953979492,-2.95054626464844,0.69523352384567,4.21514654159546,4.06769466400146,1.01784873008728
347,4115850233,0.001365,-0.650919,0.199058,-0.732581,9.66862487792969,-2.91932892799377,0.71521037817001,4.46831512451172,4.22421312332153,0.94097220897675
348,4115866900,0.001393,-0.650832,0.198923,-0.732695,9.68041419982910,-2.90029549598694,0.69786393642426,4.16568851470947,4.27974176406860,0.90400040149689
349,4115883567,0.001346,-0.650770,0.198869,-0.732765,9.64419841766357,-2.87157917022705,0.70663726329803,3.10601997375488,4.14575481414795,0.84580183029175
350,4115900234,0.001176,-0.650710,0.198971,-0.732791,9.57402992248535,-2.88081908226013,0.71739655733109,2.22202992439270,3.94065546989441,0.95162719488144
351,4115916901,0.001082,-0.650650,0.198993,-0.732839,9.52780914306641,-2.95149564743042,0.69957548379898,2.73556447029114,4.02013111114502,0.96305036544800
352,4115933568,0.001182,-0.650595,0.198800,-0.732939,9.51764869689941,-2.96743774414062,0.69856059551239,4.34706497192383,4.09072065353394,0.94049859046936
353,4115950235,0.001344,-0.650538,0.198572,-0.733052,9.55530071258545,-2.91261410713196,0.68275636434555,5.50770425796509,3.85058832168579,1.14721846580505
354,4115966902,0.001593,-0.650513,0.198311,-0.733144,9.63900947570801,-2.87345743179321,0.67372679710388,5.67147874832153,3.59638881683350,1.36689221858978
355,4115983569,0.001764,-0.650507,0.198131,-0.733198,9.68568801879883,-2.87322926521301,0.69088220596313,4.68022823333740,3.49693417549133,1.30280935764313
356,4116000236,0.001793,-0.650541,0.198076,-0.733182,9.68524837493896,-2.90581440925598,0.67200595140457,3.26928853988647,3.18758416175842,1.08522939682007
357,4116016903,0.001602,-0.650563,0.198224,-0.733123,9.68395233154297,-2.93078064918518,0.67949366569519,2.09483766555786,3.08100342750549,0.96389573812485
358,4116033570,0.001501,-0.650606,0.198289,-0.733067,9.68277835845947,-2.98166441917419,0.68819600343704,1.76985049247742,3.22786641120911,0.93807792663574
359,4116050237,0.001389,-0.650622,0.198329,-0.733043,9.66753387451172,-2.97962093353271,0.70730358362198,2.24262237548828,3.41025400161743,0.83091431856155
360,4116066904,0.001301,-0.650612,0.198277,-0.733065,9.65568637847900,-2.98294687271118,0.75271254777908,3.15110492706299,3.62217402458191,0.59461170434952
361,4116083571,0.001308,-0.650587,0.198125,-0.733129,9.56401824951172,-2.94882416725159,0.76225656270981,4.17540168762207,3.74177885055542,0.65042817592621
362,4116100238,0.001426,-0.650545,0.197893,-0.733229,9.52140331268311,-2.91445970535278,0.71916705369949,5.03208923339844,3.87111687660217,0.87139540910721
363,4116116905,0.001575,-0.650486,0.197613,-0.733356,9.59751605987549,-2.87635183334351,0.68680804967880,5.66690111160278,3.96661400794983,0.84199213981628
364,4116133572,0.001710,-0.650445,0.197383,-0.733455,9.64726352691650,-2.81069588661194,0.69228875637054,5.04498624801636,3.85147237777710,0.96155214309692
365,4116150239,0.001737,-0.650405,0.197308,-0.733510,9.66640186309814,-2.83137941360474,0.69709575176239,3.59000468254089,3.83821678161621,1.09103715419769
366,4116166906,0.001689,-0.650376,0.197368,-0.733520,9.64466571807861,-2.84535694122314,0.71402311325073,2.64588165283203,3.64786314964294,1.31706917285919
367,4116183573,0.001575,-0.650382,0.197544,-0.733467,9.64395713806152,-2.86160874366760,0.71652531623840,1.92379581928253,3.20008945465088,1.47535574436188
368,4116200240,0.001469,-0.650411,0.197715,-0.733395,9.63309574127197,-2.92122673988342,0.69849121570587,1.71017265319824,3.06864452362061,1.44472265243530
369,4116216907,0.001345,-0.650419,0.197889,-0.733342,9.62331962585449,-2.95550560951233,0.71996623277664,2.34685301780701,3.05569744110107,1.44278895854950
370,4116233574,0.001414,-0.650474,0.197874,-0.733297,9.60929298400879,-2.93293309211731,0.71846663951874,3.38313031196594,2.83979535102844,1.44891059398651
371,4116250241,0.001528,-0.650546,0.197835,-0.733244,9.62963294982910,-2.90195965766907,0.71746230125427,3.81043362617493,2.62788224220276,1.55678462982178
372,4116266908,0.001686,-0.650614,0.197783,-0.733197,9.64212131500244,-2.87078738212585,0.69399887323380,3.87641191482544,2.67882561683655,1.70884716510773
373,4116283575,0.001797,-0.650663,0.197805,-0.733147,9.63400840759277,-2.88202667236328,0.68951970338821,3.43433070182800,2.77222943305969,1.83970916271210
374,4116300242,0.001798,-0.650705,0.197947,-0.733072,9.65118694305420,-2.89318895339966,0.67984133958817,2.79926991462708,2.69710063934326,1.86599409580231
375,4116316909,0.001806,-0.650769,0.198115,-0.732970,9.65613174438477,-2.91221261024475,0.69311714172363,2.21788716316223,2.59595632553101,1.95807206630707
376,4116333576,0.001751,-0.650831,0.198322,-0.732859,9.64506435394287,-2.93713140487671,0.68665158748627,1.67852842807770,2.67093086242676,1.81587648391724
377,4116350243,0.001707,-0.650906,0.198472,-0.732751,9.66439819335938,-2.97362613677979,0.68348455429077,1.70460188388824,2.69688916206360,1.57870268821716
378,4116366910,0.001683,-0.650952,0.198544,-0.732691,9.65708065032959,-2.99371933937073,0.70924305915833,2.60493946075439,2.92471408843994,1.39021885395050
379,4116383577,0.001744,-0.650988,0.198497,-0.732672,9.65480804443359,-3.00676107406616,0.74031376838684,3.45857906341553,3.09624910354614,1.28631472587585
380,4116400244,0.001814,-0.651032,0.198406,-0.732658,9.64300441741943,-2.94894409179688,0.74496203660965,3.89494276046753,3.00650215148926,1.13165247440338
381,4116416911,0.001876,-0.651067,0.198342,-0.732643,9.63238430023193,-2.92452788352966,0.75539773702621,3.78174686431885,3.03732657432556,1.23451280593872
382,4116433578,0.001917,-0.651095,0.198326,-0.732623,9.62918758392334,-2.91403007507324,0.73780995607376,3.45598554611206,3.08489584922791,1.35109555721283
383,4116450245,0.001893,-0.651066,0.198405,-0.732627,9.62652492523193,-2.90088033676147,0.71114790439606,3.12527465820312,3.42823433876038,1.56072270870209
384,4116466912,0.001918,-0.651009,0.198483,-0.732657,9.62324237823486,-2.88656330108643,0.71883392333984,2.70443868637085,3.84384489059448,1.79009068012238
385,4116483579,0.001951,-0.650945,0.198577,-0.732688,9.63983154296875,-2.90341234207153,0.70360940694809,2.52584123611450,3.91713619232178,1.89772796630859
386,4116500246,0.001932,-0.650896,0.198750,-0.732684,9.63243865966797,-2.92566585540771,0.70458191633224,2.56922316551208,3.52401304244995,2.02020168304443
387,4116516913,0.001976,-0.650903,0.198846,-0.732652,9.63163280487061,-2.94394922256470,0.67764312028885,2.81825566291809,3.15383315086365,1.89382898807526
388,4116533580,0.002024,-0.650932,0.198922,-0.732606,9.65785884857178,-2.94413733482361,0.65372681617737,2.91592955589294,2.97368621826172,1.79805028438568
389,4116550247,0.002076,-0.650961,0.198969,-0.732567,9.66102981567383,-2.97304439544678,0.65955132246017,3.08822607994080,3.00151419639587,1.67939949035645
390,4116566914,0.002122,-0.650995,0.198973,-0.732535,9.63422298431396,-2.94765400886536,0.69367158412933,3.29158425331116,3.00679707527161,1.45670318603516
391,4116583581,0.002148,-0.651016,0.198983,-0.732514,9.60613822937012,-2.93276667594910,0.70869433879852,3.18365263938904,3.15752744674683,1.39396476745605
392,4116600248,0.002202,-0.651043,0.199010,-0.732483,9.57351875305176,-2.92778587341309,0.72895950078964,3.20608282089233,3.03852462768555,1.60893869400024
393,4116616915,0.002251,-0.651059,0.199037,-0.732461,9.60779285430908,-2.92411446571350,0.71717435121536,3.26531243324280,3.12449383735657,1.60245883464813
394,4116633582,0.002427,-0.651090,0.198919,-0.732465,9.68300819396973,-2.95238184928894,0.66580355167389,3.48780965805054,3.34309768676758,1.49318218231201
395,4116650249,0.002473,-0.651093,0.198902,-0.732467,9.71050834655762,-2.93784642219543,0.70696967840195,3.27760601043701,3.37420439720154,1.39100015163422
396,4116666916,0.002440,-0.651115,0.198983,-0.732425,9.66328525543213,-2.90932416915894,0.72117406129837,2.39818096160889,3.18525934219360,1.40799415111542
397,4116683583,0.002363,-0.651126,0.199150,-0.732371,9.64727306365967,-2.97253632545471,0.69354867935181,1.99567782878876,3.16622948646545,1.60559630393982
398,4116700250,0.002455,-0.651148,0.199102,-0.732363,9.62072181701660,-3.02611351013184,0.68370103836060,3.10917735099792,3.33947372436523,1.41981458663940
399,4116716917,0.002494,-0.651118,0.199050,-0.732404,9.63374423980713,-3.01027011871338,0.70310068130493,4.20605421066284,3.48889851570129,1.29551613330841
400,4116733584,0.002643,-0.651085,0.198887,-0.732478,9.64889907836914,-2.94970750808716,0.71648275852203,4.73610830307007,3.67868781089783,1.31495594978333
401,4116750251,0.002775,-0.651037,0.198765,-0.732553,9.64618968963623,-2.91699576377869,0.69354176521301,4.45539331436157,3.78339290618896,1.43536138534546
402,4116766918,0.002850,-0.650981,0.198742,-0.732609,9.62002086639404,-2.89041709899902,0.68409132957458,3.67319416999817,3.82182478904724,1.59725916385651
403,4116783585,0.002867,-0.650920,0.198783,-0.732652,9.61472511291504,-2.89267802238464,0.67644977569580,3.08113145828247,3.86663413047791,1.60500717163086
404,4116800252,0.002851,-0.650842,0.198900,-0.732689,9.62733554840088,-2.90826392173767,0.65787422657013,2.53532433509827,3.97373366355896,1.79936921596527
405,4116816919,0.002819,-0.650765,0.199014,-0.732727,9.63435077667236,-2.93103456497192,0.66110807657242,2.48317694664001,3.98815345764160,1.70513975620270
406,4116833586,0.002816,-0.650718,0.199109,-0.732742,9.63139247894287,-2.95170164108276,0.67819762229919,2.67222404479980,3.70334005355835,1.72347831726074
407,4116850253,0.002820,-0.650724,0.199167,-0.732722,9.64138984680176,-2.96119499206543,0.69300174713135,2.84765863418579,3.26366043090820,1.52033162117004
408,4116866920,0.002856,-0.650762,0.199163,-0.732689,9.61568737030029,-2.95143079757690,0.70399951934814,3.28434228897095,3.00734114646912,1.36545157432556
409,4116883587,0.002935,-0.650805,0.199144,-0.732656,9.58656883239746,-2.94000387191772,0.68646991252899,3.55162978172302,2.90985226631165,1.50316441059113
410,4116900254,0.003031,-0.650831,0.199131,-0.732636,9.62327671051025,-2.95833635330200,0.67847710847855,3.60897040367126,3.03812718391418,1.64169740676880
411,4116916921,0.003093,-0.650849,0.199140,-0.732617,9.64551353454590,-2.93900227546692,0.68511754274368,3.35822176933289,3.12919282913208,1.57903575897217
412,4116933588,0.003050,-0.650855,0.199208,-0.732594,9.67810249328613,-2.96889376640320,0.68733698129654,2.57681703567505,3.32084012031555,1.32951676845551
413,4116950255,0.002953,-0.650842,0.199328,-0.732573,9.66268634796143,-2.95667457580566,0.72843885421753,2.08258128166199,3.49613332748413,1.31595480442047
414,4116966922,0.002885,-0.650843,0.199427,-0.732546,9.62396430969238,-2.98618745803833,0.72694706916809,2.30630826950073,3.35805583000183,1.35982954502106
415,4116983589,0.002846,-0.650856,0.199506,-0.732513,9.62233543395996,-2.99941349029541,0.74085396528244,2.53075218200684,3.23010706901550,1.38845157623291
416,4117000256,0.002893,-0.650841,0.199456,-0.732539,9.61686992645264,-2.99916386604309,0.73380583524704,3.64479613304138,3.51415872573853,1.28108966350555
417,4117016923,0.003033,-0.650806,0.199335,-0.732603,9.59956169128418,-2.98141765594482,0.70661145448685,4.46710491180420,3.66075348854065,1.46049404144287
418,4117033590,0.003149,-0.650762,0.199215,-0.732674,9.62269115447998,-2.94544291496277,0.69258749485016,4.37391948699951,3.77025389671326,1.35623097419739
419,4117050257,0.003229,-0.650730,0.199133,-0.732724,9.63219451904297,-2.90713834762573,0.68463826179504,3.77634930610657,3.72976016998291,1.31370115280151
420,4117066924,0.003241,-0.650717,0.199136,-0.732735,9.64089107513428,-2.90558671951294,0.69759970903397,2.95375943183899,3.56473803520203,1.32545757293701
421,4117083591,0.003134,-0.650706,0.199262,-0.732710,9.61137294769287,-2.93999075889587,0.67343878746033,2.27056574821472,3.39949655532837,1.31252264976501
422,4117100258,0.003058,-0.650693,0.199352,-0.732698,9.63176441192627,-2.95816349983215,0.69535678625107,2.45842218399048,3.46888160705566,1.29633557796478
423,4117116925,0.003037,-0.650670,0.199381,-0.732711,9.63918685913086,-2.96561026573181,0.68918281793594,2.93139290809631,3.58797478675842,1.30508899688721
424,4117133592,0.003042,-0.650668,0.199367,-0.732716,9.62104797363281,-2.96185064315796,0.69797378778458,3.24295830726624,3.41626644134521,1.21336960792542
425,4117150259,0.003053,-0.650680,0.199340,-0.732712,9.62261772155762,-2.93930673599243,0.71665126085281,3.32623839378357,3.29508018493652,1.17387485504150
426,4117166926,0.003066,-0.650717,0.199318,-0.732686,9.60608482360840,-2.96184802055359,0.71575427055359,3.28196692466736,3.06708908081055,1.16666507720947
427,4117183593,0.003095,-0.650762,0.199280,-0.732656,9.61619949340820,-2.95580625534058,0.69589549303055,3.22835969924927,3.05503845214844,1.15288531780243
428,4117200260,0.003099,-0.650775,0.199260,-0.732650,9.62976646423340,-2.96988868713379,0.68752753734589,3.25979280471802,3.28686499595642,1.16111338138580
429,4117216927,0.003096,-0.650760,0.199252,-0.732666,9.61482143402100,-2.93604016304016,0.69929993152618,3.19838595390320,3.54273581504822,1.22348022460938
430,4117233594,0.003076,-0.650724,0.199292,-0.732687,9.63002490997314,-2.94714999198914,0.70525032281876,2.88273501396179,3.69087934494019,1.37650334835052
431,4117250261,0.003041,-0.650706,0.199335,-0.732691,9.62236309051514,-2.96492862701416,0.70285338163376,2.78266000747681,3.54815983772278,1.29338383674622
432,4117266928,0.003030,-0.650712,0.199357,-0.732680,9.63343906402588,-2.96882987022400,0.71195262670517,2.82383227348328,3.37226414680481,1.27241981029510
433,4117283595,0.003061,-0.650741,0.199329,-0.732661,9.63238143920898,-2.97082448005676,0.69843626022339,3.03278732299805,3.23615217208862,1.21586060523987
434,4117300262,0.003110,-0.650761,0.199276,-0.732657,9.62276649475098,-2.95933747291565,0.67199754714966,3.39870309829712,3.27426385879517,1.22002255916595
435,4117316929,0.003165,-0.650784,0.199197,-0.732658,9.64346694946289,-2.93306732177734,0.69467008113861,3.47461915016174,3.30414104461670,1.12514030933380
436,4117333596,0.003186,-0.650800,0.199149,-0.732657,9.63155746459961,-2.94237756729126,0.70283722877502,3.25710391998291,3.35067963600159,1.09687697887421
437,4117350263,0.003276,-0.650856,0.199062,-0.732631,9.62905502319336,-2.92275929450989,0.71943688392639,3.03511786460876,3.16266918182373,1.17941367626190
438,4117366930,0.003261,-0.650889,0.199092,-0.732593,9.63054370880127,-2.94792795181274,0.68208581209183,2.93225741386414,3.05685043334961,1.27124798297882
439,4117383597,0.003247,-0.650931,0.199102,-0.732553,9.64335727691650,-2.97110104560852,0.67544299364090,2.73097991943359,3.09656262397766,1.14742338657379
440,4117400264,0.003341,-0.650983,0.199027,-0.732527,9.63222503662109,-2.95749783515930,0.69854933023453,3.07923555374146,3.15504956245422,1.26059293746948
441,4117416931,0.003347,-0.651006,0.199021,-0.732508,9.60198402404785,-2.94289255142212,0.68509697914124,3.17824172973633,3.17643618583679,1.22577285766602
442,4117433598,0.003352,-0.651028,0.199007,-0.732492,9.57979869842529,-2.94709444046021,0.69531118869781,3.25186538696289,3.19327640533447,1.18351173400879
443,4117450265,0.003374,-0.651087,0.198981,-0.732446,9.56520366668701,-2.92429018020630,0.68296968936920,3.24122953414917,2.87642812728882,1.15640711784363
444,4117466932,0.003349,-0.651117,0.198995,-0.732417,9.62825775146484,-2.92167782783508,0.65663558244705,3.14310121536255,3.06978511810303,1.16608250141144
445,4117483599,0.003414,-0.651167,0.198902,-0.732397,9.70469284057617,-2.97591900825500,0.64019125699997,3.22761011123657,3.16693401336670,1.04834079742432
446,4117500266,0.003364,-0.651227,0.198897,-0.732345,9.69844722747803,-2.96152758598328,0.69081187248230,2.87869453430176,2.92326068878174,0.89378714561462
447,4117516933,0.003243,-0.651305,0.198937,-0.732265,9.64679241180420,-2.93341135978699,0.72284281253815,2.29217028617859,2.80249071121216,0.71969133615494
448,4117533600,0.003164,-0.651354,0.198931,-0.732224,9.60359954833984,-2.97888326644897,0.70794183015823,2.76558232307434,3.06840133666992,0.76138865947723
449,4117550267,0.003158,-0.651400,0.198873,-0.732199,9.60274696350098,-2.99074769020081,0.71125167608261,3.37907099723816,3.05266261100769,0.89189827442169
450,4117566934,0.003237,-0.651420,0.198766,-0.732210,9.66601657867432,-2.96710991859436,0.72728717327118,4.05812168121338,3.22409510612488,1.14439475536346
451,4117583601,0.003344,-0.651396,0.198660,-0.732259,9.68283653259277,-2.94167804718018,0.70653408765793,4.22550678253174,3.58463859558105,1.34713864326477
452,4117600268,0.003387,-0.651368,0.198616,-0.732296,9.67120933532715,-2.90433168411255,0.68808299303055,3.61151933670044,3.62981915473938,1.30696499347687
453,4117616935,0.003338,-0.651344,0.198689,-0.732298,9.63714885711670,-2.88130855560303,0.68679463863373,2.56470227241516,3.58965897560120,1.36209642887115
454,4117633602,0.003234,-0.651319,0.198836,-0.732280,9.63925457000732,-2.92271614074707,0.68199485540390,1.92306566238403,3.58135986328125,1.42108225822449
455,4117650269,0.003158,-0.651285,0.198977,-0.732272,9.61792945861816,-2.97894001007080,0.66925156116486,2.08420777320862,3.63043332099915,1.54792904853821
456,4117666936,0.003130,-0.651272,0.199057,-0.732263,9.61679840087891,-2.96742916107178,0.70753496885300,2.60543942451477,3.45202898979187,1.48566496372223
457,4117683603,0.003157,-0.651263,0.199065,-0.732268,9.63769721984863,-2.95815992355347,0.68810361623764,3.23977565765381,3.42261219024658,1.43442642688751
458,4117700270,0.003170,-0.651269,0.199059,-0.732264,9.64779663085938,-2.95386290550232,0.67362743616104,3.40897321701050,3.25903654098511,1.29356920719147
459,4117716937,0.003202,-0.651295,0.199011,-0.732255,9.61734390258789,-2.96389412879944,0.67698359489441,3.50356769561768,3.18030953407288,1.16101729869843
460,4117733604,0.003246,-0.651318,0.198950,-0.732250,9.57342243194580,-2.93809580802917,0.68862557411194,3.80839109420776,3.13244628906250,1.18202626705170
461,4117750271,0.003334,-0.651325,0.198885,-0.732261,9.62859916687012,-2.93213462829590,0.66278302669525,3.81087541580200,3.30822634696960,1.38563442230225
462,4117766938,0.003489,-0.651362,0.198759,-0.732262,9.65308666229248,-2.91838860511780,0.67983698844910,3.47025156021118,3.31644773483276,1.34964835643768
463,4117783605,0.003452,-0.651357,0.198808,-0.732253,9.64953708648682,-2.92105364799500,0.69809699058533,2.67107820510864,3.44788575172424,1.28715991973877
464,4117800272,0.003372,-0.651343,0.198910,-0.732238,9.63856315612793,-2.96036815643311,0.66258198022842,2.31807112693787,3.47790408134460,1.32901096343994
465,4117816939,0.003448,-0.651400,0.198879,-0.732195,9.61493492126465,-2.96339344978333,0.66635882854462,2.38518261909485,3.19541454315186,1.33823788166046
466,4117833606,0.003405,-0.651414,0.198934,-0.732169,9.63128852844238,-2.97269010543823,0.67553943395615,2.64342308044434,3.26407003402710,1.25938928127289
467,4117850273,0.003459,-0.651441,0.198878,-0.732159,9.60335540771484,-2.98137331008911,0.66638672351837,3.34743356704712,3.23056268692017,1.21493232250214
468,4117866940,0.003492,-0.651463,0.198818,-0.732156,9.62414932250977,-2.94086003303528,0.67201989889145,3.64717793464661,3.20293855667114,1.12460887432098
469,4117883607,0.003530,-0.651472,0.198768,-0.732161,9.61556720733643,-2.92898464202881,0.67282330989838,3.57672357559204,3.31590986251831,1.20521843433380
470,4117900274,0.003574,-0.651476,0.198712,-0.732173,9.64265251159668,-2.92885422706604,0.69711303710938,3.20135712623596,3.50224232673645,1.18622660636902
471,4117916941,0.003538,-0.651462,0.198735,-0.732178,9.64092063903809,-2.92394399642944,0.67477345466614,2.86912226676941,3.53333640098572,1.19163119792938
472,4117933608,0.003431,-0.651455,0.198830,-0.732160,9.64820098876953,-2.92073702812195,0.70324110984802,2.45787167549133,3.40294194221497,1.16458392143250
473,4117950275,0.003375,-0.651449,0.198915,-0.732142,9.63679504394531,-2.94916248321533,0.68345671892166,2.22929739952087,3.48448634147644,1.34308528900146
474,4117966942,0.003269,-0.651432,0.199020,-0.732129,9.63808345794678,-2.98858070373535,0.69545233249664,2.74377369880676,3.36123204231262,1.25335764884949
475,4117983609,0.003280,-0.651431,0.198990,-0.732138,9.64735603332520,-2.98551797866821,0.69718241691589,3.28717255592346,3.44663739204407,1.16768312454224
476,4118000276,0.003288,-0.651423,0.198940,-0.732159,9.64533329010010,-2.96304011344910,0.68086111545563,3.47059774398804,3.50184535980225,1.08246958255768
477,4118016943,0.003302,-0.651430,0.198876,-0.732170,9.62601661682129,-2.94607734680176,0.70313030481339,3.39784502983093,3.43488097190857,1.01448059082031
478,4118033610,0.003302,-0.651442,0.198846,-0.732168,9.62210941314697,-2.93448448181152,0.68819475173950,3.18012428283691,3.35699319839478,1.08958995342255
479,4118050277,0.003251,-0.651440,0.198876,-0.732161,9.62605476379395,-2.93576860427856,0.70320856571198,2.98774743080139,3.36276841163635,1.14924204349518
480,4118066944,0.003217,-0.651420,0.198879,-0.732179,9.62271499633789,-2.94563150405884,0.67948532104492,3.00711011886597,3.60916209220886,1.11785340309143
481,4118083611,0.003194,-0.651394,0.198906,-0.732194,9.62117004394531,-2.94446372985840,0.70035278797150,3.17981672286987,3.53816366195679,1.30857849121094
482,4118100278,0.003119,-0.651367,0.198967,-0.732202,9.62341403961182,-2.95362186431885,0.69531887769699,3.01761174201965,3.50152516365051,1.21948480606079
483,4118116945,0.003097,-0.651358,0.198981,-0.732207,9.62730312347412,-2.95519375801086,0.65950894355774,3.14365839958191,3.43496417999268,1.22684216499329
484,4118133612,0.003113,-0.651378,0.198958,-0.732195,9.63567447662354,-2.93805027008057,0.67035573720932,3.22025966644287,3.24474525451660,1.19722735881805
485,4118150279,0.003007,-0.651362,0.199021,-0.732193,9.63549518585205,-2.94556975364685,0.68133115768433,3.24986839294434,3.31393837928772,1.08349430561066
486,4118166946,0.002971,-0.651359,0.199038,-0.732191,9.63951492309570,-2.93593597412109,0.66330188512802,3.25373530387878,3.33071422576904,1.17303609848022
487,4118183613,0.002947,-0.651365,0.199038,-0.732186,9.63701057434082,-2.91586995124817,0.69899809360504,3.06042361259460,3.35592985153198,1.12400066852570
488,4118200280,0.002918,-0.651370,0.199075,-0.732171,9.62494277954102,-2.92950153350830,0.68594282865524,2.80769014358521,3.34110021591187,1.26309061050415
489,4118216947,0.002889,-0.651377,0.199120,-0.732153,9.62450981140137,-2.93512654304504,0.69261372089386,2.76848292350769,3.31165146827698,1.29567599296570
490,4118233614,0.002857,-0.651367,0.199186,-0.732143,9.63769340515137,-2.94581675529480,0.68570971488953,2.65966773033142,3.43831992149353,1.40095722675323
491,4118250281,0.002850,-0.651366,0.199233,-0.732132,9.65340614318848,-2.96825790405273,0.68018466234207,2.86564517021179,3.35523200035095,1.42253589630127
492,4118266948,0.002849,-0.651361,0.199254,-0.732130,9.65468215942383,-2.96477103233337,0.69799625873566,3.03225588798523,3.40675210952759,1.35130703449249
493,4118283615,0.002846,-0.651366,0.199280,-0.732120,9.63722229003906,-2.95262742042542,0.70643013715744,2.99085283279419,3.32244777679443,1.34906589984894
494,4118300282,0.002812,-0.651380,0.199327,-0.732094,9.65171909332275,-2.97580075263977,0.67022746801376,2.74286389350891,3.24617910385132,1.27120947837830
495,4118316949,0.002786,-0.651394,0.199343,-0.732078,9.62074279785156,-2.96883273124695,0.66357165575027,2.83409714698792,3.31136417388916,1.16617214679718
496,4118333616,0.002779,-0.651369,0.199337,-0.732101,9.62476158142090,-2.97535395622253,0.66582995653152,3.00991463661194,3.68308043479919,1.21116042137146
497,4118350283,0.002789,-0.651346,0.199293,-0.732134,9.58144950866699,-2.95465779304504,0.69482654333115,3.44033694267273,3.64487934112549,1.13570559024811
498,4118366950,0.002687,-0.651305,0.199376,-0.732148,9.57427883148193,-2.91156649589539,0.72747349739075,3.32351064682007,3.46783828735352,1.23256635665894
499,4118383617,0.002679,-0.651285,0.199385,-0.732163,9.66253566741943,-2.95260000228882,0.63481819629669,3.08586287498474,3.56188750267029,1.27587735652924
500,4118400284,0.002685,-0.651261,0.199361,-0.732191,9.71875190734863,-2.97770786285400,0.65212947130203,3.05143308639526,3.71797800064087,1.18883919715881
501,4118416951,0.002615,-0.651258,0.199395,-0.732185,9.66760921478271,-2.92513513565063,0.69552654027939,2.74807667732239,3.44169402122498,1.05958473682404
502,4118433618,0.002453,-0.651253,0.199499,-0.732162,9.63983726501465,-2.95352029800415,0.67508172988892,2.52762794494629,3.32422113418579,0.95712095499039
503,4118450285,0.002393,-0.651254,0.199508,-0.732158,9.58628463745117,-2.98356842994690,0.68344289064407,3.20893907546997,3.32588648796082,1.01604330539703
504,4118466952,0.002485,-0.651276,0.199386,-0.732172,9.57813072204590,-2.96138143539429,0.70001429319382,3.86782550811768,3.31428360939026,1.11193704605103
505,4118483619,0.002610,-0.651242,0.199274,-0.732232,9.63743495941162,-2.93032622337341,0.70240414142609,4.30779981613159,3.67576789855957,1.41981434822083
506,4118500286,0.002713,-0.651176,0.199183,-0.732315,9.65427112579346,-2.91461610794067,0.70116972923279,4.31311511993408,3.90150570869446,1.46067976951599
507,4118516953,0.002734,-0.651137,0.199193,-0.732347,9.64444065093994,-2.88776421546936,0.68895113468170,3.25013685226440,3.69693779945374,1.45681202411652
508,4118533620,0.002665,-0.651098,0.199338,-0.732342,9.62802696228027,-2.88352012634277,0.68258064985275,2.29210638999939,3.59761142730713,1.61764705181122
509,4118550287,0.002594,-0.651075,0.199502,-0.732319,9.62164974212646,-2.94631195068359,0.69279837608337,1.77942943572998,3.56106162071228,1.64734470844269
510,4118566954,0.002580,-0.651068,0.199590,-0.732301,9.63744068145752,-2.97963738441467,0.68933254480362,2.13671374320984,3.52005553245544,1.55101537704468
511,4118583621,0.002512,-0.651033,0.199693,-0.732304,9.61828041076660,-3.00042748451233,0.70222091674805,2.97122716903687,3.46857428550720,1.46262621879578
512,4118600288,0.002582,-0.651041,0.199660,-0.732306,9.64234161376953,-2.98174691200256,0.69176304340363,3.51415228843689,3.29471540451050,1.43881905078888
513,4118616955,0.002638,-0.651059,0.199610,-0.732304,9.63026046752930,-2.96796321868896,0.71547931432724,3.61241531372070,3.22807121276855,1.27840673923492
514,4118633622,0.002533,-0.651040,0.199690,-0.732299,9.58634853363037,-2.94442152976990,0.67792469263077,3.65392065048218,3.15854549407959,1.20305418968201
515,4118650289,0.002558,-0.651032,0.199689,-0.732306,9.59652614593506,-2.93164730072021,0.69823491573334,3.54995846748352,3.33568286895752,1.40206491947174
516,4118666956,0.002569,-0.650992,0.199712,-0.732336,9.64087486267090,-2.95138072967529,0.68017107248306,3.26942276954651,3.66422963142395,1.47404932975769
517,4118683623,0.002548,-0.650951,0.199740,-0.732364,9.64002609252930,-2.92933726310730,0.70768374204636,2.94928312301636,3.75083303451538,1.32326078414917
518,4118700290,0.002549,-0.650941,0.199741,-0.732373,9.66073894500732,-2.94154620170593,0.70286113023758,2.51112055778503,3.67954635620117,1.23259842395782
519,4118716957,0.002551,-0.650941,0.199763,-0.732367,9.62748622894287,-2.96512222290039,0.66870892047882,2.44725561141968,3.55837249755859,1.32272958755493
520,4118733624,0.002514,-0.650944,0.199788,-0.732358,9.64143753051758,-2.96417117118835,0.67998522520065,2.66310620307922,3.44032359123230,1.16140794754028
521,4118750291,0.002532,-0.650942,0.199743,-0.732372,9.61218738555908,-2.97354149818420,0.68216454982758,3.21849203109741,3.52060675621033,1.12238693237305
522,4118766958,0.002587,-0.650933,0.199647,-0.732406,9.61600112915039,-2.96680188179016,0.66399061679840,3.92615842819214,3.50970864295959,1.10886347293854
523,4118783625,0.002634,-0.650910,0.199554,-0.732451,9.62448692321777,-2.91868138313293,0.66975688934326,3.73002862930298,3.68794703483582,1.09252274036407
524,4118800292,0.002659,-0.650896,0.199505,-0.732477,9.59694576263428,-2.92411994934082,0.69213569164276,3.19027328491211,3.65624523162842,1.15005505084991
525,4118816959,0.002628,-0.650869,0.199514,-0.732499,9.64041042327881,-2.92981648445129,0.66765022277832,2.94237399101257,3.68083930015564,1.16996240615845
526,4118833626,0.002614,-0.650867,0.199505,-0.732503,9.64931869506836,-2.93883538246155,0.66689789295197,2.58205485343933,3.61200594902039,1.10755729675293
527,4118850293,0.002479,-0.650829,0.199620,-0.732506,9.65488052368164,-2.94645500183105,0.67706495523453,2.51511621475220,3.60900926589966,1.17426550388336
528,4118866960,0.002323,-0.650788,0.199755,-0.732506,9.63957023620605,-2.96741771697998,0.69841408729553,2.48301076889038,3.57432889938354,1.17070531845093
529,4118883627,0.002299,-0.650782,0.199752,-0.732512,9.64581871032715,-2.97442388534546,0.69100540876389,3.06774926185608,3.48049783706665,1.12754809856415
530,4118900294,0.002287,-0.650769,0.199716,-0.732534,9.63986778259277,-2.97181177139282,0.69253319501877,3.30497336387634,3.56276512145996,1.04709839820862
531,4118916961,0.002282,-0.650756,0.199660,-0.732560,9.64370536804199,-2.96575427055359,0.71021956205368,3.44730305671692,3.57778692245483,0.99425941705704
532,4118933628,0.002308,-0.650747,0.199600,-0.732585,9.63282489776611,-2.94019079208374,0.70902788639069,3.59958362579346,3.51572751998901,1.12332201004028
533,4118950295,0.002327,-0.650729,0.199567,-0.732610,9.61923789978027,-2.92468380928040,0.70647758245468,3.27423810958862,3.61230015754700,1.21662878990173
534,4118966962,0.002292,-0.650687,0.199581,-0.732644,9.62634563446045,-2.91428494453430,0.69237476587296,3.08202743530273,3.76169848442078,1.19909703731537
535,4118983629,0.002208,-0.650617,0.199658,-0.732685,9.61752223968506,-2.93947768211365,0.68542933464050,3.09765124320984,3.82991886138916,1.32024526596069
536,4119000296,0.002254,-0.650596,0.199595,-0.732721,9.63114643096924,-2.94546580314636,0.70010340213776,3.09792017936707,3.78840041160583,1.18137300014496
537,4119016963,0.002214,-0.650554,0.199606,-0.732755,9.63550758361816,-2.95595288276672,0.66445195674896,3.25557899475098,3.71290659904480,1.17663466930389
538,4119033630,0.002222,-0.650557,0.199574,-0.732761,9.64194488525391,-2.94385719299316,0.68126237392426,3.32647514343262,3.40253186225891,1.14287710189819
539,4119050297,0.002214,-0.650555,0.199563,-0.732766,9.62711715698242,-2.93144416809082,0.67905813455582,3.21321535110474,3.41787362098694,1.16622304916382
540,4119066964,0.002198,-0.650545,0.199568,-0.732773,9.63145446777344,-2.93078970909119,0.71045482158661,3.06385564804077,3.48686242103577,1.21105813980103
541,4119083631,0.002191,-0.650534,0.199588,-0.732778,9.61726379394531,-2.93007230758667,0.68199759721756,3.02048015594482,3.47838425636292,1.31718432903290
542,4119100298,0.002147,-0.650515,0.199626,-0.732785,9.61056709289551,-2.93331956863403,0.70431703329086,2.97094583511353,3.51002883911133,1.24078190326691
543,4119116965,0.002133,-0.650499,0.199674,-0.732786,9.63492012023926,-2.95106840133667,0.68078911304474,2.84852957725525,3.49786305427551,1.41385960578918
544,4119133632,0.002085,-0.650477,0.199738,-0.732788,9.62485218048096,-2.94593667984009,0.70252162218094,2.76253461837769,3.51771235466003,1.33645796775818
545,4119150299,0.002123,-0.650477,0.199733,-0.732789,9.63242244720459,-2.95676159858704,0.69896006584167,2.88488674163818,3.49207401275635,1.38791382312775
546,4119166966,0.002113,-0.650452,0.199756,-0.732805,9.64227390289307,-2.94261503219604,0.70899426937103,3.17824792861938,3.54973483085632,1.35362482070923
547,4119183633,0.002139,-0.650447,0.199741,-0.732814,9.64434528350830,-2.93948960304260,0.70693701505661,3.20696616172791,3.46681976318359,1.31122946739197
548,4119200300,0.002138,-0.650450,0.199748,-0.732809,9.63664340972900,-2.96675086021423,0.70447885990143,3.10443878173828,3.35225486755371,1.26907098293304
549,4119216967,0.002121,-0.650442,0.199759,-0.732813,9.63469982147217,-2.94500017166138,0.70555043220520,2.99753117561340,3.47134065628052,1.22721970081329
550,4119233634,0.002116,-0.650444,0.199771,-0.732808,9.61828327178955,-2.95562362670898,0.70961105823517,2.84060239791870,3.43710923194885,1.25880014896393
551,4119250301,0.002087,-0.650425,0.199808,-0.732815,9.61283588409424,-2.94854068756104,0.70052319765091,2.84176802635193,3.55748939514160,1.29692482948303
552,4119266968,0.002078,-0.650415,0.199810,-0.732824,9.57252788543701,-2.95411872863770,0.70759469270706,3.11066222190857,3.49035787582397,1.23321294784546
553,4119283635,0.002090,-0.650411,0.199793,-0.732832,9.56284809112549,-2.91440939903259,0.69904381036758,3.29891538619995,3.42323970794678,1.24070489406586
554,4119300302,0.002116,-0.650391,0.199776,-0.732855,9.65553379058838,-2.94888710975647,0.66393285989761,3.38849639892578,3.56033158302307,1.33051562309265
555,4119316969,0.002189,-0.650376,0.199704,-0.732887,9.70916938781738,-2.96419596672058,0.67023688554764,3.40268611907959,3.66134905815125,1.28830623626709
556,4119333636,0.002129,-0.650372,0.199713,-0.732888,9.69865894317627,-2.91700029373169,0.68318581581116,2.83837413787842,3.49029445648193,0.99016153812408
557,4119350303,0.002013,-0.650383,0.199787,-0.732858,9.63718032836914,-2.95580959320068,0.72328990697861,2.29756140708923,3.33577251434326,0.99183887243271
558,4119366970,0.001960,-0.650389,0.199788,-0.732853,9.59495258331299,-3.00245785713196,0.70234972238541,2.80786919593811,3.43990135192871,0.96833950281143
559,4119383637,0.002009,-0.650393,0.199676,-0.732881,9.58877944946289,-2.99502182006836,0.71935659646988,3.70594072341919,3.50678896903992,0.97297537326813
560,4119400304,0.002198,-0.650389,0.199462,-0.732942,9.62237930297852,-2.95732402801514,0.72247719764709,4.50433969497681,3.62748837471008,1.20492398738861
561,4119416971,0.002304,-0.650333,0.199366,-0.733017,9.66714191436768,-2.90700316429138,0.70323383808136,4.48007774353027,3.77466559410095,1.45450067520142
562,4119433638,0.002422,-0.650310,0.199283,-0.733059,9.63285255432129,-2.86850070953369,0.69553560018539,3.56209349632263,3.72090530395508,1.46292734146118
563,4119450305,0.002349,-0.650281,0.199390,-0.733056,9.62529182434082,-2.87442445755005,0.69637686014175,2.50805330276489,3.54965782165527,1.41947507858276
564,4119466972,0.002289,-0.650276,0.199523,-0.733025,9.62609386444092,-2.93349075317383,0.70232218503952,1.77350008487701,3.49056267738342,1.52727234363556
565,4119483639,0.002209,-0.650266,0.199683,-0.732991,9.63150405883789,-2.99562978744507,0.68471652269363,1.85291254520416,3.42735075950623,1.56421887874603
566,4119500306,0.002173,-0.650275,0.199747,-0.732965,9.64348030090332,-2.98220038414001,0.70245832204819,2.60714244842529,3.28438091278076,1.34552490711212
567,4119516973,0.002154,-0.650279,0.199773,-0.732955,9.63229656219482,-2.98214149475098,0.70621520280838,3.25464463233948,3.24050617218018,1.29120016098022
568,4119533640,0.002125,-0.650311,0.199772,-0.732927,9.64802360534668,-2.96146130561829,0.72095298767090,3.38192677497864,3.01414108276367,1.08672130107880
569,4119550307,0.002128,-0.650351,0.199743,-0.732899,9.59012794494629,-2.94652128219604,0.72621738910675,3.47721242904663,2.99351668357849,1.09281086921692
570,4119566974,0.002171,-0.650353,0.199707,-0.732908,9.60308361053467,-2.95112061500549,0.71479505300522,3.53081941604614,3.35715246200562,1.30576741695404
571,4119583641,0.002198,-0.650300,0.199692,-0.732958,9.65892124176025,-2.97675871849060,0.70550817251205,3.58795571327209,3.78628754615784,1.40380668640137
572,4119600308,0.002184,-0.650241,0.199696,-0.733010,9.65149784088135,-2.93446373939514,0.73224067687988,3.20542955398560,3.91228938102722,1.28518128395081
573,4119616975,0.002091,-0.650185,0.199759,-0.733042,9.63702774047852,-2.93063807487488,0.68152737617493,2.57042717933655,3.90853738784790,1.14942133426666
574,4119633642,0.002001,-0.650165,0.199821,-0.733043,9.62077236175537,-2.96429038047791,0.68239545822144,2.43366718292236,3.61980438232422,1.10016787052155
575,4119650309,0.002051,-0.650223,0.199764,-0.733007,9.61110210418701,-2.95563697814941,0.70156174898148,2.53134155273438,3.21581506729126,1.09167730808258
576,4119666976,0.002027,-0.650237,0.199751,-0.732998,9.61524486541748,-2.96521735191345,0.70451897382736,3.17383646965027,3.28513669967651,1.05711305141449
577,4119683643,0.002070,-0.650216,0.199655,-0.733043,9.61121749877930,-2.96100044250488,0.70049476623535,3.88750886917114,3.63423776626587,1.06931757926941
578,4119700310,0.002155,-0.650227,0.199526,-0.733069,9.60714054107666,-2.92098736763000,0.70951271057129,3.80374264717102,3.46519398689270,1.06265830993652
579,4119716977,0.002104,-0.650216,0.199537,-0.733075,9.60458946228027,-2.90143656730652,0.72783768177032,3.25621914863586,3.41430091857910,1.08613204956055
580,4119733644,0.002056,-0.650233,0.199553,-0.733055,9.63624000549316,-2.92995452880859,0.69049417972565,2.54549264907837,3.37253952026367,1.03271698951721
581,4119750311,0.002001,-0.650256,0.199582,-0.733027,9.64825439453125,-2.94860315322876,0.71119266748428,2.41982388496399,3.31954669952393,1.04880154132843
582,4119766978,0.001919,-0.650252,0.199644,-0.733014,9.64990425109863,-2.94992661476135,0.71152180433273,2.50116968154907,3.44745659828186,1.13087737560272
583,4119783645,0.001896,-0.650256,0.199674,-0.733003,9.64786052703857,-2.97438621520996,0.71741175651550,2.71639347076416,3.40509319305420,1.25515043735504
584,4119800312,0.001905,-0.650254,0.199661,-0.733008,9.63831329345703,-2.95550346374512,0.72668647766113,3.14676308631897,3.44598364830017,1.22821855545044
585,4119816979,0.001929,-0.650238,0.199628,-0.733031,9.65109920501709,-2.95149636268616,0.73018521070480,3.35498213768005,3.56641483306885,1.23988521099091
586,4119833646,0.001948,-0.650227,0.199584,-0.733053,9.64659881591797,-2.96981954574585,0.70841634273529,3.49863100051880,3.51235961914062,1.17146098613739
587,4119850313,0.002022,-0.650228,0.199487,-0.733078,9.62240028381348,-2.93425250053406,0.70893555879593,3.41281557083130,3.58184695243835,1.14583551883698
588,4119866980,0.001965,-0.650181,0.199513,-0.733113,9.63694858551025,-2.94145584106445,0.72064781188965,3.25855684280396,3.71555161476135,1.17135214805603
589,4119883647,0.001982,-0.650165,0.199484,-0.733135,9.62990379333496,-2.93532824516296,0.71315521001816,3.26332044601440,3.58615541458130,1.22162961959839
590,4119900314,0.001939,-0.650144,0.199508,-0.733147,9.61670970916748,-2.94245672225952,0.69454312324524,3.05225253105164,3.54569435119629,1.18079674243927
591,4119916981,0.001923,-0.650122,0.199512,-0.733165,9.62501049041748,-2.93257260322571,0.70427286624908,3.12309741973877,3.58705878257751,1.22537565231323
592,4119933648,0.001850,-0.650105,0.199562,-0.733167,9.63228893280029,-2.93041825294495,0.67524409294128,3.20080637931824,3.38464212417603,1.17288243770599
593,4119950315,0.001847,-0.650113,0.199561,-0.733161,9.64199161529541,-2.93333792686462,0.68262588977814,3.14202570915222,3.32164740562439,1.22257113456726
594,4119966982,0.001836,-0.650132,0.199536,-0.733150,9.61168384552002,-2.94011807441711,0.68517023324966,3.17708921432495,3.26697707176208,1.05926454067230
595,4119983649,0.001840,-0.650167,0.199501,-0.733129,9.61651515960693,-2.93908882141113,0.67431604862213,3.17650008201599,3.16088938713074,1.05462872982025
596,4120000316,0.001814,-0.650200,0.199476,-0.733107,9.61958408355713,-2.91684198379517,0.69859176874161,3.02267026901245,3.19159865379333,0.95650631189346
597,4120016983,0.001865,-0.650257,0.199397,-0.733077,9.63039875030518,-2.92897677421570,0.70786243677139,2.91505789756775,3.15567684173584,1.01985931396484
598,4120033650,0.001809,-0.650269,0.199424,-0.733059,9.62960815429688,-2.92957139015198,0.73745161294937,2.87008213996887,3.28829908370972,1.08245670795441
599,4120050317,0.001721,-0.650257,0.199512,-0.733046,9.64875030517578,-2.93496751785278,0.70331782102585,2.76508331298828,3.35421371459961,1.24792766571045
600,4120066984,0.001845,-0.650297,0.199412,-0.733037,9.65197277069092,-2.95074748992920,0.72605770826340,2.74011087417603,3.44553589820862,1.27460324764252
601,4120083651,0.001782,-0.650265,0.199466,-0.733051,9.65398883819580,-2.97424030303955,0.70433545112610,2.99885010719299,3.57390666007996,1.24781227111816
602,4120100318,0.001772,-0.650251,0.199469,-0.733063,9.64914417266846,-2.95044207572937,0.73214817047119,3.29804491996765,3.46411752700806,1.24660849571228
603,4120116985,0.001791,-0.650255,0.199449,-0.733065,9.62933444976807,-2.93697881698608,0.73292613029480,3.18963885307312,3.39970159530640,1.24162685871124
604,4120133652,0.001711,-0.650232,0.199513,-0.733068,9.64284515380859,-2.95047807693481,0.71310216188431,2.84577608108521,3.50527787208557,1.19344949722290
605,4120150319,0.001674,-0.650225,0.199517,-0.733073,9.62806510925293,-2.95199823379517,0.70834249258041,2.97125315666199,3.49532747268677,1.09177994728088
606,4120166986,0.001649,-0.650204,0.199504,-0.733095,9.61178493499756,-2.94787144660950,0.69706928730011,3.14408063888550,3.62640619277954,1.09370708465576
607,4120183653,0.001619,-0.650169,0.199478,-0.733133,9.59524917602539,-2.92998480796814,0.71253669261932,3.27756762504578,3.74621653556824,1.03990137577057
608,4120200320,0.001636,-0.650165,0.199452,-0.733143,9.55952453613281,-2.90431809425354,0.72659111022949,3.32689785957336,3.44686770439148,1.22458159923553
609,4120216987,0.001572,-0.650129,0.199520,-0.733157,9.60658645629883,-2.90014123916626,0.71240442991257,3.12413454055786,3.53204250335693,1.32342076301575
610,4120233654,0.001572,-0.650090,0.199531,-0.733189,9.71070957183838,-2.97974276542664,0.68090450763702,3.16937994956970,3.71541714668274,1.35669207572937
611,4120250321,0.001509,-0.650069,0.199539,-0.733206,9.70744609832764,-2.94896483421326,0.69125199317932,3.07735919952393,3.58564305305481,1.01515293121338
612,4120266988,0.001506,-0.650123,0.199491,-0.733170,9.66532230377197,-2.92515015602112,0.72810822725296,2.52548265457153,3.21488666534424,0.88802427053452
613,4120283655,0.001423,-0.650143,0.199534,-0.733141,9.61481475830078,-2.97174906730652,0.71888297796249,2.49476671218872,3.28605794906616,0.99991977214813
614,4120300322,0.001411,-0.650152,0.199498,-0.733143,9.61015415191650,-2.99472403526306,0.72360283136368,3.18308258056641,3.39550137519836,1.01065170764923
615,4120316989,0.001514,-0.650157,0.199328,-0.733185,9.61730480194092,-2.95815706253052,0.72376054525375,4.16659736633301,3.51945424079895,0.98108166456223
616,4120333656,0.001687,-0.650137,0.199152,-0.733250,9.62437248229980,-2.93036770820618,0.73726564645767,4.67858266830444,3.61588597297668,1.34210550785065
617,4120350323,0.001741,-0.650085,0.199097,-0.733311,9.61797618865967,-2.86581349372864,0.72557944059372,4.31936407089233,3.66000342369080,1.38601851463318
618,4120366990,0.001778,-0.650093,0.199076,-0.733309,9.62467002868652,-2.83834195137024,0.71528369188309,3.10468244552612,3.39131426811218,1.31388056278229
619,4120383657,0.001691,-0.650111,0.199213,-0.733256,9.61074542999268,-2.86528587341309,0.68510693311691,2.00786948204041,3.17661547660828,1.40107893943787
620,4120400324,0.001511,-0.650114,0.199478,-0.733182,9.61859321594238,-2.91137766838074,0.67835348844528,1.61726272106171,3.06491827964783,1.57731974124908
621,4120416991,0.001426,-0.650151,0.199648,-0.733103,9.63630390167236,-2.97212553024292,0.67906194925308,1.91147601604462,2.92964506149292,1.53911852836609
622,4120433658,0.001370,-0.650218,0.199742,-0.733018,9.64074707031250,-2.96274757385254,0.68222004175186,2.31031727790833,2.75085544586182,1.30189371109009
623,4120450325,0.001359,-0.650308,0.199765,-0.732932,9.64845180511475,-2.95499324798584,0.73073124885559,2.50507616996765,2.67636108398438,1.15157282352448
624,4120466992,0.001367,-0.650404,0.199746,-0.732852,9.58366203308105,-2.95905804634094,0.75769233703613,2.81634712219238,2.64899373054504,1.04791820049286
625,4120483659,0.001422,-0.650471,0.199705,-0.732803,9.56727409362793,-2.95966672897339,0.72376519441605,3.28023171424866,2.84306120872498,1.23501896858215
626,4120500326,0.001487,-0.650503,0.199659,-0.732788,9.64933586120605,-2.95559692382812,0.73278158903122,3.66625308990479,3.06525111198425,1.33010590076447
627,4120516993,0.001549,-0.650486,0.199595,-0.732819,9.68697452545166,-2.91729998588562,0.72785192728043,3.46951556205750,3.62671351432800,1.27979624271393
628,4120533660,0.001583,-0.650466,0.199570,-0.732844,9.68455696105957,-2.91909670829773,0.74113130569458,2.73379039764404,3.78548645973206,1.28686523437500
629,4120550327,0.001585,-0.650423,0.199565,-0.732883,9.65297222137451,-2.93780136108398,0.71886616945267,2.43948125839233,4.03234767913818,1.23921930789948
630,4120566994,0.001516,-0.650378,0.199645,-0.732902,9.63471221923828,-2.98937463760376,0.72497969865799,2.46592688560486,3.79788994789124,1.32707107067108
631,4120583661,0.001489,-0.650342,0.199664,-0.732928,9.59764862060547,-2.98506379127502,0.69997465610504,2.79748964309692,3.77611231803894,1.23816287517548
632,4120600328,0.001576,-0.650315,0.199535,-0.732988,9.58832263946533,-2.99230623245239,0.69306081533432,3.92718243598938,3.77993512153625,1.11983859539032
633,4120616995,0.001687,-0.650289,0.199350,-0.733061,9.61438083648682,-2.92553138732910,0.67370659112930,4.61636924743652,3.71436667442322,1.01541554927826
634,4120633662,0.001666,-0.650238,0.199276,-0.733126,9.60876464843750,-2.87545084953308,0.70828568935394,4.12602043151855,3.76398491859436,0.92553418874741
635,4120650329,0.001634,-0.650215,0.199229,-0.733160,9.62182235717773,-2.88305115699768,0.67956006526947,3.41774654388428,3.66037559509277,0.92344027757645
636,4120666996,0.001568,-0.650233,0.199252,-0.733138,9.62732601165771,-2.89200735092163,0.66829138994217,2.81355524063110,3.25597596168518,1.00067532062531
637,4120683663,0.001461,-0.650259,0.199320,-0.733096,9.64075660705566,-2.89237284660339,0.68903064727783,2.25573658943176,3.22105360031128,0.98176050186157
638,4120700330,0.001367,-0.650286,0.199394,-0.733052,9.64527606964111,-2.93677330017090,0.70526611804962,2.20489525794983,3.21233248710632,1.06497621536255
639,4120716997,0.001292,-0.650300,0.199468,-0.733019,9.64186954498291,-2.95111918449402,0.72940063476562,2.44735121726990,3.25687885284424,1.18949842453003
640,4120733664,0.001260,-0.650336,0.199478,-0.732985,9.65161514282227,-2.95014095306396,0.70909667015076,2.74439430236816,3.15104722976685,1.07494580745697
641,4120750331,0.001224,-0.650329,0.199505,-0.732984,9.64727115631104,-2.96361589431763,0.74340862035751,3.33753943443298,3.31976413726807,1.23802804946899
642,4120766998,0.001251,-0.650312,0.199481,-0.733006,9.65020179748535,-2.95784068107605,0.74636447429657,3.53565406799316,3.49446940422058,1.30994892120361
643,4120783665,0.001199,-0.650266,0.199499,-0.733042,9.63636875152588,-2.93277740478516,0.73495405912399,3.52487111091614,3.64108896255493,1.18164205551147
644,4120800332,0.001239,-0.650226,0.199449,-0.733090,9.63666915893555,-2.91563653945923,0.71596121788025,3.36281991004944,3.84130358695984,1.26049077510834
645,4120816999,0.001222,-0.650181,0.199495,-0.733118,9.61128330230713,-2.92471623420715,0.69932913780212,3.18205809593201,3.66531848907471,1.45600533485413
646,4120833666,0.001236,-0.650156,0.199510,-0.733136,9.62299251556396,-2.93000602722168,0.71113973855972,3.16584491729736,3.57549428939819,1.41900753974915
647,4120850333,0.001251,-0.650142,0.199509,-0.733148,9.61732482910156,-2.91256809234619,0.69884681701660,3.23686861991882,3.49296998977661,1.34794509410858
648,4120867000,0.001255,-0.650140,0.199507,-0.733151,9.62637233734131,-2.92224216461182,0.71159565448761,3.18452906608582,3.40173768997192,1.26173269748688
649,4120883667,0.001260,-0.650154,0.199500,-0.733140,9.61245822906494,-2.90169143676758,0.69138395786285,3.19372463226318,3.26700258255005,1.22806489467621
650,4120900334,0.001266,-0.650198,0.199498,-0.733102,9.60587978363037,-2.90920615196228,0.69046258926392,3.13122940063477,2.98738837242126,1.21288931369781
651,4120917001,0.001278,-0.650250,0.199502,-0.733054,9.60920524597168,-2.90712976455688,0.70183247327805,3.11622023582458,2.89216041564941,1.25859534740448
652,4120933668,0.001272,-0.650306,0.199526,-0.732998,9.62669658660889,-2.90041637420654,0.70666116476059,2.92504715919495,2.86910939216614,1.25347268581390
653,4120950335,0.001254,-0.650339,0.199581,-0.732954,9.63920974731445,-2.91778349876404,0.71145045757294,2.73788237571716,3.05048537254333,1.36159682273865
654,4120967002,0.001220,-0.650358,0.199654,-0.732917,9.64069461822510,-2.93436002731323,0.70763599872589,2.57569622993469,3.17308664321899,1.37899410724640
655,4120983669,0.001176,-0.650376,0.199729,-0.732881,9.64126300811768,-2.93951821327209,0.72904407978058,2.52298545837402,3.19330835342407,1.34642767906189
656,4121000336,0.001137,-0.650378,0.199804,-0.732859,9.62604331970215,-2.95120763778687,0.73460894823074,2.78994035720825,3.25937008857727,1.40119409561157
657,4121017003,0.001132,-0.650379,0.199810,-0.732856,9.64786815643311,-2.98012876510620,0.72595155239105,3.01754784584045,3.39784550666809,1.24552011489868
658,4121033670,0.001176,-0.650357,0.199803,-0.732877,9.64401340484619,-2.95808267593384,0.72364568710327,3.39025139808655,3.53930449485779,1.47561180591583
659,4121050337,0.001249,-0.650353,0.199736,-0.732899,9.61157894134521,-2.94460415840149,0.70823317766190,3.45731139183044,3.53521227836609,1.29258990287781
660,4121067004,0.001349,-0.650347,0.199654,-0.732926,9.61455154418945,-2.93010163307190,0.68914794921875,3.29461336135864,3.64179372787476,1.34625482559204
661,4121083671,0.001353,-0.650320,0.199631,-0.732957,9.63091850280762,-2.94436192512512,0.69874662160873,3.11511921882629,3.72321605682373,1.19169497489929
662,4121100338,0.001236,-0.650277,0.199694,-0.732978,9.63743686676025,-2.92306900024414,0.69922512769699,2.87436628341675,3.68517518043518,1.03876805305481
663,4121117005,0.001223,-0.650273,0.199662,-0.732991,9.60851383209229,-2.93604588508606,0.72719776630402,2.96703934669495,3.58299899101257,1.02796590328217
664,4121133672,0.001195,-0.650268,0.199641,-0.733001,9.58367824554443,-2.91825795173645,0.68210428953171,3.22299957275391,3.47107124328613,1.02909266948700
665,4121150339,0.001204,-0.650284,0.199600,-0.732997,9.55497455596924,-2.89316964149475,0.70963346958160,3.50746703147888,3.24286222457886,1.10333108901978
666,4121167006,0.001277,-0.650289,0.199539,-0.733009,9.65092849731445,-2.90295791625977,0.68519479036331,3.51530480384827,3.40643811225891,1.31632637977600
667,4121183673,0.001334,-0.650296,0.199486,-0.733017,9.72313308715820,-2.94255065917969,0.67511183023453,3.32573223114014,3.42372632026672,1.27068448066711
668,4121200340,0.001195,-0.650294,0.199583,-0.732993,9.68435096740723,-2.90384006500244,0.69512856006622,2.81925392150879,3.22303819656372,1.04361510276794
669,4121217007,0.000964,-0.650310,0.199781,-0.732925,9.64769458770752,-2.90240406990051,0.72971522808075,1.70059370994568,3.09816360473633,0.99935638904572
670,4121233674,0.000831,-0.650342,0.199906,-0.732863,9.60735511779785,-2.98819589614868,0.70989328622818,1.83883190155029,3.13313150405884,1.10013592243195
671,4121250341,0.000784,-0.650346,0.199901,-0.732861,9.58748435974121,-3.01306462287903,0.71791142225266,3.07577824592590,3.38106870651245,0.99292767047882
672,4121267008,0.000934,-0.650339,0.199737,-0.732912,9.63538074493408,-2.96680283546448,0.76260864734650,4.48072433471680,3.52382063865662,1.26776456832886
673,4121283675,0.001208,-0.650334,0.199482,-0.732985,9.66184711456299,-2.91811490058899,0.72022521495819,4.91902256011963,3.63104891777039,1.43638598918915
674,4121300342,0.001323,-0.650298,0.199401,-0.733039,9.65628814697266,-2.86516785621643,0.73857486248016,4.13660478591919,3.65652036666870,1.51736032962799
675,4121317009,0.001315,-0.650277,0.199440,-0.733047,9.64429092407227,-2.86643767356873,0.71598398685455,2.92841577529907,3.54399132728577,1.41537082195282
676,4121333676,0.001237,-0.650268,0.199580,-0.733017,9.61711692810059,-2.88472843170166,0.69871675968170,1.99544680118561,3.42318844795227,1.49496197700500
677,4121350343,0.001148,-0.650256,0.199776,-0.732974,9.61044502258301,-2.92434024810791,0.67931622266769,1.76090502738953,3.36487460136414,1.69775688648224
678,4121367010,0.001076,-0.650255,0.199948,-0.732928,9.63356781005859,-2.96277260780334,0.70706981420517,2.12627649307251,3.21121788024902,1.67621016502380
679,4121383677,0.001059,-0.650271,0.200022,-0.732894,9.63778591156006,-2.97139453887939,0.70584744215012,2.69051122665405,3.16590881347656,1.47845458984375
680,4121400344,0.001134,-0.650330,0.199987,-0.732852,9.63690948486328,-2.97002267837524,0.69473510980606,3.08831524848938,2.96600198745728,1.35728085041046
681,4121417011,0.001156,-0.650385,0.199952,-0.732812,9.57339668273926,-2.94208931922913,0.73850160837173,3.37841773033142,2.89442729949951,1.13361823558807
682,4121433678,0.001211,-0.650420,0.199902,-0.732794,9.60229206085205,-2.96189332008362,0.69022709131241,3.61947178840637,3.05846405029297,1.25833916664124
683,4121450345,0.001290,-0.650417,0.199849,-0.732811,9.66223812103271,-2.95205116271973,0.70388376712799,3.84959626197815,3.35218453407288,1.41919362545013
684,4121467012,0.001303,-0.650392,0.199830,-0.732839,9.65133857727051,-2.91069436073303,0.70965838432312,3.56743979454041,3.55209755897522,1.28112173080444
685,4121483679,0.001325,-0.650370,0.199807,-0.732864,9.64801025390625,-2.91466236114502,0.70841568708420,3.04418420791626,3.69741058349609,1.26415312290192
686,4121500346,0.001385,-0.650394,0.199734,-0.732863,9.62246990203857,-2.92781138420105,0.68471431732178,2.67032909393311,3.53135132789612,1.11805856227875
687,4121517013,0.001274,-0.650410,0.199829,-0.732823,9.61650562286377,-2.94758439064026,0.71574503183365,2.18823361396790,3.26599049568176,1.10520076751709
688,4121533680,0.001246,-0.650425,0.199828,-0.732810,9.62408733367920,-2.98238992691040,0.69862109422684,2.72552394866943,3.37871193885803,1.06160783767700
689,4121550347,0.001275,-0.650410,0.199769,-0.732839,9.62531280517578,-2.97268939018250,0.68841677904129,3.74081230163574,3.51287150382996,1.16651773452759
690,4121567014,0.001325,-0.650391,0.199682,-0.732880,9.61356258392334,-2.92771720886230,0.69461655616760,4.02467727661133,3.54697489738464,1.15136778354645
691,4121583681,0.001346,-0.650374,0.199609,-0.732915,9.61788463592529,-2.89326071739197,0.69257336854935,3.78500652313232,3.56431460380554,1.06398999691010
692,4121600348,0.001348,-0.650384,0.199556,-0.732920,9.62662315368652,-2.90012454986572,0.69434773921967,2.97097086906433,3.50052618980408,0.97595912218094
693,4121617015,0.001228,-0.650389,0.199632,-0.732895,9.63558578491211,-2.90848731994629,0.69103312492371,2.18601822853088,3.41828346252441,0.97946804761887
694,4121633682,0.001090,-0.650399,0.199716,-0.732864,9.65741920471191,-2.93654060363770,0.68102920055389,2.07360410690308,3.38774037361145,0.91820240020752
695,4121650349,0.000971,-0.650404,0.199780,-0.732842,9.66428089141846,-2.95251178741455,0.69874167442322,2.33605742454529,3.40856337547302,0.94034457206726
696,4121667016,0.000951,-0.650420,0.199745,-0.732838,9.66132545471191,-2.96238112449646,0.72106850147247,2.94151663780212,3.40728330612183,0.95103800296783
697,4121683683,0.000925,-0.650422,0.199707,-0.732846,9.64743804931641,-2.93948435783386,0.73047208786011,3.32149314880371,3.42170286178589,0.95190876722336
698,4121700350,0.000921,-0.650425,0.199670,-0.732854,9.63714027404785,-2.93712496757507,0.73554223775864,3.52562665939331,3.35044860839844,1.07438874244690
699,4121717017,0.000953,-0.650411,0.199622,-0.732879,9.64369201660156,-2.94233107566833,0.71091908216476,3.37367343902588,3.59043335914612,1.20330405235291
700,4121733684,0.000953,-0.650367,0.199590,-0.732927,9.63077259063721,-2.93115544319153,0.72654455900192,3.35856795310974,3.82972645759583,1.17371475696564
701,4121750351,0.000975,-0.650318,0.199556,-0.732980,9.63168907165527,-2.90780186653137,0.71175462007523,3.24427127838135,3.92153525352478,1.25795507431030
702,4121767018,0.000932,-0.650243,0.199594,-0.733035,9.62498760223389,-2.91469001770020,0.71455311775208,3.16984081268311,3.97049403190613,1.32503485679626
703,4121783685,0.000947,-0.650192,0.199593,-0.733081,9.63025951385498,-2.93118691444397,0.68820738792419,3.11984491348267,3.88147711753845,1.39035999774933
704,4121800352,0.000961,-0.650163,0.199587,-0.733108,9.63903999328613,-2.94292092323303,0.67252111434937,3.27694010734558,3.63522386550903,1.33145081996918
705,4121817019,0.001105,-0.650180,0.199456,-0.733129,9.64435195922852,-2.93921232223511,0.66941547393799,3.45962285995483,3.52875161170959,1.29940927028656
706,4121833686,0.001139,-0.650168,0.199409,-0.733152,9.64052295684814,-2.92595171928406,0.68477398157120,3.52777791023254,3.51944136619568,1.22417187690735
707,4121850353,0.001156,-0.650161,0.199391,-0.733163,9.63180828094482,-2.90692973136902,0.71007281541824,3.29092454910278,3.46215844154358,1.26011931896210
708,4121867020,0.001142,-0.650171,0.199409,-0.733149,9.61437606811523,-2.91893148422241,0.71081978082657,2.92719888687134,3.30802106857300,1.24421381950378
709,4121883687,0.001094,-0.650168,0.199465,-0.733137,9.59659194946289,-2.91272759437561,0.69362068176270,2.87720298767090,3.33332681655884,1.28308129310608
710,4121900354,0.001133,-0.650180,0.199453,-0.733130,9.62410449981689,-2.93315625190735,0.71980124711990,2.72152853012085,3.44991564750671,1.33590722084045
711,4121917021,0.001024,-0.650145,0.199563,-0.733131,9.62940120697021,-2.93870234489441,0.72559237480164,2.69784998893738,3.52857255935669,1.28557837009430
712,4121933688,0.001074,-0.650151,0.199527,-0.733135,9.63561630249023,-2.94722676277161,0.71304380893707,2.92052674293518,3.51538157463074,1.28651320934296
713,4121950355,0.001029,-0.650133,0.199561,-0.733143,9.62791538238525,-2.94242310523987,0.70944857597351,2.92426633834839,3.53283715248108,1.21269750595093
714,4121967022,0.000982,-0.650112,0.199595,-0.733152,9.63815879821777,-2.93232607841492,0.69875770807266,3.20031976699829,3.46086454391479,1.22136723995209
715,4121983689,0.000966,-0.650100,0.199592,-0.733163,9.63282680511475,-2.94361567497253,0.72812378406525,3.13005113601685,3.51461315155029,1.17829954624176
716,4122000356,0.000948,-0.650081,0.199603,-0.733177,9.63965511322021,-2.93092918395996,0.70514214038849,3.03007221221924,3.56773400306702,1.23778498172760
717,4122017023,0.000913,-0.650076,0.199617,-0.733177,9.61926746368408,-2.94740724563599,0.69725549221039,2.88526439666748,3.47766089439392,1.14348554611206
718,4122033690,0.000903,-0.650070,0.199622,-0.733181,9.63220310211182,-2.96725654602051,0.71105188131332,3.00134754180908,3.47584843635559,1.22239172458649
719,4122050357,0.000907,-0.650053,0.199586,-0.733207,9.63422298431396,-2.93630790710449,0.72383266687393,3.24971389770508,3.62951183319092,1.13012206554413
720,4122067024,0.000927,-0.650045,0.199521,-0.733231,9.62194156646729,-2.92974877357483,0.73450881242752,3.38405203819275,3.57878541946411,1.05511522293091
721,4122083691,0.000899,-0.650032,0.199511,-0.733245,9.65004634857178,-2.92054915428162,0.71850538253784,3.45645976066589,3.43739104270935,1.10698080062866
722,4122100358,0.000860,-0.650020,0.199534,-0.733250,9.65828323364258,-2.91669011116028,0.72675365209579,3.08986544609070,3.45142722129822,1.19520390033722
723,4122117025,0.000841,-0.650010,0.199550,-0.733255,9.64156913757324,-2.94310641288757,0.72712194919586,3.01122117042542,3.47574615478516,1.24101221561432
724,4122133692,0.000821,-0.649993,0.199559,-0.733267,9.61805343627930,-2.92054700851440,0.71229612827301,3.02717757225037,3.55590057373047,1.21548902988434
725,4122150359,0.000784,-0.649986,0.199567,-0.733271,9.58991336822510,-2.92382621765137,0.72376137971878,3.04625988006592,3.46196675300598,1.11808431148529
726,4122167026,0.000784,-0.649989,0.199565,-0.733269,9.55633735656738,-2.90188908576965,0.72862505912781,3.15905785560608,3.36577796936035,1.23494219779968
727,4122183693,0.000804,-0.649972,0.199556,-0.733286,9.64389324188232,-2.92964172363281,0.68780148029327,3.30898785591125,3.52010083198547,1.33730959892273
728,4122200360,0.000823,-0.649948,0.199491,-0.733325,9.72046661376953,-2.96780776977539,0.67189079523087,3.61566233634949,3.65546441078186,1.09060811996460
729,4122217027,0.000782,-0.649960,0.199455,-0.733325,9.67247200012207,-2.89024734497070,0.70907109975815,3.14815950393677,3.38154268264771,0.87249666452408
730,4122233694,0.000660,-0.649995,0.199533,-0.733273,9.63026428222656,-2.88426232337952,0.74486792087555,2.14086341857910,3.14704561233521,0.93213599920273
731,4122250361,0.000548,-0.650015,0.199604,-0.733236,9.60685443878174,-2.94256758689880,0.71014404296875,2.23784565925598,3.27937293052673,0.98231101036072
732,4122267028,0.000513,-0.650016,0.199570,-0.733244,9.60051155090332,-2.98233842849731,0.72649449110031,3.17804980278015,3.46351599693298,0.91827946901321
733,4122283695,0.000606,-0.650008,0.199444,-0.733285,9.62355232238770,-2.95227456092834,0.73471528291702,4.25800895690918,3.48442864418030,1.17155051231384
734,4122300362,0.000585,-0.649940,0.199444,-0.733346,9.64640998840332,-2.88751029968262,0.71147251129150,4.53362798690796,3.58773779869080,1.33800768852234
735,4122317029,0.000607,-0.649915,0.199419,-0.733374,9.65100479125977,-2.85887169837952,0.72208732366562,3.68728113174438,3.51985120773315,1.30392980575562
736,4122333696,0.000564,-0.649923,0.199472,-0.733353,9.63581943511963,-2.86122441291809,0.70159882307053,2.66205596923828,3.30885338783264,1.26253950595856
737,4122350363,0.000408,-0.649894,0.199666,-0.733326,9.62434482574463,-2.88830304145813,0.69432479143143,2.10086870193481,3.41604232788086,1.41818797588348
738,4122367030,0.000321,-0.649882,0.199808,-0.733298,9.62397003173828,-2.93922257423401,0.68073040246964,2.08813929557800,3.41705393791199,1.46778690814972
739,4122383697,0.000296,-0.649892,0.199881,-0.733269,9.61934947967529,-2.95302248001099,0.72494757175446,2.55145359039307,3.26954436302185,1.43772411346436
740,4122400364,0.000308,-0.649915,0.199921,-0.733238,9.63183975219727,-2.94485116004944,0.70694947242737,2.88560390472412,3.14064192771912,1.45559537410736
741,4122417031,0.000263,-0.649937,0.199959,-0.733208,9.66622638702393,-2.93722772598267,0.70785540342331,3.00132179260254,3.11440205574036,1.18273055553436
742,4122433698,0.000314,-0.650002,0.199898,-0.733167,9.59296321868896,-2.93982744216919,0.72930490970612,3.12670874595642,2.97300672531128,1.11346089839935
743,4122450365,0.000370,-0.650019,0.199862,-0.733162,9.60035705566406,-2.93682670593262,0.73576694726944,3.34947538375854,3.27875852584839,1.33373010158539
744,4122467032,0.000466,-0.650005,0.199800,-0.733191,9.64468669891357,-2.94416832923889,0.71395671367645,3.81984019279480,3.48857808113098,1.46879887580872
745,4122483699,0.000499,-0.649970,0.199770,-0.733231,9.65818023681641,-2.91298890113831,0.69438296556473,3.55226397514343,3.67715144157410,1.33325636386871
746,4122500366,0.000489,-0.649942,0.199788,-0.733250,9.67424011230469,-2.89657688140869,0.71370202302933,3.04878187179565,3.62864041328430,1.32252454757690
747,4122517033,0.000418,-0.649918,0.199859,-0.733252,9.65855789184570,-2.92801666259766,0.70714253187180,2.62621760368347,3.57183861732483,1.25267243385315
748,4122533700,0.000370,-0.649924,0.199924,-0.733229,9.61830139160156,-2.92346334457397,0.69503408670425,2.62430286407471,3.30674028396606,1.29755198955536
749,4122550367,0.000309,-0.649929,0.199971,-0.733212,9.62270832061768,-2.93731927871704,0.71739983558655,2.81434917449951,3.30529356002808,1.16212511062622
750,4122567034,0.000379,-0.649920,0.199913,-0.733236,9.63463973999023,-2.94791722297668,0.72046285867691,3.53580808639526,3.52134943008423,1.34183669090271
751,4122583701,0.000425,-0.649898,0.199864,-0.733269,9.62070178985596,-2.92381858825684,0.70097237825394,3.64274096488953,3.58249950408936,1.29468357563019
752,4122600368,0.000445,-0.649880,0.199821,-0.733297,9.61785697937012,-2.91140198707581,0.71002250909805,3.49851632118225,3.57676291465759,1.18661093711853
753,4122617035,0.000406,-0.649867,0.199850,-0.733300,9.62269401550293,-2.91245007514954,0.71558904647827,2.94636988639832,3.48477482795715,1.20954716205597
754,4122633702,0.000312,-0.649855,0.199923,-0.733291,9.64192008972168,-2.91157579421997,0.69222426414490,2.52882504463196,3.47573971748352,1.13596808910370
755,4122650369,0.000265,-0.649867,0.199943,-0.733275,9.63993644714355,-2.93896698951721,0.72989630699158,2.55391907691956,3.40615630149841,1.06696105003357
756,4122667036,0.000221,-0.649877,0.199963,-0.733261,9.64780330657959,-2.95215415954590,0.71664345264435,2.88448977470398,3.32237744331360,1.11133515834808
757,4122683703,0.000220,-0.649879,0.199937,-0.733266,9.65817546844482,-2.94134473800659,0.73153364658356,3.31784391403198,3.39206933975220,1.13031399250031
758,4122700370,0.000269,-0.649889,0.199863,-0.733277,9.64593696594238,-2.94437170028687,0.72142034769058,3.33607959747314,3.45836758613586,1.12592136859894
759,4122717037,0.000248,-0.649872,0.199841,-0.733298,9.64183712005615,-2.93986821174622,0.72493910789490,3.31460356712341,3.55459451675415,1.07775676250458
760,4122733704,0.000227,-0.649856,0.199827,-0.733316,9.62759208679199,-2.92154645919800,0.71345937252045,3.11072635650635,3.59475541114807,1.09978377819061
761,4122750371,0.000180,-0.649844,0.199827,-0.733328,9.61429882049561,-2.93677806854248,0.74071943759918,2.95381045341492,3.56559562683105,1.03547036647797
762,4122767038,0.000112,-0.649813,0.199837,-0.733352,9.60344505310059,-2.94525980949402,0.72186189889908,3.09916257858276,3.66034960746765,1.01727247238159
763,4122783705,0.000099,-0.649803,0.199806,-0.733369,9.63044929504395,-2.93349862098694,0.71718901395798,3.30613827705383,3.51967191696167,1.05763804912567
764,4122800372,0.000076,-0.649785,0.199780,-0.733392,9.64302444458008,-2.91333389282227,0.71798151731491,3.27600526809692,3.59474277496338,1.05278444290161
765,4122817039,0.000162,-0.649810,0.199659,-0.733403,9.64294052124023,-2.90991377830505,0.72715818881989,3.16028666496277,3.50998997688293,1.04168128967285
766,4122833706,0.000107,-0.649810,0.199678,-0.733398,9.62455081939697,-2.92902183532715,0.69826948642731,3.00958228111267,3.37451219558716,1.07342839241028
767,4122850373,0.000027,-0.649819,0.199717,-0.733380,9.62350940704346,-2.91729068756104,0.71995407342911,2.70522570610046,3.32993268966675,1.01723396778107
