sep=,
DeviceTag:,C
FirmwareVersion:,3.0.0
AppVersion:,2023.6.0
StartTime: ,2024-03-14_12:04:07_000 EDT
© Movella Technologies B. V. 2005-2024

PacketCounter,SampleTimeFine,Quat_W,Quat_X,Quat_Y,Quat_Z,Acc_X,Acc_Y,Acc_Z,Gyr_X,Gyr_Y,Gyr_Z
0,4110050117,0.628183,0.384599,-0.578734,0.350062,0.00000000000000,0.00000000000000,0.00000000000000,0.00000000000000,0.00000000000000,0.00000000000000
1,4110066784,0.628045,0.384719,-0.578783,0.350096,9.84449863433838,0.78079998493195,0.34568664431572,1.92567157745361,-1.03304994106293,0.46386516094208
2,4110083451,0.627872,0.384899,-0.578794,0.350190,9.91356945037842,0.74018335342407,0.37899479269981,2.65211200714111,-0.99197989702225,0.47070384025574
3,4110100118,0.627750,0.384981,-0.578824,0.350269,9.89790248870850,0.73355931043625,0.39663052558899,1.98988282680511,-0.67228215932846,0.72359079122543
4,4110116785,0.627723,0.384907,-0.578890,0.350290,9.88996791839600,0.72165083885193,0.34268158674240,0.74771791696548,-0.22435443103313,0.95890742540359
5,4110133452,0.627774,0.384710,-0.578976,0.350273,9.88065528869629,0.74621754884720,0.33664491772652,-0.18670378625393,0.18975807726383,1.15150213241577
6,4110150119,0.627825,0.384492,-0.579072,0.350263,9.89724254608154,0.78172254562378,0.35379114747047,-0.31143763661385,0.21667702496052,1.28590464591980
7,4110166786,0.627858,0.384365,-0.579127,0.350253,9.88582229614258,0.77048271894455,0.31218987703323,0.33747932314873,0.10998734086752,0.87255430221558
8,4110183453,0.627877,0.384321,-0.579135,0.350252,9.88052368164062,0.76135051250458,0.31952717900276,0.78959465026855,0.07155548036098,0.48065429925919
9,4110200120,0.627889,0.384338,-0.579135,0.350214,9.85924243927002,0.73313260078430,0.29413855075836,0.96058499813080,-0.16038671135902,0.07456497102976
10,4110216787,0.627895,0.384353,-0.579132,0.350189,9.87360000610352,0.73027563095093,0.30096063017845,1.02334904670715,-0.13482524454594,0.14459009468555
11,4110233454,0.627893,0.384373,-0.579138,0.350161,9.87348079681396,0.74664163589478,0.31153535842896,1.03948497772217,-0.22787617146969,0.16122554242611
12,4110250121,0.627904,0.384351,-0.579148,0.350149,9.86879062652588,0.72948735952377,0.31821212172508,0.87357866764069,-0.04168466478586,0.36809930205345
13,4110266788,0.627886,0.384353,-0.579150,0.350177,9.86983489990234,0.72704076766968,0.33868333697319,1.19964134693146,-0.08550799638033,0.49055358767509
14,4110283455,0.627840,0.384388,-0.579142,0.350234,9.86709785461426,0.74794888496399,0.28819352388382,1.56921958923340,-0.15518733859062,0.54020380973816
15,4110300122,0.627780,0.384439,-0.579140,0.350289,9.85935592651367,0.72403597831726,0.31938156485558,1.71240758895874,-0.27164834737778,0.50534498691559
16,4110316789,0.627722,0.384469,-0.579148,0.350347,9.88564300537109,0.74769008159637,0.34425085783005,1.54409372806549,-0.25674173235893,0.63088572025299
17,4110333456,0.627669,0.384492,-0.579162,0.350392,9.88481140136719,0.75962471961975,0.33010783791542,1.41474962234497,-0.27698856592178,0.59849840402603
18,4110350123,0.627639,0.384489,-0.579176,0.350426,9.87502670288086,0.74021327495575,0.31940278410912,1.24158203601837,-0.15167841315269,0.60319823026657
19,4110366790,0.627614,0.384489,-0.579193,0.350444,9.86096191406250,0.72834342718124,0.33434551954269,1.16747176647186,-0.19510474801064,0.51569253206253
20,4110383457,0.627576,0.384487,-0.579211,0.350484,9.86796951293945,0.73889613151550,0.33333295583725,1.25263392925262,-0.18853509426117,0.65652394294739
21,4110400124,0.627531,0.384481,-0.579226,0.350546,9.86831283569336,0.73340409994125,0.32356676459312,1.31437337398529,-0.14617165923119,0.77494418621063
22,4110416791,0.627485,0.384449,-0.579260,0.350609,9.86938953399658,0.72409051656723,0.33901029825211,1.20446920394897,-0.15257486701012,0.93699586391449
23,4110433458,0.627427,0.384408,-0.579326,0.350647,9.90159511566162,0.74505710601807,0.37015008926392,1.03674435615540,-0.38591933250427,0.97787362337112
24,4110450125,0.627407,0.384364,-0.579358,0.350678,9.88622093200684,0.75433057546616,0.36892345547676,0.97249495983124,-0.09688002616167,0.77211397886276
25,4110466792,0.627401,0.384329,-0.579360,0.350722,9.92032432556152,0.75142204761505,0.34589329361916,1.11444056034088,0.09870494902134,0.68855261802673
26,4110483459,0.627406,0.384319,-0.579323,0.350788,9.88983345031738,0.76177924871445,0.32437196373940,1.36731481552124,0.30450299382210,0.54754191637039
27,4110500126,0.627401,0.384333,-0.579291,0.350834,9.88325595855713,0.74071252346039,0.33296316862106,1.37995469570160,0.14049206674099,0.40238195657730
28,4110516793,0.627402,0.384334,-0.579277,0.350854,9.88015460968018,0.70912075042725,0.32673457264900,1.18349242210388,0.04234419390559,0.38246804475784
29,4110533460,0.627381,0.384310,-0.579305,0.350872,9.90095806121826,0.73672580718994,0.36703833937645,1.01694595813751,-0.16912065446377,0.63659733533859
30,4110550127,0.627376,0.384323,-0.579275,0.350915,9.89966487884521,0.76563286781311,0.35316547751427,1.37496006488800,0.12509882450104,0.39962852001190
31,4110566794,0.627412,0.384337,-0.579217,0.350932,9.89214611053467,0.75518286228180,0.34978282451630,1.21363866329193,0.33289465308189,0.11158813536167
32,4110583461,0.627494,0.384338,-0.579134,0.350921,9.86284923553467,0.74274021387100,0.36655160784721,1.03501558303833,0.58569204807281,-0.13482525944710
33,4110600128,0.627402,0.384514,-0.579040,0.351048,9.86797714233398,0.70237749814987,0.15545520186424,2.79793787002563,-0.12014918029308,0.15577004849911
34,4110616795,0.627360,0.384608,-0.579071,0.350969,9.84302425384521,0.74088048934937,0.52586436271667,1.17788326740265,-0.81207627058029,-0.19359359145164
35,4110633462,0.627467,0.384559,-0.578990,0.350965,9.89331436157227,0.68463331460953,0.28955176472664,0.75850087404251,0.81557881832123,0.04376569762826
36,4110650129,0.627566,0.384287,-0.579159,0.350806,9.82854557037354,0.75194221735001,0.33403247594833,-1.40146291255951,-0.16590626537800,0.93755936622620
37,4110666796,0.627654,0.384149,-0.579169,0.350785,9.85621356964111,0.71495896577835,0.29361376166344,0.13380713760853,0.51767742633820,0.60720664262772
38,4110683463,0.627568,0.384073,-0.579318,0.350775,9.87057590484619,0.75116503238678,0.31638261675835,0.53061187267303,-0.90195113420486,1.19813013076782
39,4110700130,0.627468,0.384145,-0.579318,0.350876,9.90945625305176,0.76100689172745,0.31947198510170,2.03382134437561,-0.37391981482506,0.72142654657364
40,4110716797,0.627356,0.384298,-0.579300,0.350938,9.86895084381104,0.72466146945953,0.34166496992111,2.33167171478271,-0.64112436771393,0.21864923834801
41,4110733464,0.627231,0.384408,-0.579331,0.350990,9.91145038604736,0.77393114566803,0.38656917214394,1.99684917926788,-0.82762312889099,0.50265562534332
42,4110750131,0.627213,0.384420,-0.579328,0.351015,9.92631149291992,0.75444114208221,0.37739658355713,1.29168045520782,-0.09274359047413,0.43560162186623
43,4110766798,0.627232,0.384381,-0.579312,0.351049,9.90251541137695,0.71398001909256,0.34197559952736,1.01402592658997,0.25722193717957,0.54423779249191
44,4110783465,0.627265,0.384376,-0.579270,0.351065,9.86058712005615,0.73686361312866,0.32711827754974,1.16315603256226,0.29854804277420,0.24002304673195
45,4110800132,0.627264,0.384434,-0.579211,0.351100,9.84009265899658,0.71412408351898,0.32206398248672,1.63004982471466,0.13598421216011,0.10442937165499
46,4110816799,0.627230,0.384482,-0.579179,0.351161,9.83858013153076,0.70662748813629,0.31999003887177,1.68483531475067,-0.02142502181232,0.40571153163910
47,4110833466,0.627207,0.384460,-0.579197,0.351196,9.85074710845947,0.75083881616592,0.30446726083755,1.10702550411224,-0.09566342085600,0.67565655708313
48,4110850133,0.627239,0.384378,-0.579239,0.351159,9.86861515045166,0.76275497674942,0.34208926558495,0.36133754253387,-0.02077189832926,0.53491479158401
49,4110866800,0.627298,0.384281,-0.579271,0.351109,9.89081287384033,0.76406383514404,0.34484651684761,0.22898393869400,0.13116903603077,0.44936838746071
50,4110883467,0.627370,0.384229,-0.579254,0.351063,9.89417457580566,0.76722550392151,0.35182026028633,0.51437342166901,0.29558980464935,0.12390784919262
51,4110900134,0.627453,0.384253,-0.579174,0.351022,9.88192367553711,0.73064869642258,0.34570172429085,0.96223717927933,0.44008386135101,-0.35122695565224
52,4110916801,0.627458,0.384354,-0.579082,0.351055,9.87001609802246,0.72338610887527,0.35450735688210,1.82801032066345,0.18635158240795,-0.17674043774605
53,4110933468,0.627528,0.384348,-0.578991,0.351086,9.89980220794678,0.73420077562332,0.33294278383255,1.20471262931824,0.70344644784927,0.07978996634483
54,4110950135,0.627579,0.384296,-0.578973,0.351082,9.85700988769531,0.67698293924332,0.31198301911354,0.77315133810043,0.32649147510529,0.35763651132584
55,4110966802,0.627626,0.384208,-0.578979,0.351084,9.91115379333496,0.71650159358978,0.44547504186630,0.56166726350784,0.30789667367935,0.59908741712570
56,4110983469,0.627667,0.384232,-0.578875,0.351155,9.84449195861816,0.74745637178421,0.38095751404762,1.58533012866974,0.66763985157013,0.17236706614494
57,4111000136,0.627665,0.384285,-0.578816,0.351198,9.89368247985840,0.75577646493912,0.37901359796524,1.62378752231598,0.16917829215527,0.15797272324562
58,4111016803,0.627726,0.384281,-0.578725,0.351242,9.89068603515625,0.77434754371643,0.34906873106956,1.26390349864960,0.68953865766525,0.15308070182800
59,4111033470,0.627818,0.384234,-0.578666,0.351228,9.87604427337646,0.74522310495377,0.35961300134659,0.73117214441299,0.62872135639191,0.08872878551483
60,4111050137,0.627919,0.384157,-0.578611,0.351223,9.87834167480469,0.72880959510803,0.37268036603928,0.60076504945755,0.74519503116608,0.22628179192543
61,4111066804,0.628030,0.384124,-0.578511,0.351224,9.89696025848389,0.73796516656876,0.38267973065376,0.87318181991577,0.88532227277756,-0.05993372201920
62,4111083471,0.628165,0.384064,-0.578386,0.351255,9.88889503479004,0.71519935131073,0.37839242815971,0.88328593969345,1.23156750202179,0.05567561089993
63,4111100138,0.628290,0.383964,-0.578302,0.351278,9.87500667572021,0.71924418210983,0.36044213175774,0.58761298656464,1.09173500537872,0.30565556883812
64,4111116805,0.628416,0.383843,-0.578228,0.351308,9.87287139892578,0.73906111717224,0.34205764532089,0.49408814311028,1.12309777736664,0.44237616658211
65,4111133472,0.628500,0.383766,-0.578160,0.351353,9.87958431243896,0.74728471040726,0.32332831621170,0.85198718309402,0.86483192443848,0.45907554030418
66,4111150139,0.628575,0.383732,-0.578082,0.351384,9.86275959014893,0.77629649639130,0.36950579285622,1.03213417530060,0.72572940587997,0.21343702077866
67,4111166806,0.628642,0.383724,-0.578013,0.351386,9.90014934539795,0.74580532312393,0.37411046028137,1.01017117500305,0.51665294170380,0.03259856253862
68,4111183473,0.628729,0.383714,-0.577919,0.351395,9.88064289093018,0.75556790828705,0.35842081904411,1.07083499431610,0.73350292444229,-0.04249147325754
69,4111200140,0.628781,0.383715,-0.577840,0.351432,9.89197349548340,0.72956383228302,0.35692697763443,1.25226259231567,0.56926149129868,0.15738363564014
70,4111216807,0.628841,0.383698,-0.577756,0.351482,9.87042427062988,0.74744707345963,0.39478096365929,1.19024133682251,0.70555949211121,0.25247079133987
71,4111233474,0.628890,0.383673,-0.577691,0.351528,9.90761566162109,0.74587577581406,0.41711100935936,1.16555082798004,0.58792030811310,0.34066811203957
72,4111250141,0.628982,0.383692,-0.577551,0.351573,9.89244556427002,0.74364101886749,0.39782956242561,1.43036043643951,0.97645217180252,-0.13477402925491
73,4111266808,0.629077,0.383752,-0.577389,0.351602,9.87867736816406,0.73309201002121,0.36922734975815,1.58518910408020,0.93653476238251,-0.43499326705933
74,4111283475,0.629158,0.383850,-0.577206,0.351651,9.88490867614746,0.74422436952591,0.36824929714203,1.91624629497528,0.93499803543091,-0.51942557096481
75,4111300142,0.629216,0.383931,-0.577069,0.351683,9.85792636871338,0.75758314132690,0.38401803374290,1.69782090187073,0.63932496309280,-0.35042014718056
76,4111316809,0.629287,0.383967,-0.576957,0.351702,9.83420944213867,0.75964307785034,0.37355321645737,1.38416779041290,0.66082686185837,-0.19564257562160
77,4111333476,0.629355,0.383959,-0.576887,0.351704,9.86567306518555,0.76755034923553,0.43486911058426,1.03408074378967,0.52846044301987,0.03149721771479
78,4111350143,0.629398,0.383960,-0.576812,0.351748,9.87793254852295,0.77256768941879,0.43057844042778,1.31738293170929,0.53847497701645,0.21904619038105
79,4111366810,0.629480,0.383958,-0.576691,0.351804,9.87717628479004,0.75435036420822,0.44864287972450,1.37036263942719,0.93641948699951,0.06967294961214
80,4111383477,0.629564,0.383971,-0.576567,0.351842,9.87214183807373,0.75470256805420,0.42862015962601,1.36845457553864,0.86913502216339,-0.08115383982658
81,4111400144,0.629655,0.383940,-0.576481,0.351852,9.86907386779785,0.76721662282944,0.43185183405876,0.96492636203766,0.76605653762817,0.05406200140715
82,4111416811,0.629747,0.383891,-0.576418,0.351843,9.87305545806885,0.76547467708588,0.44173145294189,0.72684353590012,0.66076278686523,0.10250841826200
83,4111433478,0.629832,0.383815,-0.576373,0.351849,9.87914466857910,0.77273750305176,0.42357853055000,0.65067148208618,0.66441255807877,0.33896484971046
84,4111450145,0.629933,0.383730,-0.576317,0.351853,9.87561798095703,0.75095826387405,0.42656037211418,0.58401435613632,0.78626507520676,0.29886817932129
85,4111466812,0.630048,0.383626,-0.576265,0.351845,9.89004325866699,0.73874044418335,0.46091285347939,0.40754282474518,0.84376549720764,0.29299002885818
86,4111483479,0.630143,0.383571,-0.576190,0.351858,9.86512947082520,0.76200228929520,0.41092261672020,0.83318746089935,0.79569047689438,0.18521182239056
87,4111500146,0.630232,0.383574,-0.576079,0.351878,9.87389087677002,0.77688086032867,0.43791097402573,1.17853629589081,0.80803585052490,-0.09992794692516
88,4111516813,0.630345,0.383564,-0.575960,0.351882,9.84346199035645,0.75811195373535,0.41031682491302,1.02656340599060,0.92899185419083,-0.19534808397293
89,4111533480,0.630397,0.383529,-0.575920,0.351892,9.86833190917969,0.77561503648758,0.47068810462952,0.94105547666550,0.42584311962128,0.29379686713219
90,4111550147,0.630305,0.383759,-0.575769,0.352052,9.83388519287109,0.71170598268509,0.24859176576138,3.30679774284363,0.08308117836714,-0.05811520665884
91,4111566814,0.630270,0.383857,-0.575788,0.351977,9.90210437774658,0.69808191061020,0.55333071947098,1.25310766696930,-0.72184270620346,-0.24443480372429
92,4111583481,0.630506,0.383671,-0.575753,0.351815,9.77327728271484,0.78350275754929,0.34563380479813,-0.90621560811996,1.04140591621399,-0.29393133521080
93,4111600148,0.630564,0.383490,-0.575943,0.351598,9.85748386383057,0.68855333328247,0.38290664553642,-1.17840182781219,-0.80172872543335,0.47259908914566
94,4111616815,0.630538,0.383374,-0.576111,0.351496,9.83187007904053,0.81740593910217,0.43466058373451,-0.17850770056248,-0.88590484857559,0.86179679632187
95,4111633482,0.630392,0.383456,-0.576185,0.351545,9.95354652404785,0.76533174514771,0.44647076725960,1.80209040641785,-1.04049026966095,0.76660734415054
96,4111650149,0.630250,0.383714,-0.576070,0.351706,9.92431068420410,0.80903506278992,0.41335085034370,3.47059130668640,-0.33349016308784,0.05420287698507
97,4111666816,0.630128,0.384034,-0.575906,0.351845,9.86814308166504,0.79889726638794,0.40214452147484,3.73310828208923,-0.24876333773136,-0.46958318352699
98,4111683483,0.630077,0.384278,-0.575778,0.351881,9.89865016937256,0.74899786710739,0.46056479215622,2.74171781539917,-0.21339219808578,-0.68736797571182
99,4111700150,0.630108,0.384375,-0.575665,0.351904,9.89342117309570,0.75985485315323,0.41842555999756,1.77518415451050,0.36845785379410,-0.32291206717491
100,4111716817,0.630152,0.384462,-0.575538,0.351937,9.84915733337402,0.76020264625549,0.39649519324303,1.79603266716003,0.53748881816864,-0.30100041627884
101,4111733484,0.630136,0.384615,-0.575399,0.352025,9.81620216369629,0.75616908073425,0.39143830537796,2.44852924346924,0.33151158690453,-0.22366288304329
102,4111750151,0.630097,0.384750,-0.575290,0.352125,9.83559036254883,0.77275907993317,0.41343241930008,2.46866106987000,0.19228094816208,0.04276680946350
103,4111766818,0.630065,0.384858,-0.575193,0.352225,9.82377243041992,0.76788967847824,0.40051013231277,2.27493929862976,0.22912481427193,0.16560532152653
104,4111783485,0.630097,0.384867,-0.575113,0.352288,9.86742210388184,0.76514458656311,0.43301320075989,1.49933540821075,0.55121731758118,0.28644603490829
105,4111800152,0.630148,0.384852,-0.575050,0.352317,9.87584686279297,0.78480821847916,0.40288239717484,1.16548669338226,0.51853555440903,0.23280024528503
106,4111816819,0.630198,0.384856,-0.574962,0.352365,9.88115310668945,0.80010151863098,0.39371162652969,1.38906002044678,0.62484109401703,0.17138096690178
107,4111833486,0.630239,0.384863,-0.574902,0.352382,9.87798786163330,0.79351580142975,0.41548895835876,1.26006162166595,0.39129161834717,0.12588003277779
108,4111850153,0.630241,0.384943,-0.574789,0.352475,9.84551715850830,0.76973485946655,0.30109828710556,2.03750944137573,0.47834920883179,0.12000190466642
109,4111866820,0.630372,0.384831,-0.574756,0.352417,9.79710960388184,0.79427564144135,0.48621755838394,0.11372678726912,0.70817196369171,0.12520128488541
110,4111883487,0.630452,0.384672,-0.574789,0.352394,9.82328033447266,0.73386204242706,0.37197196483612,0.01100705657154,0.42755916714668,0.75974309444427
111,4111900154,0.630424,0.384629,-0.574807,0.352462,9.79466915130615,0.77451443672180,0.32420852780342,1.18397903442383,0.03193263709545,0.91454625129700
112,4111916821,0.630366,0.384623,-0.574881,0.352452,9.80394458770752,0.79278331995010,0.45000401139259,0.95847213268280,-0.63228791952133,0.64864802360535
113,4111933488,0.630262,0.384639,-0.574953,0.352503,9.85435867309570,0.80700480937958,0.45280322432518,1.49555742740631,-0.69147878885269,0.93778979778290
114,4111950155,0.630188,0.384594,-0.575036,0.352548,9.86885356903076,0.83794003725052,0.42743018269539,1.05272674560547,-0.49666863679886,1.11373615264893
115,4111966822,0.630207,0.384492,-0.575099,0.352522,9.89055824279785,0.78946906328201,0.42413496971130,0.34494546055794,-0.08458593487740,0.74191659688950
116,4111983489,0.630274,0.384344,-0.575156,0.352471,9.91591835021973,0.81185984611511,0.45469686388969,-0.04199201613665,0.17473623156548,0.69437944889069
117,4112000156,0.630361,0.384194,-0.575183,0.352435,9.90150928497314,0.78563910722733,0.44773757457733,0.00694744521752,0.43022295832634,0.63553434610367
118,4112016823,0.630436,0.384063,-0.575179,0.352452,9.88602161407471,0.74935501813889,0.42291453480721,0.37086549401283,0.60341602563858,0.73259365558624
119,4112033490,0.630483,0.383951,-0.575172,0.352499,9.85923767089844,0.75118499994278,0.40253204107285,0.65480786561966,0.54015266895294,0.84804284572601
120,4112050157,0.630521,0.383842,-0.575180,0.352538,9.87525749206543,0.75410854816437,0.42399707436562,0.63443303108215,0.41723725199699,0.86535704135895
121,4112066824,0.630561,0.383732,-0.575194,0.352563,9.87730503082275,0.74140810966492,0.44406968355179,0.52962571382523,0.36095336079597,0.81822967529297
122,4112083491,0.630628,0.383599,-0.575210,0.352562,9.86422157287598,0.76215332746506,0.43784749507904,0.28355178236961,0.44617959856987,0.73909920454025
123,4112100158,0.630723,0.383447,-0.575215,0.352549,9.89032840728760,0.76638484001160,0.42167201638222,0.09743711352348,0.61837387084961,0.66432291269302
124,4112116825,0.630795,0.383360,-0.575185,0.352563,9.88888359069824,0.74045819044113,0.42683187127113,0.63146185874939,0.59192872047424,0.48590490221977
125,4112133492,0.630843,0.383323,-0.575141,0.352591,9.89458751678467,0.73684370517731,0.40784201025963,1.02498829364777,0.47400787472725,0.37566787004471
126,4112150159,0.630880,0.383312,-0.575082,0.352634,9.88713359832764,0.74665093421936,0.42170950770378,1.25369691848755,0.47676125168800,0.31888452172279
127,4112166826,0.630933,0.383287,-0.575024,0.352658,9.89200878143311,0.75007408857346,0.45519217848778,1.08081114292145,0.51852273941040,0.25916850566864
128,4112183493,0.630981,0.383255,-0.574990,0.352663,9.88627433776855,0.74491399526596,0.47824582457542,0.90700322389603,0.35626623034477,0.27725106477737
129,4112200160,0.631031,0.383237,-0.574947,0.352662,9.89065074920654,0.74651837348938,0.48757386207581,0.97535079717636,0.35759812593460,0.16963931918144
130,4112216827,0.631082,0.383226,-0.574891,0.352676,9.87300586700439,0.75262755155563,0.48147988319397,1.06299734115601,0.43729206919670,0.17072784900665
131,4112233494,0.631121,0.383240,-0.574828,0.352692,9.86222553253174,0.76269245147705,0.47632613778114,1.23566555976868,0.36416777968407,0.08178775757551
132,4112250161,0.631180,0.383245,-0.574780,0.352660,9.86077690124512,0.76081568002701,0.45373079180717,0.92330574989319,0.27878782153130,-0.09328144788742
133,4112266828,0.631210,0.383225,-0.574780,0.352629,9.86030769348145,0.77766776084900,0.46255022287369,0.78921043872833,0.01429828908294,0.20999208092690
134,4112283495,0.631233,0.383229,-0.574757,0.352621,9.88074398040771,0.78840094804764,0.45856988430023,1.05336701869965,0.09009906649590,0.16773116588593
135,4112300162,0.631247,0.383272,-0.574702,0.352637,9.90235328674316,0.78045600652695,0.49436968564987,1.42144715785980,0.16459362208843,0.05775023624301
136,4112316829,0.631321,0.383302,-0.574601,0.352638,9.89228534698486,0.79124575853348,0.49854809045792,1.27266323566437,0.59406745433807,-0.22413673996925
137,4112333496,0.631379,0.383308,-0.574536,0.352634,9.89064407348633,0.81048893928528,0.53430813550949,1.07981216907501,0.41536751389503,-0.01641773805022
138,4112350163,0.631275,0.383588,-0.574374,0.352779,9.83468532562256,0.72373539209366,0.27895972132683,3.50130105018616,-0.07325233519077,-0.31780236959457
139,4112366830,0.631245,0.383683,-0.574421,0.352652,9.88848590850830,0.76360970735550,0.68566131591797,0.94161897897720,-0.95828634500504,-0.39088821411133
140,4112383497,0.631461,0.383479,-0.574410,0.352507,9.82502937316895,0.73988026380539,0.39478784799576,-0.92990744113922,0.93942880630493,-0.04267075657845
141,4112400164,0.631510,0.383259,-0.574622,0.352311,9.84933185577393,0.71910387277603,0.37468332052231,-1.29615628719330,-0.77578306198120,0.79479414224625
142,4112416831,0.631493,0.383158,-0.574778,0.352198,9.79539489746094,0.82229018211365,0.44229257106781,-0.14444281160831,-0.87040913105011,0.69802927970886
143,4112433498,0.631364,0.383129,-0.574966,0.352155,9.89142704010010,0.80428057909012,0.47979122400284,0.64145082235336,-1.43939518928528,1.06751799583435
144,4112450165,0.631250,0.383206,-0.575010,0.352200,9.87029743194580,0.76068574190140,0.45108991861343,1.77171361446381,-0.77985543012619,0.61828416585922
145,4112466832,0.631143,0.383378,-0.574993,0.352235,9.81523132324219,0.75350749492645,0.43240731954575,2.27812814712524,-0.74358797073364,0.02082952670753
146,4112483499,0.630990,0.383513,-0.575093,0.352197,9.88315296173096,0.76364964246750,0.47250965237617,1.67643451690674,-1.53174185752869,0.27608570456505
147,4112500166,0.630914,0.383489,-0.575246,0.352112,9.90561294555664,0.78083056211472,0.48981019854546,0.45944696664810,-1.20021104812622,0.64963406324387
148,4112516833,0.630880,0.383436,-0.575360,0.352044,9.90726089477539,0.78128105401993,0.46063676476479,0.39989751577377,-0.74887698888779,0.63082158565521
149,4112533500,0.630860,0.383455,-0.575401,0.351991,9.84850120544434,0.76992803812027,0.43354821205139,0.89166122674942,-0.50912922620773,0.18837499618530
150,4112550167,0.630808,0.383528,-0.575412,0.351989,9.83227539062500,0.76999413967133,0.41835841536522,1.49384152889252,-0.50618380308151,0.19085943698883
151,4112566834,0.630739,0.383602,-0.575427,0.352006,9.83692836761475,0.77647179365158,0.42461270093918,1.61237692832947,-0.53731596469879,0.32295691967010
152,4112583501,0.630668,0.383619,-0.575504,0.351989,9.85005569458008,0.77539867162704,0.43314242362976,1.08369255065918,-0.77623128890991,0.57124644517899
153,4112600168,0.630618,0.383596,-0.575600,0.351947,9.86977005004883,0.78906607627869,0.47287335991859,0.70445811748505,-0.73797881603241,0.61549246311188
154,4112616835,0.630555,0.383605,-0.575688,0.351906,9.89314556121826,0.78632086515427,0.45982807874680,0.88379818201065,-0.82944166660309,0.50872588157654
155,4112633502,0.630516,0.383647,-0.575717,0.351881,9.90392208099365,0.78680711984634,0.46976181864738,1.20849049091339,-0.51783758401871,0.23127628862858
156,4112650169,0.630449,0.383765,-0.575684,0.351926,9.88718032836914,0.75341349840164,0.33466678857803,2.01797938346863,-0.35641348361969,0.14069694280624
157,4112666836,0.630446,0.383765,-0.575726,0.351865,9.85119342803955,0.82591414451599,0.53357315063477,0.74976688623428,-0.41887009143829,0.19158938527107
158,4112683503,0.630441,0.383731,-0.575777,0.351827,9.85674571990967,0.77174073457718,0.35739904642105,0.65535855293274,-0.32896950840950,0.45040568709373
159,4112700170,0.630351,0.383770,-0.575852,0.351824,9.86461257934570,0.72769016027451,0.40238815546036,1.30245065689087,-0.85173743963242,0.58387351036072
160,4112716837,0.630279,0.383896,-0.575840,0.351834,9.87920570373535,0.73699229955673,0.47334951162338,1.87060403823853,-0.58500677347183,0.02409514598548
161,4112733504,0.630156,0.384036,-0.575862,0.351865,9.86929321289062,0.75085866451263,0.45701694488525,2.07400774955750,-0.90633100271225,0.26955446600914
162,4112750171,0.630063,0.384119,-0.575885,0.351903,9.88781452178955,0.79709583520889,0.44890525937080,1.77700269222260,-0.63984358310699,0.45725709199905
163,4112766838,0.630049,0.384120,-0.575903,0.351898,9.87754058837891,0.77845191955566,0.42030403017998,1.04564476013184,-0.21473686397076,0.39093300700188
164,4112783505,0.630073,0.384097,-0.575923,0.351846,9.86462116241455,0.77252513170242,0.41668537259102,0.66099333763123,-0.14318779110909,0.19698086380959
165,4112800172,0.630088,0.384100,-0.575926,0.351811,9.86776065826416,0.77904790639877,0.43061462044716,0.91754287481308,-0.12190364301205,0.14905950427055
166,4112816839,0.630094,0.384150,-0.575879,0.351825,9.87208843231201,0.74710112810135,0.43836551904678,1.42199790477753,0.07647311687469,0.05675133690238
167,4112833506,0.630106,0.384134,-0.575865,0.351842,9.85987758636475,0.73928678035736,0.43453171849251,1.08300089836121,0.11783763021231,0.40776056051254
168,4112850173,0.630109,0.384099,-0.575876,0.351857,9.87796211242676,0.73758721351624,0.43628376722336,0.96132779121399,0.02173877879977,0.56411325931549
169,4112866840,0.630120,0.384079,-0.575863,0.351881,9.87246704101562,0.76523429155350,0.42200979590416,1.07433104515076,0.14140129089355,0.45222422480583
170,4112883507,0.630149,0.384034,-0.575863,0.351878,9.85938167572021,0.77473819255829,0.42844641208649,0.73707586526871,0.14083781838417,0.42912155389786
171,4112900174,0.630164,0.383994,-0.575886,0.351858,9.86815452575684,0.77214443683624,0.43017256259918,0.72197717428207,-0.06408297270536,0.43296346068382
172,4112916841,0.630123,0.384030,-0.575890,0.351884,9.87043666839600,0.76336574554443,0.39719206094742,1.43908154964447,-0.26524510979652,0.41879966855049
173,4112933508,0.630050,0.384093,-0.575908,0.351917,9.87107467651367,0.77231484651566,0.41677016019821,1.63898861408234,-0.50273889303207,0.44938126206398
174,4112950175,0.629952,0.384160,-0.575933,0.351978,9.87707233428955,0.78430163860321,0.41159000992775,1.76589953899384,-0.57196998596191,0.63890242576599
175,4112966842,0.629885,0.384211,-0.575959,0.352001,9.87942790985107,0.78720539808273,0.42588305473328,1.49992442131042,-0.50624787807465,0.46650332212448
176,4112983509,0.629857,0.384243,-0.575960,0.352013,9.88467025756836,0.78799068927765,0.44250357151031,1.34674775600433,-0.22554542124271,0.33037179708481
177,4113000176,0.629860,0.384266,-0.575938,0.352019,9.85997104644775,0.77190589904785,0.42246088385582,1.23953306674957,-0.00645440071821,0.20731560885906
178,4113016843,0.629848,0.384289,-0.575927,0.352033,9.85606384277344,0.77939200401306,0.41815140843391,1.27248370647430,-0.09139890968800,0.30322235822678
179,4113033510,0.629829,0.384323,-0.575908,0.352062,9.85109615325928,0.78106558322906,0.39894920587540,1.36308860778809,-0.07084472477436,0.31564453244209
180,4113050177,0.629777,0.384383,-0.575908,0.352090,9.85558223724365,0.75283885002136,0.38416093587875,1.59206604957581,-0.34691119194031,0.34659743309021
181,4113066844,0.629701,0.384464,-0.575916,0.352125,9.87539482116699,0.75748383998871,0.42895683646202,1.75392556190491,-0.50528734922409,0.37337553501129
182,4113083511,0.629667,0.384534,-0.575885,0.352159,9.90760421752930,0.77911394834518,0.45410397648811,1.68769133090973,-0.14638939499855,0.20716193318367
183,4113100178,0.629674,0.384580,-0.575855,0.352146,9.86213111877441,0.76503831148148,0.40634775161743,1.28503406047821,-0.06334020942450,-0.00130624778103
184,4113116845,0.629711,0.384536,-0.575864,0.352112,9.87263870239258,0.77490687370300,0.44627490639687,0.66048103570938,0.05978643894196,0.29687038064003
185,4113133512,0.629532,0.384739,-0.575808,0.352304,9.86453056335449,0.75701504945755,0.22077009081841,3.32906818389893,-0.51793998479843,0.65297663211823
186,4113150179,0.629430,0.384858,-0.575876,0.352243,9.89087200164795,0.83306741714478,0.64274364709854,1.47305667400360,-1.21595001220703,0.03094654344022
187,4113166846,0.629545,0.384792,-0.575824,0.352195,9.90752124786377,0.72296965122223,0.39369034767151,0.43999415636063,0.64437067508698,-0.02597127668560
188,4113183513,0.629623,0.384601,-0.575935,0.352084,9.83414840698242,0.79258424043655,0.34173998236656,-0.68738079071045,-0.07236866652966,0.71521538496017
189,4113200180,0.629700,0.384515,-0.575941,0.352030,9.85131740570068,0.74470925331116,0.38014703989029,0.27431839704514,0.27371650934219,0.26918306946754
190,4113216847,0.629621,0.384445,-0.576081,0.352017,9.85569190979004,0.76695066690445,0.39958092570305,0.58635795116425,-0.85190385580063,1.11841046810150
191,4113233514,0.629507,0.384516,-0.576104,0.352106,9.89051532745361,0.79197275638580,0.41550597548485,2.00198483467102,-0.55304217338562,0.77480340003967
192,4113250181,0.629381,0.384657,-0.576123,0.352147,9.84982681274414,0.77066844701767,0.39886140823364,2.12341451644897,-0.88393265008926,0.31073963642120
193,4113266848,0.629282,0.384755,-0.576157,0.352162,9.90331840515137,0.78037524223328,0.41968053579330,1.74351406097412,-0.80900263786316,0.34489417076111
194,4113283515,0.629262,0.384728,-0.576203,0.352151,9.90821743011475,0.78217965364456,0.43795704841614,0.85356241464615,-0.31047713756561,0.56816005706787
195,4113300182,0.629270,0.384688,-0.576221,0.352151,9.86556720733643,0.76828145980835,0.37406075000763,0.82586216926575,-0.02001632377505,0.52294087409973
196,4113316849,0.629290,0.384718,-0.576174,0.352159,9.86120891571045,0.77900648117065,0.36140525341034,1.30533206462860,0.16227567195892,0.07439848780632
197,4113333516,0.629270,0.384824,-0.576116,0.352174,9.85167312622070,0.75444138050079,0.37352943420410,1.80079686641693,-0.11574378609657,-0.12085351347923
198,4113350183,0.629239,0.384882,-0.576086,0.352214,9.83578968048096,0.75669384002686,0.36640921235085,1.63120245933533,-0.09241061657667,0.27470257878304
199,4113366850,0.629192,0.384931,-0.576100,0.352223,9.84808444976807,0.76434797048569,0.38353833556175,1.38055658340454,-0.41869080066681,0.33272814750671
200,4113383517,0.629192,0.384931,-0.576118,0.352194,9.87894248962402,0.76800280809402,0.38618978857994,0.92716050148010,-0.21769513189793,0.25927096605301
201,4113400184,0.629208,0.384931,-0.576122,0.352158,9.86984729766846,0.77590942382812,0.39395430684090,0.88570636510849,-0.11656339466572,0.15253002941608
202,4113416851,0.629233,0.384942,-0.576103,0.352131,9.85907173156738,0.77820360660553,0.43155002593994,1.01378262042999,0.01340184453875,0.06478091329336
203,4113433518,0.629272,0.384952,-0.576059,0.352124,9.88495063781738,0.74938905239105,0.41431167721748,1.09507727622986,0.22986756265163,0.05800634995103
204,4113450185,0.629271,0.385043,-0.575962,0.352185,9.84972000122070,0.72322291135788,0.34665563702583,1.97287559509277,0.29258021712303,-0.01708366908133
205,4113466852,0.629269,0.385105,-0.575904,0.352216,9.84025955200195,0.76658892631531,0.38345026969910,1.64137077331543,0.10289262235165,0.07815074920654
206,4113483519,0.629248,0.385120,-0.575953,0.352156,9.85206317901611,0.75668853521347,0.45631641149521,0.83303380012512,-0.55674326419830,0.19613564014435
207,4113500186,0.629241,0.385156,-0.575936,0.352157,9.91416549682617,0.76334500312805,0.45099267363548,1.32128882408142,-0.10511452704668,0.17016437649727
208,4113516853,0.629220,0.385257,-0.575872,0.352188,9.83482074737549,0.77108120918274,0.40506729483604,1.85015225410461,-0.03959722444415,-0.04915076121688
209,4113533520,0.629174,0.385378,-0.575823,0.352219,9.87244224548340,0.76680350303650,0.43890720605850,1.95817410945892,-0.24794371426105,-0.02320510521531
210,4113550187,0.629162,0.385400,-0.575820,0.352220,9.86174201965332,0.78305006027222,0.42966318130493,1.24670457839966,-0.15272852778435,0.27355003356934
211,4113566854,0.629176,0.385355,-0.575856,0.352187,9.88887786865234,0.77810043096542,0.42078727483749,0.62053811550140,-0.14571066200733,0.43540945649147
212,4113583521,0.629215,0.385303,-0.575862,0.352164,9.87360763549805,0.79308116436005,0.40677213668823,0.63783943653107,0.12283211201429,0.36206752061844
213,4113600188,0.629269,0.385275,-0.575847,0.352123,9.86376667022705,0.78141546249390,0.41256195306778,0.68681091070175,0.16531077027321,0.09770604223013
214,4113616855,0.629301,0.385261,-0.575833,0.352103,9.85607147216797,0.76497614383698,0.42739373445511,0.87434720993042,0.09990874677896,0.18995019793510
215,4113633522,0.629346,0.385235,-0.575816,0.352080,9.87211132049561,0.75767916440964,0.44154545664787,0.84762024879456,0.19027031958103,0.19238337874413
216,4113650189,0.629386,0.385194,-0.575820,0.352047,9.85944938659668,0.78445178270340,0.39786377549171,0.66660249233246,0.08112180978060,0.27248710393906
217,4113666856,0.629401,0.385178,-0.575819,0.352040,9.88035869598389,0.78975373506546,0.36073479056358,0.93453693389893,0.01546366699040,0.32558223605156
218,4113683523,0.629412,0.385209,-0.575795,0.352025,9.85571384429932,0.79654729366302,0.38159468770027,1.16077387332916,-0.03610109910369,0.05640556290746
219,4113700190,0.629429,0.385243,-0.575797,0.351952,9.87960815429688,0.78582584857941,0.39304706454277,0.90173983573914,-0.28596577048302,-0.14743947982788
220,4113716857,0.629418,0.385265,-0.575809,0.351929,9.88268756866455,0.78469198942184,0.39914524555206,1.08825147151947,-0.27701413631439,0.20928776264191
221,4113733524,0.629386,0.385330,-0.575801,0.351929,9.88071918487549,0.78255015611649,0.36619260907173,1.44022130966187,-0.32452568411827,0.13059276342392
222,4113750191,0.629339,0.385397,-0.575807,0.351930,9.85170459747314,0.76456278562546,0.41671460866928,1.47323608398438,-0.44201114773750,0.20656003057957
223,4113766858,0.629296,0.385440,-0.575829,0.351922,9.85088253021240,0.78717613220215,0.40230205655098,1.28290808200836,-0.45912042260170,0.29781803488731
224,4113783525,0.629257,0.385482,-0.575860,0.351895,9.87421703338623,0.80222493410110,0.39972940087318,1.16240036487579,-0.53139948844910,0.22313144803047
225,4113800192,0.629246,0.385507,-0.575877,0.351861,9.86683940887451,0.78056341409683,0.39484554529190,1.03264641761780,-0.33619228005409,0.16135360300541
226,4113816859,0.629226,0.385540,-0.575887,0.351844,9.87558937072754,0.79778122901917,0.39965897798538,1.18387663364410,-0.31967210769653,0.20598374307156
227,4113833526,0.629209,0.385578,-0.575889,0.351830,9.88520622253418,0.78847843408585,0.40815731883049,1.26675927639008,-0.27201965451241,0.17312262952328
228,4113850193,0.629195,0.385613,-0.575889,0.351817,9.88148117065430,0.77595293521881,0.37981912493706,1.20710730552673,-0.24370485544205,0.17909041047096
229,4113866860,0.629184,0.385648,-0.575885,0.351804,9.85452651977539,0.79664903879166,0.38187494874001,1.22497212886810,-0.21234209835529,0.15974000096321
230,4113883527,0.629171,0.385678,-0.575894,0.351780,9.87794017791748,0.77989393472672,0.39201718568802,1.11942219734192,-0.29600593447685,0.16878126561642
231,4113900194,0.629159,0.385700,-0.575906,0.351758,9.87961101531982,0.78311491012573,0.41924923658371,1.07424139976501,-0.28550475835800,0.20786626636982
232,4113916861,0.629164,0.385696,-0.575909,0.351748,9.88610839843750,0.82479375600815,0.40788918733597,0.98341876268387,-0.07924568653107,0.30466943979263
233,4113933528,0.629194,0.385697,-0.575893,0.351720,9.88464641571045,0.78652298450470,0.41283619403839,0.92554688453674,0.04705693200231,0.09823109954596
234,4113950195,0.629264,0.385640,-0.575892,0.351658,9.87949752807617,0.79902839660645,0.42633396387100,0.38353094458580,0.18439221382141,0.11919510364532
235,4113966862,0.629204,0.385690,-0.575891,0.351714,9.86177825927734,0.76213490962982,0.30370458960533,1.64402139186859,-0.28208544850349,0.52212125062943
236,4113983529,0.629093,0.385852,-0.575888,0.351739,9.82497882843018,0.82956469058990,0.46585577726364,2.21677303314209,-0.81677615642548,0.06885334104300
237,4114000196,0.629153,0.385828,-0.575902,0.351635,9.96763038635254,0.72334516048431,0.52846688032150,0.34906905889511,-0.11443754285574,-0.12612973153591
238,4114016863,0.629289,0.385545,-0.576026,0.351498,9.79194355010986,0.79730850458145,0.29136490821838,-1.36602759361267,0.25668406486511,0.86373054981232
239,4114033530,0.629389,0.385398,-0.576065,0.351418,9.88106822967529,0.78468781709671,0.36613211035728,-0.21323855221272,0.29813820123672,0.43204146623611
240,4114050197,0.629357,0.385292,-0.576205,0.351361,9.84148788452148,0.77643036842346,0.40074905753136,0.13887846469879,-0.69357907772064,0.95519363880157
241,4114066864,0.629233,0.385328,-0.576266,0.351442,9.91788578033447,0.83074378967285,0.42790985107422,1.74046623706818,-0.69681912660599,1.00631666183472
242,4114083531,0.629140,0.385476,-0.576234,0.351498,9.86230182647705,0.77718400955200,0.37796401977539,2.26486063003540,-0.50919330120087,0.13306438922882
243,4114100198,0.629033,0.385615,-0.576240,0.351527,9.88206291198730,0.78538537025452,0.40428656339645,2.06447982788086,-0.78032940626144,0.18566006422043
244,4114116865,0.628977,0.385665,-0.576269,0.351527,9.89809131622314,0.79596453905106,0.40270724892616,1.36871063709259,-0.53846859931946,0.35136142373085
245,4114133532,0.628988,0.385607,-0.576306,0.351511,9.89786911010742,0.78319007158279,0.40854224562645,0.64346140623093,-0.08577692508698,0.56897968053818
246,4114150199,0.629009,0.385571,-0.576308,0.351508,9.87297248840332,0.77372974157333,0.34567815065384,0.85445880889893,0.08743534982204,0.41940149664879
247,4114166866,0.628992,0.385638,-0.576260,0.351545,9.84863185882568,0.78334897756577,0.34622493386269,1.63929581642151,0.00188893626910,0.14251546561718
248,4114183533,0.628930,0.385738,-0.576217,0.351615,9.83066272735596,0.77287125587463,0.35274228453636,2.03976345062256,-0.18630677461624,0.27872377634048
249,4114200200,0.628877,0.385776,-0.576235,0.351639,9.84611797332764,0.79278534650803,0.37686416506767,1.41886043548584,-0.38845500349998,0.46761748194695
250,4114216867,0.628838,0.385787,-0.576290,0.351607,9.85554218292236,0.80081009864807,0.37697395682335,0.97035634517670,-0.56757748126984,0.39335346221924
251,4114233534,0.628816,0.385789,-0.576338,0.351566,9.89799118041992,0.80296069383621,0.41177386045456,0.86726522445679,-0.48428496718407,0.32809227705002
252,4114250201,0.628808,0.385812,-0.576343,0.351546,9.89420700073242,0.77527427673340,0.42001917958260,1.09735691547394,-0.23129548132420,0.19580267369747
253,4114266868,0.628830,0.385843,-0.576308,0.351528,9.89061927795410,0.79008537530899,0.40943789482117,1.17390036582947,0.04849124699831,-0.01059085130692
254,4114283535,0.628828,0.385914,-0.576234,0.351577,9.87173748016357,0.73475539684296,0.27420899271965,1.76770532131195,0.19860728085041,0.07259280234575
255,4114300202,0.628825,0.385946,-0.576191,0.351618,9.84673118591309,0.80800539255142,0.41260540485382,1.48513317108154,0.13846865296364,0.27808347344398
256,4114316869,0.628802,0.385978,-0.576202,0.351606,9.83714103698730,0.74491536617279,0.37194010615349,1.24975252151489,-0.31091254949570,0.24679757654667
257,4114333536,0.628762,0.385954,-0.576261,0.351606,9.91252422332764,0.75773459672928,0.46171689033508,0.93592011928558,-0.42697653174400,0.68641394376755
258,4114350203,0.628762,0.385966,-0.576220,0.351661,9.85549736022949,0.78870946168900,0.40591961145401,1.41117656230927,0.22003228962421,0.41786476969719
259,4114366870,0.628721,0.386007,-0.576196,0.351729,9.88284969329834,0.77701908349991,0.41112431883812,1.67888057231903,-0.04968864098191,0.49928763508797
260,4114383537,0.628730,0.385974,-0.576196,0.351749,9.88264846801758,0.81178903579712,0.42627587914467,0.98098558187485,0.10208581387997,0.53577286005020
261,4114400204,0.628791,0.385868,-0.576214,0.351725,9.87669754028320,0.79192966222763,0.37979322671890,0.31510663032532,0.28460189700127,0.55224174261093
262,4114416871,0.628876,0.385721,-0.576252,0.351672,9.88798141479492,0.79398232698441,0.38432785868645,-0.09430595487356,0.31924307346344,0.58209335803986
263,4114433538,0.628976,0.385636,-0.576239,0.351610,9.85928153991699,0.78690862655640,0.39823570847511,0.21535797417164,0.42068216204643,0.12960664927959
264,4114450205,0.629090,0.385523,-0.576216,0.351565,9.87110424041748,0.76860207319260,0.41508322954178,0.17673403024673,0.63965797424316,0.25221467018127
265,4114466872,0.629218,0.385382,-0.576198,0.351522,9.85878562927246,0.77026855945587,0.39944803714752,0.00009604762454,0.74215996265411,0.35269328951836
266,4114483539,0.629347,0.385232,-0.576195,0.351460,9.87170219421387,0.77959173917770,0.41241896152496,-0.15586608648300,0.65638297796249,0.33721038699150
267,4114500206,0.629465,0.385098,-0.576181,0.351419,9.85429954528809,0.79131811857224,0.36970472335815,0.05143670365214,0.67249345779419,0.36944398283958
268,4114516873,0.629545,0.385049,-0.576134,0.351406,9.85754299163818,0.78195089101791,0.37322127819061,0.71186012029648,0.53518372774124,0.15930458903313
269,4114533540,0.629617,0.385033,-0.576086,0.351373,9.85410690307617,0.77185171842575,0.40088599920273,0.80982863903046,0.37259432673454,-0.04562902078032
270,4114550207,0.629695,0.384978,-0.576060,0.351336,9.89962577819824,0.77217501401901,0.41556966304779,0.51343858242035,0.38327482342720,0.13736729323864
271,4114566874,0.629783,0.384911,-0.576013,0.351328,9.91416835784912,0.75939357280731,0.40510725975037,0.63293457031250,0.62459760904312,0.22745998203754
272,4114583541,0.629860,0.384859,-0.575950,0.351351,9.88342094421387,0.76426547765732,0.38875624537468,0.88984274864197,0.69653087854385,0.28843098878860
273,4114600208,0.629933,0.384840,-0.575867,0.351379,9.87548542022705,0.77399706840515,0.44644045829773,1.10671842098236,0.69533997774124,0.13986454904079
274,4114616875,0.630022,0.384806,-0.575782,0.351393,9.87254619598389,0.76203280687332,0.40033888816833,0.97348117828369,0.77307456731796,0.09113638848066
275,4114633542,0.630119,0.384774,-0.575705,0.351382,9.86863136291504,0.78511416912079,0.39816999435425,0.80889374017715,0.69704318046570,-0.02200130745769
276,4114650209,0.630196,0.384749,-0.575626,0.351401,9.87922668457031,0.78382605314255,0.41286543011665,1.04453074932098,0.68821960687637,0.12449692934752
277,4114666876,0.630264,0.384753,-0.575535,0.351424,9.87789916992188,0.78722023963928,0.41640314459801,1.20525038242340,0.64410179853439,0.01073812600225
278,4114683543,0.630341,0.384750,-0.575426,0.351467,9.87711238861084,0.79609900712967,0.42180180549622,1.27030658721924,0.82386440038681,0.05860826000571
279,4114700210,0.630422,0.384733,-0.575321,0.351511,9.86702251434326,0.78812938928604,0.43899703025818,1.20615971088409,0.86519062519073,0.12166672199965
280,4114716877,0.630531,0.384701,-0.575199,0.351551,9.87674045562744,0.79720014333725,0.42497873306274,1.06945180892944,1.06902921199799,0.04247225821018
281,4114733544,0.630633,0.384659,-0.575111,0.351559,9.87036991119385,0.80620247125626,0.44073066115379,0.86685550212860,0.83815634250641,0.06179703772068
282,4114750211,0.630729,0.384628,-0.575019,0.351572,9.86558532714844,0.78819948434830,0.44980832934380,0.95687133073807,0.81573253870010,0.04099953174591
283,4114766878,0.630818,0.384627,-0.574916,0.351581,9.86317443847656,0.79602342844009,0.45674020051956,1.11219954490662,0.75250744819641,-0.10821364820004
284,4114783545,0.630901,0.384629,-0.574806,0.351609,9.86501884460449,0.79262834787369,0.44563472270966,1.22923672199249,0.80726748704910,-0.04474538564682
285,4114800212,0.630976,0.384645,-0.574709,0.351614,9.84481525421143,0.80467087030411,0.40718308091164,1.21450936794281,0.62332981824875,-0.14267553389072
286,4114816879,0.631060,0.384627,-0.574641,0.351595,9.86703586578369,0.78329092264175,0.43358397483826,0.93239831924438,0.55454695224762,-0.05148152261972
287,4114833546,0.631136,0.384591,-0.574577,0.351603,9.87675380706787,0.80219066143036,0.45123529434204,0.90373766422272,0.61877077817917,0.15761415660381
288,4114850213,0.631224,0.384542,-0.574507,0.351613,9.88354682922363,0.80700159072876,0.44740253686905,0.81602698564529,0.72464090585709,0.17166271805763
289,4114866880,0.631322,0.384500,-0.574413,0.351635,9.87517833709717,0.82231593132019,0.43794304132462,0.94414174556732,0.88182610273361,0.11384206265211
290,4114883547,0.631424,0.384463,-0.574309,0.351664,9.85243034362793,0.80266523361206,0.46781361103058,0.96956235170364,0.94844466447830,0.08519424498081
291,4114900214,0.631328,0.384638,-0.574183,0.351852,9.88497543334961,0.79005205631256,0.28156584501266,3.13215780258179,0.17020280659199,0.36092779040337
292,4114916881,0.631359,0.384679,-0.574180,0.351755,9.82484912872314,0.81581020355225,0.66850394010544,0.77123039960861,-0.29058891534805,-0.33069840073586
293,4114933548,0.631493,0.384594,-0.574060,0.351802,9.87060070037842,0.75424671173096,0.32203102111816,0.83550548553467,1.30921244621277,0.23222395777702
294,4114950215,0.631627,0.384285,-0.574245,0.351599,9.79624843597412,0.79077833890915,0.42107146978378,-1.88025355339050,-0.13581132888794,0.84362465143204
295,4114966882,0.631669,0.384068,-0.574358,0.351576,9.82680511474609,0.78421777486801,0.43648776412010,-0.31556129455566,0.07281050086021,1.28856861591339
296,4114983549,0.631553,0.383878,-0.574591,0.351611,9.89259052276611,0.82192248106003,0.43393859267235,0.14517919719219,-0.98793298006058,2.13680982589722
297,4115000216,0.631405,0.383936,-0.574615,0.351773,9.89483737945557,0.80315083265305,0.42612263560295,2.28520989418030,-0.47300255298615,1.23137557506561
298,4115016883,0.631187,0.384127,-0.574615,0.351956,9.88737678527832,0.79622942209244,0.46088817715645,3.18573951721191,-0.90976303815842,0.89648926258087
299,4115033550,0.631027,0.384284,-0.574594,0.352108,9.95211124420166,0.84182173013687,0.55092936754227,2.79763031005859,-0.59207594394684,0.70490634441376
300,4115050217,0.631037,0.384299,-0.574510,0.352210,9.93633365631104,0.78139889240265,0.49479275941849,1.72911977767944,0.56901812553406,0.47733739018440
301,4115066884,0.631118,0.384235,-0.574419,0.352281,9.88296508789062,0.76495015621185,0.43236023187637,1.10762751102448,0.98705571889877,0.45975434780121
302,4115083551,0.631165,0.384238,-0.574328,0.352342,9.81531238555908,0.79757094383240,0.45442140102386,1.45630621910095,0.66889482736588,0.23675738275051
303,4115100218,0.631126,0.384315,-0.574235,0.352480,9.82058715820312,0.77471196651459,0.49512979388237,2.31024646759033,0.35992887616158,0.48507252335548
304,4115116885,0.630996,0.384464,-0.574130,0.352720,9.87545394897461,0.78672826290131,0.50964820384979,3.27515363693237,0.14446203410625,0.82397979497910
305,4115133552,0.630903,0.384586,-0.574012,0.352948,9.93876934051514,0.77755111455917,0.56553184986115,3.05117011070251,0.38306987285614,0.75629818439484
306,4115150219,0.630946,0.384572,-0.573868,0.353120,9.99823951721191,0.81805038452148,0.61778116226196,1.93888771533966,1.21570050716400,0.65345036983490
307,4115166886,0.631104,0.384461,-0.573637,0.353333,9.98899936676025,0.82707440853119,0.57599353790283,1.60188865661621,2.38832688331604,0.70354884862900
308,4115183553,0.631337,0.384313,-0.573306,0.353615,9.96132469177246,0.82859671115875,0.56460350751877,1.71074295043945,3.39124393463135,0.70477837324142
309,4115200220,0.631594,0.384228,-0.572848,0.353992,9.95915031433105,0.82087206840515,0.58396059274673,2.65731096267700,4.13666248321533,0.47670996189117
310,4115216887,0.631910,0.384116,-0.572355,0.354345,9.87984275817871,0.85616368055344,0.61042505502701,2.36930918693542,4.52213335037231,0.23621954023838
311,4115233554,0.632362,0.383869,-0.571845,0.354631,9.84504032135010,0.76629185676575,0.50683718919754,1.18563115596771,5.27695322036743,0.10736204683781
312,4115250221,0.632742,0.383571,-0.571450,0.354911,9.81721878051758,0.72933518886566,0.43526622653008,0.89487588405609,4.61189365386963,0.75624710321426
313,4115266888,0.633024,0.383374,-0.571060,0.355249,9.78934478759766,0.78216898441315,0.49219492077827,1.78023028373718,4.11056375503540,0.86949366331100
314,4115283555,0.633204,0.383161,-0.570821,0.355542,9.75658798217773,0.80159872770309,0.47448164224625,1.49861848354340,2.98072290420532,1.38242638111115
315,4115300222,0.633307,0.382970,-0.570659,0.355823,9.81743049621582,0.82887989282608,0.52039438486099,1.49764513969421,2.24574089050293,1.62810337543488
316,4115316889,0.633453,0.382743,-0.570553,0.355979,9.81153678894043,0.81490194797516,0.50008851289749,0.65264368057251,1.93507158756256,1.27806735038757
317,4115333556,0.633668,0.382461,-0.570462,0.356045,9.86683082580566,0.78184753656387,0.48303788900375,-0.18343816697598,2.03743267059326,0.97116315364838
318,4115350223,0.633886,0.382242,-0.570306,0.356140,9.84456539154053,0.77565759420395,0.45147752761841,0.27440807223320,2.24851989746094,0.65903401374817
319,4115366890,0.634084,0.382049,-0.570197,0.356170,9.79288959503174,0.74455958604813,0.46900823712349,0.10102289170027,1.73132252693176,0.45417082309723
320,4115383557,0.634281,0.381818,-0.570149,0.356144,9.79730510711670,0.76023596525192,0.51136678457260,-0.41387560963631,1.41302061080933,0.52004659175873
321,4115400224,0.634430,0.381563,-0.570193,0.356082,9.82816505432129,0.74611377716064,0.54470509290695,-0.77804982662201,0.78170597553253,0.82044523954391
322,4115416891,0.634595,0.381322,-0.570208,0.356023,9.87956523895264,0.79649281501770,0.59236907958984,-0.66772305965424,0.94348859786987,0.65542262792587
323,4115433558,0.634818,0.381130,-0.570137,0.355944,9.88146018981934,0.77419883012772,0.62024402618408,-0.48679494857788,1.37912213802338,0.00925258733332
324,4115450225,0.635085,0.380947,-0.570043,0.355816,9.89741325378418,0.77146238088608,0.63975954055786,-0.67452323436737,1.50142276287079,-0.39982703328133
325,4115466892,0.635383,0.380805,-0.569878,0.355699,9.88724613189697,0.74594593048096,0.58527350425720,-0.32703572511673,1.86089706420898,-0.77420783042908
326,4115483559,0.635636,0.380727,-0.569700,0.355616,9.85806846618652,0.70203912258148,0.55444192886353,0.17135536670685,1.67492318153381,-0.80510956048965
327,4115500226,0.635822,0.380662,-0.569580,0.355545,9.83550643920898,0.72605651617050,0.57795327901840,0.30787107348442,1.15759801864624,-0.49491423368454
328,4115516893,0.635947,0.380582,-0.569522,0.355500,9.84729576110840,0.72810417413712,0.65221482515335,0.44456601142883,0.75376248359680,0.00264451117255
329,4115533560,0.636087,0.380483,-0.569450,0.355469,9.87440013885498,0.72128182649612,0.63568180799484,0.33093526959419,0.95401543378830,0.06102865561843
330,4115550227,0.636253,0.380391,-0.569368,0.355402,9.86002254486084,0.75610095262527,0.64314359426498,0.24715612828732,0.99450904130936,-0.21558207273483
331,4115566894,0.636438,0.380315,-0.569239,0.355361,9.84389209747314,0.75779742002487,0.58450859785080,0.42804586887360,1.29622673988342,-0.33446344733238
332,4115583561,0.636602,0.380242,-0.569134,0.355313,9.81919860839844,0.75369828939438,0.57166653871536,0.40049934387207,1.08423030376434,-0.25708746910095
333,4115600228,0.636737,0.380193,-0.569046,0.355264,9.79102039337158,0.78479951620102,0.57098138332367,0.53577291965485,0.83719599246979,-0.24989031255245
334,4115616895,0.636789,0.380235,-0.568981,0.355229,9.82797813415527,0.78131705522537,0.60938489437103,1.14488136768341,0.22602568566799,-0.28067678213120
335,4115633562,0.636842,0.380274,-0.568931,0.355171,9.84076786041260,0.78000068664551,0.61014801263809,1.05439162254333,0.11430305987597,-0.32630577683449
336,4115650229,0.636919,0.380270,-0.568901,0.355087,9.87913990020752,0.76407814025879,0.61453545093536,0.60579794645309,0.15101887285709,-0.28562000393867
337,4115666896,0.636996,0.380252,-0.568884,0.354995,9.86145591735840,0.75439733266830,0.60264456272125,0.48990055918694,0.11064046621323,-0.22678765654564
338,4115683563,0.637020,0.380287,-0.568855,0.354961,9.87120723724365,0.77949249744415,0.63589054346085,1.08784174919128,-0.02689333632588,-0.08206308633089
339,4115700230,0.637053,0.380330,-0.568813,0.354923,9.86525440216064,0.78414952754974,0.63738352060318,1.11532402038574,0.03842544928193,-0.18973886966705
340,4115716897,0.637141,0.380322,-0.568746,0.354881,9.85446929931641,0.80055010318756,0.66956245899200,0.79592096805573,0.48356133699417,-0.20614381134510
341,4115733564,0.637226,0.380281,-0.568698,0.354850,9.87085437774658,0.81883674860001,0.74455356597900,0.69595468044281,0.49107864499092,0.02934575080872
342,4115750231,0.637182,0.380501,-0.568520,0.354977,9.83755302429199,0.74241060018539,0.48484161496162,3.06961202621460,0.32752883434296,-0.33049350976944
343,4115766898,0.637196,0.380624,-0.568516,0.354827,9.79068946838379,0.78806966543198,0.76024168729782,1.00516402721405,-0.69077450037003,-0.84657651185989
344,4115783565,0.637369,0.380489,-0.568548,0.354611,9.79803752899170,0.73968428373337,0.57521927356720,-0.90041446685791,0.23273618519306,-0.41993299126625
345,4115800232,0.637346,0.380331,-0.568806,0.354408,9.87203121185303,0.73878377676010,0.56975513696671,-1.00648939609528,-1.44063746929169,0.79093933105469
346,4115816899,0.637300,0.380324,-0.568952,0.354263,9.77344322204590,0.82212978601456,0.58720815181732,0.24953810870647,-1.24621152877808,0.22081348299980
347,4115833566,0.637101,0.380473,-0.569114,0.354201,9.84818744659424,0.79010993242264,0.58006662130356,1.63473701477051,-2.08372116088867,0.39600437879562
348,4115850233,0.636882,0.380712,-0.569186,0.354222,9.85760498046875,0.79533261060715,0.58725547790527,2.61002993583679,-1.77335917949677,0.21264302730560
349,4115866900,0.636649,0.380989,-0.569264,0.354217,9.82946872711182,0.81231468915939,0.59256303310394,2.68586897850037,-2.00410413742065,-0.00019209524908
350,4115883567,0.636466,0.381160,-0.569402,0.354139,9.86000728607178,0.80505293607712,0.59272044897079,1.68998348712921,-2.01283788681030,0.13951878249645
351,4115900234,0.636344,0.381237,-0.569548,0.354042,9.83470058441162,0.80521506071091,0.58873838186264,0.98163866996765,-1.62237238883972,0.28740650415421
352,4115916901,0.636224,0.381278,-0.569712,0.353950,9.82228851318359,0.80452579259872,0.58653932809830,0.80195271968842,-1.60548079013824,0.49686712026596
353,4115933568,0.636108,0.381286,-0.569889,0.353864,9.81159400939941,0.82799899578094,0.57542484998703,0.66171056032181,-1.54322934150696,0.67330032587051
354,4115950235,0.635990,0.381306,-0.570063,0.353775,9.84551143646240,0.82562953233719,0.61227375268936,0.70502150058746,-1.57173597812653,0.60765480995178
355,4115966902,0.635883,0.381339,-0.570188,0.353731,9.84690380096436,0.80908131599426,0.59216582775116,1.02044212818146,-1.23358452320099,0.60680973529816
356,4115983569,0.635762,0.381372,-0.570315,0.353707,9.87918949127197,0.81303393840790,0.59939926862717,1.13080704212189,-1.23852765560150,0.72540926933289
357,4116000236,0.635668,0.381438,-0.570407,0.353655,9.89322566986084,0.80305665731430,0.56896859407425,1.19875764846802,-1.13822853565216,0.32355883717537
358,4116016903,0.635575,0.381537,-0.570475,0.353608,9.91078281402588,0.80039447546005,0.60521757602692,1.40438926219940,-1.09062719345093,0.14747153222561
359,4116033570,0.635516,0.381676,-0.570449,0.353606,9.91457176208496,0.77829492092133,0.61868041753769,1.90445137023926,-0.53624022006989,-0.14281640946865
360,4116050237,0.635416,0.381874,-0.570406,0.353640,9.87372589111328,0.75449407100677,0.55944877862930,2.43591475486755,-0.66406047344208,-0.16281990706921
361,4116066904,0.635442,0.381885,-0.570395,0.353600,9.82425403594971,0.78450870513916,0.65173363685608,0.93002909421921,-0.04824151843786,0.02637467533350
362,4116083571,0.635434,0.381850,-0.570436,0.353586,9.82099819183350,0.75517630577087,0.55773806571960,0.82912790775299,-0.22937451303005,0.54513418674469
363,4116100238,0.635351,0.381952,-0.570404,0.353678,9.83652687072754,0.77459025382996,0.48609808087349,2.17421746253967,-0.26706361770630,0.45513126254082
364,4116116905,0.635230,0.382052,-0.570474,0.353674,9.79759311676025,0.83628565073013,0.59029775857925,1.62190496921539,-1.10075688362122,0.39978221058846
365,4116133572,0.635118,0.382134,-0.570509,0.353730,9.85860538482666,0.84301513433456,0.57936191558838,1.87252545356750,-0.71418458223343,0.62270241975784
366,4116150239,0.635014,0.382170,-0.570558,0.353800,9.87108421325684,0.84272176027298,0.57079493999481,1.67768931388855,-0.59299796819687,0.88774251937866
367,4116166906,0.634959,0.382169,-0.570583,0.353857,9.89698886871338,0.82676583528519,0.59667158126831,1.37928879261017,-0.24429394304752,0.78623950481415
368,4116183573,0.634969,0.382122,-0.570599,0.353865,9.87837409973145,0.83345770835876,0.56758540868759,0.89939635992050,0.04467495158315,0.57597196102142
369,4116200240,0.635006,0.382086,-0.570590,0.353852,9.88301563262939,0.82481080293655,0.59393948316574,0.80976468324661,0.16367153823376,0.31093171238899
370,4116216907,0.635040,0.382016,-0.570607,0.353839,9.88405036926270,0.80389922857285,0.56495177745819,0.63288336992264,0.13043908774853,0.51789516210556
371,4116233574,0.635081,0.381914,-0.570646,0.353813,9.83782482147217,0.77987784147263,0.54923069477081,0.32866853475571,0.10261087119579,0.62429028749466
372,4116250241,0.635105,0.381802,-0.570687,0.353824,9.85144329071045,0.81450772285461,0.57827931642532,0.48151239752769,0.15155676007271,0.87383490800858
373,4116266908,0.635118,0.381750,-0.570696,0.353844,9.85767745971680,0.80129361152649,0.57613539695740,0.89474749565125,0.11806812882423,0.62085825204849
374,4116283575,0.635143,0.381702,-0.570698,0.353845,9.86168289184570,0.81293225288391,0.55308365821838,0.76085728406906,0.13452431559563,0.46974334120750
375,4116300242,0.635195,0.381680,-0.570665,0.353829,9.85449218750000,0.78107291460037,0.53115564584732,0.89283955097198,0.29838156700134,0.14094029366970
376,4116316909,0.635190,0.381718,-0.570649,0.353823,9.82352924346924,0.77377939224243,0.53307521343231,1.28662180900574,-0.12501558661461,0.13654769957066
377,4116333576,0.635133,0.381766,-0.570682,0.353820,9.84352493286133,0.80995643138885,0.57771801948547,1.33257114887238,-0.56620711088181,0.35447335243225
378,4116350243,0.635082,0.381764,-0.570757,0.353793,9.85539531707764,0.83255946636200,0.61320233345032,0.92174345254898,-0.66342014074326,0.55065381526947
379,4116366910,0.635013,0.381760,-0.570842,0.353785,9.90041160583496,0.79770022630692,0.61206108331680,1.01521694660187,-0.72336661815643,0.71052825450897
380,4116383577,0.634958,0.381738,-0.570915,0.353790,9.92791557312012,0.79467064142227,0.58873188495636,0.98919445276260,-0.53406322002411,0.76653045415878
381,4116400244,0.634924,0.381724,-0.570938,0.353828,9.89750480651855,0.79882264137268,0.57888001203537,1.20427703857422,-0.16723811626434,0.70149981975555
382,4116416911,0.634923,0.381690,-0.570947,0.353853,9.85915946960449,0.79059094190598,0.55051791667938,1.00917232036591,0.03227840363979,0.60342878103256
383,4116433578,0.634937,0.381606,-0.570992,0.353844,9.82697391510010,0.78179210424423,0.54894024133682,0.54099786281586,-0.02890392951667,0.71749496459961
384,4116450245,0.634884,0.381531,-0.571062,0.353907,9.85326957702637,0.78811049461365,0.56712216138840,0.96123814582825,-0.23643080890179,1.21608459949493
385,4116466912,0.634828,0.381478,-0.571123,0.353968,9.88475990295410,0.82200211286545,0.54938954114914,1.10045611858368,-0.26096782088280,1.10638546943665
386,4116483579,0.634829,0.381411,-0.571148,0.353999,9.85903358459473,0.80867749452591,0.53819978237152,0.85394650697708,0.06621523201466,0.80124837160110
387,4116500246,0.634842,0.381313,-0.571194,0.354006,9.85537433624268,0.81226068735123,0.56265234947205,0.57884049415588,0.04408585652709,0.84074318408966
388,4116516913,0.634694,0.381384,-0.571234,0.354130,9.88874149322510,0.78542464971542,0.49795943498611,2.17358994483948,-0.67426717281342,1.06933665275574
389,4116533580,0.634506,0.381624,-0.571253,0.354176,9.80464935302734,0.82518613338470,0.62888365983963,2.73102450370789,-1.35512948036194,0.09668154269457
390,4116550247,0.634580,0.381601,-0.571252,0.354072,9.93237590789795,0.73831504583359,0.65112316608429,0.38650199770927,0.00906049180776,-0.20641273260117
391,4116566914,0.634678,0.381318,-0.571498,0.353803,9.76000308990479,0.74335348606110,0.45077764987946,-2.08468151092529,-0.77512997388840,0.67700129747391
392,4116583581,0.634620,0.381215,-0.571691,0.353706,9.82130146026611,0.75839918851852,0.51532477140427,-0.06743823736906,-1.14337646961212,0.96534895896912
393,4116600248,0.634468,0.381142,-0.571969,0.353609,9.83555030822754,0.78795969486237,0.54977411031723,0.09638699889183,-1.95759153366089,1.29721295833588
394,4116616915,0.634263,0.381200,-0.572150,0.353620,9.92051219940186,0.75616288185120,0.55720686912537,1.46566748619080,-1.77603578567505,1.13334274291992
395,4116633582,0.634090,0.381363,-0.572198,0.353678,9.87733459472656,0.77898311614990,0.51786202192307,2.35590100288391,-1.20501351356506,0.49014383554459
396,4116650249,0.633894,0.381543,-0.572294,0.353679,9.85894966125488,0.79523497819901,0.55401813983917,2.19355487823486,-1.69071984291077,0.36462879180908
397,4116666916,0.633778,0.381611,-0.572419,0.353612,9.90101146697998,0.78884524106979,0.56889915466309,1.11027836799622,-1.41024804115295,0.38929384946823
398,4116683583,0.633705,0.381642,-0.572517,0.353551,9.91102600097656,0.75662779808044,0.55097872018814,0.92162817716599,-1.02029466629028,0.38227596879005
399,4116700250,0.633654,0.381686,-0.572573,0.353503,9.87924861907959,0.76596230268478,0.52358448505402,1.07242286205292,-0.74786514043808,0.22520604729652
400,4116716917,0.633586,0.381793,-0.572597,0.353472,9.86030960083008,0.73797506093979,0.51633834838867,1.55381369590759,-0.78212225437164,0.00667851185426
401,4116733584,0.633464,0.381949,-0.572612,0.353497,9.85181236267090,0.75686299800873,0.51840049028397,2.14617109298706,-0.92365789413452,0.17040768265724
402,4116750251,0.633335,0.382107,-0.572648,0.353499,9.84360218048096,0.74871170520782,0.50800192356110,2.01289582252502,-1.11444711685181,0.12735274434090
403,4116766918,0.633230,0.382230,-0.572702,0.353467,9.86360168457031,0.72934275865555,0.49951404333115,1.62861537933350,-1.09937381744385,0.11011539399624
404,4116783585,0.633140,0.382336,-0.572751,0.353434,9.85985183715820,0.75962901115417,0.51260662078857,1.53962397575378,-0.98865002393723,0.12498354911804
405,4116800252,0.633036,0.382440,-0.572815,0.353406,9.88317871093750,0.77498060464859,0.51024740934372,1.53345155715942,-1.08203411102295,0.22510361671448
406,4116816919,0.632943,0.382523,-0.572864,0.353400,9.89363670349121,0.77923148870468,0.51074457168579,1.51625263690948,-0.86836022138596,0.33730006217957
407,4116833586,0.632813,0.382665,-0.572891,0.353438,9.85503196716309,0.76944267749786,0.45309513807297,2.10830330848694,-0.94314932823181,0.32591521739960
408,4116850253,0.632768,0.382707,-0.572931,0.353405,9.85744953155518,0.82079601287842,0.54729795455933,1.14156436920166,-0.61309117078781,0.23929303884506
409,4116866920,0.632675,0.382783,-0.573016,0.353354,9.83641910552979,0.76086652278900,0.44451433420181,1.24342608451843,-1.12211799621582,0.26776158809662
410,4116883587,0.632561,0.382854,-0.573147,0.353267,9.86943721771240,0.77209848165512,0.57400864362717,1.04292976856232,-1.48894286155701,0.29865044355392
411,4116900254,0.632423,0.383053,-0.573148,0.353297,9.84352684020996,0.78315526247025,0.50218033790588,2.39740633964539,-1.02179300785065,0.02250715903938
412,4116916921,0.632242,0.383230,-0.573243,0.353276,9.87262058258057,0.81220501661301,0.50948590040207,2.02521538734436,-1.68466246128082,0.23449066281319
413,4116933588,0.632123,0.383340,-0.573319,0.353245,9.87257671356201,0.80484926700592,0.51764613389969,1.55514538288116,-1.21653914451599,0.26016739010811
414,4116950255,0.632043,0.383379,-0.573430,0.353167,9.85888862609863,0.80402851104736,0.48085004091263,0.88352930545807,-1.16810560226440,0.32816910743713
415,4116966922,0.631992,0.383397,-0.573536,0.353067,9.87464904785156,0.81185853481293,0.51031917333603,0.63061666488647,-1.04033648967743,0.23437540233135
416,4116983589,0.631956,0.383419,-0.573627,0.352959,9.85993194580078,0.80400472879410,0.54935711622238,0.59737145900726,-0.94694000482559,0.10830971598625
417,4117000256,0.631909,0.383450,-0.573679,0.352925,9.89181900024414,0.77977722883224,0.52740210294724,1.06914448738098,-0.64100903272629,0.31397968530655
418,4117016923,0.631850,0.383497,-0.573721,0.352911,9.87866020202637,0.74493604898453,0.49207255244255,1.27031946182251,-0.64170062541962,0.34901785850525
419,4117033590,0.631765,0.383577,-0.573766,0.352903,9.87654685974121,0.77504575252533,0.45486187934875,1.51271796226501,-0.81064194440842,0.30930536985397
420,4117050257,0.631721,0.383644,-0.573800,0.352854,9.86837768554688,0.78703057765961,0.46284309029579,1.21149992942810,-0.68681734800339,0.04960539564490
421,4117066924,0.631680,0.383631,-0.573908,0.352766,9.87253665924072,0.79078519344330,0.50249493122101,0.51816409826279,-0.90118277072906,0.39047199487686
422,4117083591,0.631612,0.383671,-0.573980,0.352727,9.86906528472900,0.76874691247940,0.45261937379837,1.09538471698761,-0.84909933805466,0.36839386820793
423,4117100258,0.631510,0.383763,-0.574038,0.352713,9.88119602203369,0.78300166130066,0.46192008256912,1.55129051208496,-0.98494905233383,0.31025296449661
424,4117116925,0.631397,0.383872,-0.574092,0.352710,9.87037467956543,0.77942442893982,0.44437119364738,1.69410705566406,-1.01824569702148,0.30976638197899
425,4117133592,0.631306,0.383954,-0.574150,0.352691,9.86875343322754,0.79342299699783,0.45009407401085,1.42011547088623,-0.93769383430481,0.30368342995644
426,4117150259,0.631231,0.384005,-0.574216,0.352662,9.86768150329590,0.78286337852478,0.47161892056465,1.21655845642090,-0.85136616230011,0.36679309606552
427,4117166926,0.631168,0.384045,-0.574282,0.352623,9.88305282592773,0.77164095640182,0.48787114024162,1.09067201614380,-0.80441808700562,0.33327886462212
428,4117183593,0.631114,0.384092,-0.574334,0.352584,9.87369441986084,0.77758324146271,0.48056951165199,1.15232169628143,-0.72829705476761,0.24823185801506
429,4117200260,0.631051,0.384135,-0.574384,0.352568,9.87273883819580,0.78551489114761,0.47259005904198,1.22128391265869,-0.68385905027390,0.38542631268501
430,4117216927,0.631008,0.384145,-0.574423,0.352571,9.88538742065430,0.77914810180664,0.45911064743996,1.16232347488403,-0.42421033978462,0.51407891511917
431,4117233594,0.630953,0.384121,-0.574497,0.352573,9.85600566864014,0.75956606864929,0.46344187855721,0.91254848241806,-0.54616528749466,0.76595425605774
432,4117250261,0.630909,0.384084,-0.574567,0.352578,9.85276699066162,0.78120261430740,0.43942308425903,0.87605041265488,-0.44366315007210,0.79782915115356
433,4117266928,0.630861,0.384077,-0.574614,0.352597,9.86327171325684,0.80065989494324,0.44799584150314,1.09453940391541,-0.40068504214287,0.68122738599777
434,4117283595,0.630823,0.384100,-0.574658,0.352567,9.86552906036377,0.76965719461441,0.43667590618134,1.03911364078522,-0.54653656482697,0.32409667968750
435,4117300262,0.630786,0.384108,-0.574711,0.352539,9.86588096618652,0.77182435989380,0.46648469567299,0.97135514020920,-0.53886550664902,0.41053950786591
436,4117316929,0.630746,0.384123,-0.574748,0.352532,9.87444782257080,0.78804033994675,0.43952274322510,1.11823117733002,-0.44230568408966,0.44332379102707
437,4117333596,0.630728,0.384134,-0.574786,0.352492,9.87542819976807,0.78800398111343,0.43123671412468,0.96735960245132,-0.43654280900955,0.26359948515892
438,4117350263,0.630737,0.384067,-0.574865,0.352421,9.85628128051758,0.78622204065323,0.47669056057930,0.25297021865845,-0.40220901370049,0.48065423965454
439,4117366930,0.630546,0.384242,-0.574883,0.352542,9.84087085723877,0.75289738178253,0.25102695822716,2.76794552803040,-1.00656652450562,0.67695015668869
440,4117383597,0.630431,0.384341,-0.574999,0.352452,9.88935661315918,0.83457493782043,0.63759499788284,1.16187524795532,-1.50904893875122,0.14218248426914
441,4117400264,0.630504,0.384283,-0.575003,0.352377,9.90335083007812,0.71839582920074,0.41047713160515,0.31550365686417,0.14515358209610,0.07004432380199
442,4117416931,0.630568,0.384045,-0.575186,0.352223,9.82614135742188,0.78483444452286,0.38411512970924,-1.18146264553070,-0.44511032104492,0.93843001127243
443,4117433598,0.630593,0.383958,-0.575270,0.352135,9.82994556427002,0.74698030948639,0.38763940334320,0.06382045149803,-0.35608056187630,0.46150878071785
444,4117450265,0.630444,0.383895,-0.575498,0.352099,9.87980842590332,0.73323905467987,0.41715672612190,0.50724029541016,-1.59175240993500,1.39493823051453
445,4117466932,0.630267,0.383955,-0.575598,0.352187,9.91203308105469,0.79914969205856,0.44898170232773,1.88151538372040,-1.11540746688843,1.16877794265747
446,4117483599,0.630070,0.384107,-0.575697,0.352212,9.86580657958984,0.76381742954254,0.44214293360710,2.13803911209106,-1.57624387741089,0.58525657653809
447,4117500266,0.629921,0.384215,-0.575791,0.352207,9.91170310974121,0.77771538496017,0.48129960894585,1.69131553173065,-1.34003078937531,0.49311491847038
448,4117516933,0.629855,0.384202,-0.575894,0.352170,9.91223526000977,0.77331936359406,0.43861413002014,0.76929664611816,-0.84765237569809,0.65599888563156
449,4117533600,0.629820,0.384141,-0.575988,0.352147,9.89170360565186,0.76983749866486,0.41945937275887,0.58703666925430,-0.53201419115067,0.81566846370697
450,4117550267,0.629768,0.384180,-0.576010,0.352161,9.86297988891602,0.78225898742676,0.39948260784149,1.37300086021423,-0.42969143390656,0.42652192711830
451,4117566934,0.629679,0.384304,-0.575997,0.352205,9.86253547668457,0.74197149276733,0.40114861726761,2.01700663566589,-0.55017364025116,0.21120874583721
452,4117583601,0.629582,0.384397,-0.576002,0.352269,9.85705852508545,0.74274915456772,0.38243636488914,1.95950591564178,-0.53197574615479,0.49121952056885
453,4117600268,0.629509,0.384426,-0.576066,0.352263,9.85820579528809,0.76119995117188,0.40037694573402,1.19095849990845,-0.72293126583099,0.54508304595947
454,4117616935,0.629471,0.384389,-0.576155,0.352225,9.89479827880859,0.77676999568939,0.42020481824875,0.68258482217789,-0.61808568239212,0.64282113313675
455,4117633602,0.629454,0.384368,-0.576208,0.352194,9.90727233886719,0.77773869037628,0.43857875466347,0.76596695184708,-0.39585706591606,0.47111359238625
456,4117650269,0.629470,0.384348,-0.576212,0.352179,9.88831615447998,0.76513957977295,0.42673891782761,0.90501832962036,-0.01429188624024,0.32305938005447
457,4117666936,0.629496,0.384364,-0.576169,0.352185,9.90458011627197,0.75346553325653,0.40899223089218,1.20960462093353,0.19846640527248,0.12369013577700
458,4117683603,0.629485,0.384449,-0.576069,0.352275,9.85918903350830,0.69798338413239,0.30600562691689,2.02855753898621,0.34734019637108,0.14784289896488
459,4117700270,0.629442,0.384524,-0.576029,0.352337,9.82192230224609,0.78657919168472,0.39278659224510,1.85480129718781,-0.08568728715181,0.30300462245941
460,4117716937,0.629412,0.384507,-0.576110,0.352276,9.84314727783203,0.74782913923264,0.44693186879158,0.63826209306717,-0.65941178798676,0.43123465776443
461,4117733604,0.629399,0.384480,-0.576135,0.352287,9.88778305053711,0.76392084360123,0.41841116547585,0.96317195892334,-0.13641323149204,0.58825320005417
462,4117750271,0.629364,0.384548,-0.576097,0.352338,9.85426998138428,0.78785222768784,0.38812908530235,1.75884342193604,-0.07578797638416,0.26626327633858
463,4117766938,0.629303,0.384671,-0.576054,0.352383,9.86054325103760,0.75475728511810,0.43019765615463,2.03529405593872,-0.30098763108253,0.07976435124874
464,4117783605,0.629273,0.384702,-0.576064,0.352387,9.88109207153320,0.79177194833755,0.41267216205597,1.28664755821228,-0.30027049779892,0.32939851284027
465,4117800272,0.629280,0.384662,-0.576084,0.352387,9.89256858825684,0.76015889644623,0.39804384112358,0.86802083253860,-0.02778978087008,0.53332686424255
466,4117816939,0.629296,0.384613,-0.576102,0.352380,9.90554904937744,0.76897317171097,0.42210528254509,0.75522243976593,0.01537402439862,0.50914847850800
467,4117833606,0.629317,0.384594,-0.576089,0.352386,9.88875198364258,0.77089250087738,0.43099528551102,0.99755692481995,0.13262896239758,0.35137420892715
468,4117850273,0.629341,0.384578,-0.576070,0.352391,9.87217235565186,0.74956661462784,0.43872979283333,0.99009090662003,0.15935581922531,0.31289109587669
469,4117866940,0.629387,0.384533,-0.576049,0.352393,9.87985515594482,0.75144475698471,0.43865847587585,0.83307218551636,0.31718125939369,0.35306462645531
470,4117883607,0.629411,0.384496,-0.576053,0.352383,9.85970211029053,0.74119752645493,0.43013235926628,0.79125946760178,0.06945523619652,0.39989745616913
471,4117900274,0.629413,0.384462,-0.576056,0.352410,9.86756134033203,0.77308696508408,0.38666313886642,1.01977598667145,0.07990521937609,0.58497482538223
472,4117916941,0.629436,0.384432,-0.576052,0.352411,9.85119438171387,0.76757335662842,0.39620372653008,0.89025270938873,0.11349628120661,0.39688801765442
473,4117933608,0.629438,0.384399,-0.576081,0.352395,9.85623359680176,0.75537401437759,0.37703827023506,0.75638777017593,-0.15365058183670,0.46396759152412
474,4117950275,0.629419,0.384389,-0.576113,0.352388,9.87797451019287,0.76823425292969,0.39040511846542,0.99660933017731,-0.27693730592728,0.47681242227554
475,4117966942,0.629354,0.384448,-0.576129,0.352412,9.89459800720215,0.75747454166412,0.41393661499023,1.56604385375977,-0.47283607721329,0.40500724315643
476,4117983609,0.629301,0.384518,-0.576135,0.352420,9.87591552734375,0.76671236753464,0.40564009547234,1.53539800643921,-0.45648235082626,0.23536148667336
477,4118000276,0.629266,0.384541,-0.576153,0.352429,9.87573528289795,0.76374399662018,0.42005372047424,1.25776934623718,-0.31607350707054,0.41543155908585
478,4118016943,0.629256,0.384539,-0.576174,0.352416,9.87186431884766,0.75663316249847,0.39959740638733,0.99394559860229,-0.23121866583824,0.37413108348846
479,4118033610,0.629244,0.384526,-0.576202,0.352406,9.85694408416748,0.79185891151428,0.42428839206696,0.92258864641190,-0.23684065043926,0.44415625929832
480,4118050277,0.629226,0.384548,-0.576218,0.352387,9.87341403961182,0.77644211053848,0.37686026096344,1.11737322807312,-0.31166809797287,0.25651758909225
481,4118066944,0.629205,0.384559,-0.576234,0.352385,9.87163257598877,0.77133631706238,0.43085506558418,1.12355864048004,-0.25150391459465,0.37738394737244
482,4118083611,0.629189,0.384584,-0.576231,0.352392,9.86501979827881,0.76485472917557,0.37464192509651,1.25359439849854,-0.16631606221199,0.29150456190109
483,4118100278,0.629168,0.384603,-0.576237,0.352399,9.87633514404297,0.77110528945923,0.38547250628471,1.20289409160614,-0.20566998422146,0.35542103648186
484,4118116945,0.629153,0.384612,-0.576238,0.352415,9.89714908599854,0.76233071088791,0.43743059039116,1.21046912670135,-0.11651217937469,0.41315847635269
485,4118133612,0.629158,0.384619,-0.576217,0.352431,9.88724708557129,0.76601099967957,0.41499108076096,1.20642864704132,0.06933998316526,0.31344181299210
486,4118150279,0.629168,0.384631,-0.576201,0.352429,9.89256572723389,0.76679861545563,0.40670567750931,1.11857700347900,0.00078759039752,0.21123433113098
487,4118166946,0.629169,0.384635,-0.576181,0.352454,9.85509109497070,0.76642119884491,0.40039303898811,1.19308435916901,0.07663960009813,0.36639606952667
488,4118183613,0.629170,0.384643,-0.576177,0.352450,9.86703300476074,0.74843001365662,0.39812424778938,1.10691034793854,-0.08069280534983,0.27769926190376
489,4118200280,0.629184,0.384616,-0.576191,0.352432,9.86834335327148,0.75693345069885,0.41973444819450,0.83258563280106,-0.05606619641185,0.36958482861519
490,4118216947,0.629188,0.384565,-0.576218,0.352436,9.89832305908203,0.78785222768784,0.42111504077911,0.79987829923630,-0.03379596024752,0.61459600925446
491,4118233614,0.629227,0.384532,-0.576201,0.352430,9.88246345520020,0.76313048601151,0.42464956641197,0.84749215841293,0.22010913491249,0.30332478880882
492,4118250281,0.629277,0.384479,-0.576195,0.352408,9.88659286499023,0.77057611942291,0.43287485837936,0.64239853620529,0.22624337673187,0.31686106324196
493,4118266948,0.629316,0.384421,-0.576208,0.352382,9.87749862670898,0.75790560245514,0.42061561346054,0.59301716089249,0.09858968108892,0.39031827449799
494,4118283615,0.629154,0.384619,-0.576160,0.352533,9.83646106719971,0.76550716161728,0.22943083941936,3.08144474029541,-0.58714550733566,0.47376453876495
495,4118300282,0.629133,0.384691,-0.576199,0.352427,9.92453384399414,0.77162688970566,0.63980346918106,0.93102812767029,-0.77273523807526,-0.25396272540092
496,4118316949,0.629277,0.384576,-0.576166,0.352350,9.84040260314941,0.71467643976212,0.30967810750008,-0.03649809584022,0.71777671575546,0.02175158634782
497,4118333616,0.629354,0.384406,-0.576265,0.352237,9.86667728424072,0.77799314260483,0.39049679040909,-0.56287741661072,-0.08454751223326,0.59173655509949
498,4118350283,0.629380,0.384333,-0.576322,0.352176,9.81168556213379,0.70077210664749,0.38842976093292,0.29179909825325,-0.19863930344582,0.44845917820930
499,4118366950,0.629233,0.384302,-0.576467,0.352236,9.90443229675293,0.76804542541504,0.42749238014221,1.18946015834808,-1.04572808742523,1.45843195915222
500,4118383617,0.629128,0.384409,-0.576459,0.352318,9.89095687866211,0.78637242317200,0.38153517246246,2.14845085144043,-0.49646377563477,0.50015842914581
501,4118400284,0.628995,0.384561,-0.576492,0.352338,9.87743473052979,0.74137789011002,0.38121631741524,2.07033205032349,-1.05652379989624,0.22616653144360
502,4118416951,0.628904,0.384681,-0.576502,0.352353,9.89320182800293,0.78766584396362,0.42197930812836,1.86806845664978,-0.72340506315231,0.17802746593952
503,4118433618,0.628875,0.384701,-0.576528,0.352338,9.90559482574463,0.74257570505142,0.42677706480026,1.11937105655670,-0.38430574536324,0.32910400629044
504,4118450285,0.628878,0.384676,-0.576536,0.352348,9.87624835968018,0.75028622150421,0.36542874574661,0.99340778589249,-0.00439257826656,0.49530482292175
505,4118466952,0.628846,0.384750,-0.576509,0.352368,9.85841178894043,0.77276754379272,0.37621548771858,1.61159586906433,-0.20624624192715,0.13032381236553
506,4118483619,0.628797,0.384884,-0.576440,0.352423,9.85145950317383,0.73541569709778,0.36940115690231,2.15172934532166,-0.14957816898823,-0.02152747474611
507,4118500286,0.628728,0.384991,-0.576415,0.352470,9.83566474914551,0.74866795539856,0.38131335377693,1.96748423576355,-0.37326669692993,0.21832904219627
508,4118516953,0.628693,0.385054,-0.576429,0.352442,9.85981941223145,0.77980387210846,0.35959973931313,1.27715802192688,-0.49428665637970,0.08552721142769
509,4118533620,0.628676,0.385045,-0.576478,0.352400,9.88532733917236,0.77205461263657,0.40959754586220,0.82989633083344,-0.43373829126358,0.36330977082253
510,4118550287,0.628679,0.385026,-0.576497,0.352386,9.89838123321533,0.78168922662735,0.40650624036789,0.87501305341721,-0.13427457213402,0.39946204423904
511,4118566954,0.628698,0.385039,-0.576478,0.352367,9.91289901733398,0.76919907331467,0.40568345785141,1.05588984489441,0.00780546991155,0.10075394809246
512,4118583621,0.628719,0.385054,-0.576433,0.352388,9.89630985260010,0.75131982564926,0.38114640116692,1.27143359184265,0.22103117406368,0.20106609165668
513,4118600288,0.628702,0.385139,-0.576354,0.352454,9.84742641448975,0.76305258274078,0.36211463809013,1.90892076492310,0.17325067520142,0.11321452260017
514,4118616955,0.628695,0.385214,-0.576280,0.352506,9.84163379669189,0.76579946279526,0.35418280959129,1.82941901683807,0.17738714814186,0.08884404599667
515,4118633622,0.628695,0.385183,-0.576340,0.352441,9.87262439727783,0.74034285545349,0.43343275785446,0.57633054256439,-0.42123919725418,0.33819648623466
516,4118650289,0.628711,0.385190,-0.576303,0.352464,9.87658500671387,0.77388995885849,0.37990111112595,1.23849570751190,0.19637897610664,0.26966971158981
517,4118666956,0.628664,0.385289,-0.576267,0.352499,9.84337902069092,0.79136472940445,0.39719858765602,1.83340191841125,-0.24855843186378,0.11058922857046
518,4118683623,0.628602,0.385403,-0.576227,0.352552,9.88299846649170,0.77385228872299,0.42902010679245,2.05082798004150,-0.28074079751968,0.16510586440563
519,4118700290,0.628569,0.385421,-0.576250,0.352552,9.88236331939697,0.77985858917236,0.43560808897018,1.25597643852234,-0.33921456336975,0.40379059314728
520,4118716957,0.628589,0.385386,-0.576270,0.352522,9.89016914367676,0.76913857460022,0.40570610761642,0.71008002758026,-0.06973057240248,0.34895381331444
521,4118733624,0.628637,0.385325,-0.576288,0.352475,9.88312435150146,0.77985996007919,0.41584852337837,0.45620697736740,0.06526756286621,0.30755087733269
522,4118750291,0.628676,0.385293,-0.576277,0.352459,9.86336612701416,0.76767945289612,0.39574334025383,0.75491511821747,0.16720610857010,0.26837626099586
523,4118766958,0.628723,0.385259,-0.576250,0.352455,9.87764072418213,0.75045806169510,0.41802638769150,0.87501305341721,0.30515611171722,0.27000266313553
524,4118783625,0.628762,0.385208,-0.576243,0.352453,9.84217166900635,0.73814803361893,0.37847414612770,0.76213788986206,0.23201905190945,0.41545721888542
525,4118800292,0.628772,0.385165,-0.576269,0.352440,9.85450744628906,0.76724666357040,0.39805331826210,0.67318499088287,-0.07481469959021,0.49475410580635
526,4118816959,0.628776,0.385153,-0.576277,0.352434,9.85721492767334,0.77359038591385,0.37483918666840,0.95702487230301,-0.07870782166719,0.36567884683609
527,4118833626,0.628783,0.385149,-0.576293,0.352398,9.86388778686523,0.76767891645432,0.39843231439590,0.84080731868744,-0.19730743765831,0.21978899836540
528,4118850293,0.628786,0.385136,-0.576324,0.352357,9.89696121215820,0.76692497730255,0.39869371056557,0.75187999010086,-0.27111041545868,0.28718876838684
529,4118866960,0.628777,0.385134,-0.576339,0.352350,9.88491535186768,0.76053553819656,0.39180573821068,1.09395027160645,-0.17711180448532,0.37591120600700
530,4118883627,0.628750,0.385194,-0.576329,0.352349,9.88289546966553,0.75869101285934,0.39588078856468,1.40592598915100,-0.28658050298691,0.13850708305836
531,4118900294,0.628722,0.385249,-0.576329,0.352340,9.87450408935547,0.76508957147598,0.37457281351089,1.39523279666901,-0.33601301908493,0.14578108489513
532,4118916961,0.628692,0.385300,-0.576325,0.352344,9.86854934692383,0.76725286245346,0.37471336126328,1.39858782291412,-0.28350698947906,0.21621599793434
533,4118933628,0.628676,0.385327,-0.576325,0.352342,9.86341857910156,0.76865923404694,0.38505589962006,1.23060715198517,-0.20654082298279,0.25490400195122
534,4118950295,0.628658,0.385356,-0.576334,0.352329,9.88192749023438,0.76861310005188,0.38210269808769,1.14808285236359,-0.28341734409332,0.23406808078289
535,4118966962,0.628655,0.385363,-0.576340,0.352317,9.86498737335205,0.78386563062668,0.39105468988419,1.08051645755768,-0.15704426169395,0.28101614117622
536,4118983629,0.628642,0.385383,-0.576340,0.352318,9.88797187805176,0.75608164072037,0.38911023736000,1.22338414192200,-0.16445913910866,0.29570502042770
537,4119000296,0.628638,0.385404,-0.576325,0.352327,9.87896251678467,0.75577300786972,0.37409356236458,1.27996253967285,-0.04322142899036,0.26073086261749
538,4119016963,0.628639,0.385443,-0.576299,0.352324,9.88064002990723,0.76064950227737,0.37421011924744,1.28991329669952,-0.06126558408141,0.09837198257446
539,4119033630,0.628629,0.385479,-0.576282,0.352330,9.88724422454834,0.76353049278259,0.39282372593880,1.32014894485474,-0.10471752285957,0.19520078599453
540,4119050297,0.628640,0.385500,-0.576257,0.352330,9.87786579132080,0.76207184791565,0.40312477946281,1.19391691684723,0.03331572189927,0.16436310112476
541,4119066964,0.628661,0.385512,-0.576235,0.352314,9.89465904235840,0.75630158185959,0.40597575902939,1.07239735126495,0.03537754341960,0.11280474066734
542,4119083631,0.628677,0.385510,-0.576219,0.352314,9.87269020080566,0.77345025539398,0.38679790496826,1.06691622734070,0.06579262763262,0.26080772280693
543,4119100298,0.628703,0.385511,-0.576194,0.352308,9.84060478210449,0.76368337869644,0.36998921632767,1.07279419898987,0.12481708079576,0.17935934662819
544,4119116965,0.628723,0.385519,-0.576180,0.352287,9.86029911041260,0.74267566204071,0.39358478784561,0.95365697145462,-0.00272775278427,0.12433046847582
545,4119133632,0.628727,0.385506,-0.576194,0.352269,9.87754058837891,0.76260143518448,0.40282359719276,0.90740036964417,-0.13463316857815,0.33960521221161
546,4119150299,0.628735,0.385497,-0.576186,0.352279,9.88700294494629,0.77443653345108,0.41049426794052,1.04035580158234,0.04019272327423,0.36701074242592
547,4119166966,0.628782,0.385468,-0.576163,0.352265,9.88759136199951,0.77251249551773,0.40409857034683,0.82837229967117,0.24628530442715,0.21826501190662
548,4119183633,0.628855,0.385385,-0.576161,0.352228,9.86899471282959,0.78954076766968,0.43596112728119,0.39527440071106,0.33341971039772,0.32766965031624
549,4119200300,0.628724,0.385549,-0.576098,0.352386,9.86574268341064,0.76274073123932,0.18631987273693,2.90297532081604,-0.29642859101295,0.51843303442001
550,4119216967,0.628700,0.385624,-0.576135,0.352287,9.88672447204590,0.80489248037338,0.61114263534546,1.00123238563538,-0.76419329643250,-0.23594419658184
551,4119233634,0.628842,0.385531,-0.576079,0.352225,9.86752510070801,0.71828836202621,0.28962630033493,0.18799081444740,0.79310357570648,-0.05306950956583
552,4119250301,0.628938,0.385315,-0.576204,0.352087,9.82093429565430,0.80148196220398,0.39156401157379,-0.97652250528336,-0.07314986735582,0.69081932306290
553,4119266968,0.628999,0.385216,-0.576228,0.352046,9.83065509796143,0.75347459316254,0.35489171743393,0.25886112451553,0.19963178038597,0.46441584825516
554,4119283635,0.628862,0.385179,-0.576374,0.352095,9.87820911407471,0.78202241659164,0.40439674258232,1.10300457477570,-1.02646732330322,1.41686260700226
555,4119300302,0.628737,0.385308,-0.576358,0.352201,9.89512443542480,0.78918725252151,0.40999320149422,2.39735531806946,-0.53475475311279,0.53958916664124
556,4119316969,0.628618,0.385466,-0.576372,0.352217,9.86428356170654,0.75434178113937,0.38653749227524,2.14654278755188,-0.93825721740723,0.11028189212084
557,4119333636,0.628518,0.385572,-0.576410,0.352218,9.89549350738525,0.78785276412964,0.43582993745804,1.71833682060242,-0.87927114963531,0.25866904854774
558,4119350303,0.628484,0.385593,-0.576444,0.352200,9.89994239807129,0.77096629142761,0.39512649178505,1.09899616241455,-0.45173120498657,0.35234749317169
559,4119366970,0.628483,0.385599,-0.576452,0.352181,9.88320827484131,0.76198303699493,0.37286663055420,0.99587935209274,-0.17428159713745,0.25425085425377
560,4119383637,0.628472,0.385644,-0.576431,0.352186,9.86143016815186,0.75218027830124,0.34545895457268,1.35914421081543,-0.12565590441227,0.14754836261272
561,4119400304,0.628411,0.385742,-0.576402,0.352236,9.84668540954590,0.75071698427200,0.36160016059875,1.91656625270844,-0.28677257895470,0.23747453093529
562,4119416971,0.628351,0.385812,-0.576388,0.352289,9.83882331848145,0.76347219944000,0.34411054849625,1.77576041221619,-0.27925521135330,0.39363515377045
563,4119433638,0.628318,0.385825,-0.576419,0.352283,9.83959293365479,0.77127850055695,0.34587451815605,1.12363564968109,-0.37701895833015,0.42332026362419
564,4119450305,0.628308,0.385773,-0.576502,0.352223,9.88033008575439,0.78668397665024,0.39111417531967,0.43526858091354,-0.50359690189362,0.52436238527298
565,4119466972,0.628311,0.385721,-0.576557,0.352182,9.89115619659424,0.79911422729492,0.39112621545792,0.53801393508911,-0.28015169501305,0.50656151771545
566,4119483639,0.628329,0.385704,-0.576564,0.352158,9.90638351440430,0.78359776735306,0.41454231739044,0.82605433464050,-0.05438856408000,0.27577835321426
567,4119500306,0.628382,0.385686,-0.576526,0.352146,9.91098403930664,0.75561493635178,0.37001833319664,0.90788692235947,0.31892290711403,0.12261439859867
568,4119516973,0.628399,0.385691,-0.576495,0.352160,9.84206104278564,0.78927659988403,0.37605515122414,1.17731976509094,0.15657681226730,0.25674808025360
569,4119533640,0.628434,0.385659,-0.576464,0.352184,9.84911918640137,0.77596086263657,0.35584846138954,0.99946510791779,0.34376722574234,0.39565852284431
570,4119550307,0.628442,0.385558,-0.576570,0.352107,9.84924316406250,0.74665129184723,0.41759729385376,0.09052168577909,-0.45297339558601,0.67036753892899
571,4119566974,0.628454,0.385531,-0.576571,0.352114,9.87700176239014,0.76557964086533,0.38304340839386,0.93889105319977,0.05526579916477,0.44370797276497
572,4119583641,0.628396,0.385598,-0.576579,0.352129,9.84471607208252,0.79128283262253,0.39304998517036,1.53418147563934,-0.46300080418587,0.29655024409294
573,4119600308,0.628360,0.385672,-0.576552,0.352158,9.88428878784180,0.77193498611450,0.37895897030830,1.67639613151550,-0.19550174474716,0.18394403159618
574,4119616975,0.628343,0.385634,-0.576607,0.352139,9.88196945190430,0.78956204652786,0.40887513756752,0.72580623626709,-0.33292666077614,0.59162133932114
575,4119633642,0.628376,0.385533,-0.576667,0.352094,9.90026855468750,0.78163015842438,0.39516732096672,0.19189675152302,-0.07823398709297,0.61873239278793
576,4119650309,0.628438,0.385437,-0.576696,0.352040,9.89992141723633,0.79513049125671,0.39246347546577,0.19613564014435,0.13588176667690,0.40849050879478
577,4119666976,0.628497,0.385385,-0.576677,0.352023,9.86671638488770,0.77580094337463,0.41248333454132,0.64799487590790,0.32436561584473,0.27595761418343
578,4119683643,0.628548,0.385338,-0.576657,0.352016,9.86447525024414,0.75378382205963,0.40950328111649,0.76517295837402,0.31296795606613,0.32230380177498
579,4119700310,0.628605,0.385249,-0.576665,0.351999,9.84566020965576,0.75024181604385,0.37467566132545,0.44083929061890,0.29281073808670,0.49707198143005
580,4119716977,0.628642,0.385156,-0.576698,0.351978,9.85946750640869,0.78003174066544,0.34764632582664,0.42757198214531,0.10627348721027,0.61002403497696
581,4119733644,0.628651,0.385108,-0.576723,0.351976,9.86078929901123,0.77683943510056,0.38019400835037,0.76628708839417,-0.03389840573072,0.56159043312073
582,4119750311,0.628658,0.385103,-0.576725,0.351966,9.88043594360352,0.78452509641647,0.37883877754211,0.96595096588135,-0.06455681473017,0.29911151528358
583,4119766978,0.628670,0.385110,-0.576714,0.351954,9.87486171722412,0.76936924457550,0.38298746943474,1.03460574150085,-0.02301300875843,0.20016965270042
584,4119783645,0.628675,0.385116,-0.576699,0.351964,9.88188743591309,0.76207339763641,0.38444679975510,1.16274607181549,0.02141861990094,0.30454137921333
585,4119800312,0.628674,0.385118,-0.576696,0.351967,9.87995433807373,0.76569628715515,0.38040778040886,1.11842346191406,-0.05374825373292,0.33653163909912
586,4119816979,0.628681,0.385111,-0.576697,0.351960,9.86318206787109,0.77042031288147,0.39191299676895,1.00780212879181,-0.05189133062959,0.31627202033997
587,4119833646,0.628696,0.385097,-0.576704,0.351938,9.88899707794189,0.77536296844482,0.38996928930283,0.85191035270691,-0.06679791957140,0.28141310811043
588,4119850313,0.628708,0.385111,-0.576688,0.351927,9.88192653656006,0.77016925811768,0.40050703287125,1.07069408893585,-0.01762153580785,0.15457904338837
589,4119866980,0.628722,0.385124,-0.576676,0.351908,9.87432861328125,0.77210545539856,0.38205406069756,1.03739750385284,-0.04273478686810,0.14175988733768
590,4119883647,0.628734,0.385134,-0.576665,0.351893,9.87051296234131,0.76769977807999,0.37334460020065,1.05404579639435,-0.04159501940012,0.17182919383049
591,4119900314,0.628747,0.385150,-0.576642,0.351891,9.88891792297363,0.76278352737427,0.37420284748077,1.16009521484375,0.03546718508005,0.17521005868912
592,4119916981,0.628770,0.385169,-0.576609,0.351885,9.87341117858887,0.75323027372360,0.39315888285637,1.15463972091675,0.10332804173231,0.08746096491814
593,4119933648,0.628782,0.385184,-0.576581,0.351890,9.88743591308594,0.75457912683487,0.40234875679016,1.17178750038147,0.07470583915710,0.19570024311543
594,4119950315,0.628799,0.385208,-0.576542,0.351898,9.89373397827148,0.76530283689499,0.40381079912186,1.26453101634979,0.12932492792606,0.13684226572514
595,4119966982,0.628814,0.385213,-0.576513,0.351913,9.88653850555420,0.75326490402222,0.39227688312531,1.16396260261536,0.13895530998707,0.25906604528427
596,4119983649,0.628851,0.385198,-0.576478,0.351921,9.87107276916504,0.78571975231171,0.39879620075226,1.01820087432861,0.28277057409286,0.25061386823654
597,4120000316,0.628885,0.385188,-0.576442,0.351929,9.87449264526367,0.76601356267929,0.39990705251694,1.06635272502899,0.26902940869331,0.23497731983662
598,4120016983,0.628916,0.385179,-0.576400,0.351954,9.87647247314453,0.78927898406982,0.38467249274254,1.14490699768066,0.32045969367027,0.29433476924896
599,4120033650,0.628959,0.385181,-0.576347,0.351960,9.87391376495361,0.76698291301727,0.35945019125938,1.11956322193146,0.33954116702080,0.10608140379190
600,4120050317,0.629000,0.385167,-0.576316,0.351953,9.86840248107910,0.75238907337189,0.40216612815857,0.93227022886276,0.24296845495701,0.18358542025089
601,4120066984,0.629028,0.385131,-0.576299,0.351971,9.88813686370850,0.79777657985687,0.41318801045418,0.90325099229813,0.23889602720737,0.44095462560654
602,4120083651,0.629091,0.385085,-0.576260,0.351971,9.89019584655762,0.78556036949158,0.39647150039673,0.80117166042328,0.46232846379280,0.26014178991318
603,4120100318,0.629195,0.385008,-0.576212,0.351951,9.87377834320068,0.79633581638336,0.40919813513756,0.49598354101181,0.68472361564636,0.17885990440845
604,4120116985,0.629205,0.385008,-0.576166,0.352007,9.89427566528320,0.77761566638947,0.33662912249565,1.37944233417511,0.31313446164131,0.42967221140862
605,4120133652,0.629099,0.385225,-0.576066,0.352123,9.82376480102539,0.80039685964584,0.34493896365166,2.99670529365540,-0.27381256222725,-0.03055594861507
606,4120150319,0.629155,0.385236,-0.576058,0.352022,9.95422267913818,0.71910375356674,0.57701748609543,0.58775377273560,-0.11050596833229,-0.29952770471573
607,4120166986,0.629349,0.384991,-0.576067,0.351930,9.79374599456787,0.78382331132889,0.26124295592308,-0.88759523630142,1.00887787342072,0.46089416742325
608,4120183653,0.629473,0.384788,-0.576134,0.351821,9.87013244628906,0.75488722324371,0.39138606190681,-0.72601753473282,0.33589136600494,0.54352074861526
609,4120200320,0.629480,0.384645,-0.576252,0.351772,9.83345508575439,0.77369010448456,0.37450560927391,-0.06025387346745,-0.33876636624336,0.98929691314697
610,4120216987,0.629340,0.384707,-0.576293,0.351888,9.91621494293213,0.81953746080399,0.41956451535225,2.06935882568359,-0.64661824703217,1.03534853458405
611,4120233654,0.629244,0.384905,-0.576208,0.351980,9.84636497497559,0.78447777032852,0.36824610829353,2.73344492912292,-0.31901895999908,-0.04069858044386
612,4120250321,0.629119,0.385099,-0.576199,0.352008,9.88065147399902,0.77247148752213,0.40906262397766,2.37893939018250,-0.92135280370712,-0.02994124591351
613,4120266988,0.629048,0.385208,-0.576183,0.352042,9.92093467712402,0.79572415351868,0.44812154769897,1.89617836475372,-0.45941489934921,0.18024292588234
614,4120283655,0.629078,0.385211,-0.576129,0.352073,9.90515804290771,0.75852763652802,0.40513527393341,1.24226081371307,0.35426846146584,0.23656530678272
615,4120300322,0.629134,0.385221,-0.576051,0.352089,9.85431003570557,0.74813842773438,0.34277629852295,1.21949112415314,0.50297582149506,0.02437688782811
616,4120316989,0.629151,0.385305,-0.575940,0.352148,9.83164310455322,0.77213966846466,0.39554783701897,1.86811971664429,0.43775302171707,-0.07583919912577
617,4120333656,0.629130,0.385406,-0.575842,0.352237,9.84530162811279,0.76380991935730,0.37870636582375,2.14044713973999,0.25722193717957,0.11536598950624
618,4120350323,0.629123,0.385438,-0.575799,0.352282,9.85657119750977,0.79434645175934,0.37826269865036,1.51274371147156,0.12841568887234,0.30474632978439
619,4120366990,0.629159,0.385420,-0.575791,0.352252,9.86541461944580,0.79323494434357,0.39170557260513,0.80557703971863,0.07026202976704,0.16884531080723
620,4120383657,0.629190,0.385390,-0.575781,0.352245,9.88433933258057,0.78814429044724,0.42203044891357,0.85798054933548,0.15345206856728,0.32457050681114
621,4120400324,0.629233,0.385397,-0.575725,0.352253,9.88532161712646,0.80943500995636,0.42881304025650,1.08405113220215,0.34148770570755,0.08384957909584
622,4120416991,0.629299,0.385424,-0.575629,0.352263,9.91132736206055,0.77655714750290,0.39878997206688,1.28953540325165,0.56225001811981,-0.14334146678448
623,4120433658,0.629339,0.385502,-0.575488,0.352335,9.85910224914551,0.76134431362152,0.36561232805252,1.95051598548889,0.69892573356628,-0.12771771848202
624,4120450325,0.629437,0.385453,-0.575399,0.352360,9.84047985076904,0.80622035264969,0.42741504311562,0.92785209417343,0.89454269409180,0.16596391797066
625,4120466992,0.629493,0.385393,-0.575379,0.352358,9.83845424652100,0.74504089355469,0.34850308299065,0.71002882719040,0.37347796559334,0.37697413563728
626,4120483659,0.629522,0.385338,-0.575396,0.352338,9.89555168151855,0.78178405761719,0.48804819583893,0.62676197290421,0.05014326423407,0.43962281942368
627,4120500326,0.629583,0.385366,-0.575285,0.352380,9.80652999877930,0.79273271560669,0.38878092169762,1.45855987071991,0.69459718465805,-0.03406488895416
628,4120516993,0.629549,0.385425,-0.575255,0.352425,9.87571430206299,0.79560989141464,0.43466106057167,1.68346500396729,-0.09650863707066,0.29922676086426
629,4120533660,0.629569,0.385420,-0.575223,0.352448,9.86460590362549,0.82173532247543,0.44241949915886,1.19373750686646,0.22520604729652,0.32673481106758
630,4120550327,0.629636,0.385350,-0.575214,0.352419,9.88777732849121,0.78569275140762,0.41300544142723,0.50812393426895,0.32449370622635,0.30159595608711
631,4120566994,0.629737,0.385264,-0.575198,0.352358,9.88566684722900,0.80809766054153,0.41706445813179,0.23478521406651,0.44799813628197,0.12070625275373
632,4120583661,0.629825,0.385221,-0.575166,0.352300,9.87323951721191,0.78152287006378,0.41978237032890,0.49744337797165,0.36606305837631,-0.04103154316545
633,4120600328,0.629900,0.385165,-0.575131,0.352285,9.87707519531250,0.77307039499283,0.45017445087433,0.66568052768707,0.47380298376083,0.21946883201599
634,4120616995,0.629960,0.385090,-0.575117,0.352283,9.85157680511475,0.76920831203461,0.44085699319839,0.61646562814713,0.40349605679512,0.44081375002861
635,4120633662,0.630029,0.384994,-0.575122,0.352254,9.85788249969482,0.78174847364426,0.40879312157631,0.36227241158485,0.33575046062469,0.43647238612175
636,4120650329,0.630068,0.384918,-0.575146,0.352230,9.85769748687744,0.78593236207962,0.39357233047485,0.48642995953560,0.09652785956860,0.50522971153259
637,4120666996,0.630093,0.384878,-0.575155,0.352214,9.85967159271240,0.80413883924484,0.39027151465416,0.72870057821274,0.04882420971990,0.38851264119148
638,4120683663,0.630095,0.384886,-0.575162,0.352190,9.86670494079590,0.79263108968735,0.38833829760551,0.99297225475311,-0.17706058919430,0.21371875703335
639,4120700330,0.630081,0.384918,-0.575171,0.352165,9.86147308349609,0.78381407260895,0.36862057447433,1.13431608676910,-0.31471604108810,0.15806236863136
640,4120716997,0.630059,0.384932,-0.575193,0.352154,9.86349296569824,0.77009505033493,0.39356943964958,1.10547614097595,-0.31006735563278,0.34562420845032
641,4120733664,0.630035,0.384912,-0.575248,0.352129,9.85952854156494,0.77386051416397,0.44007581472397,0.82130318880081,-0.41910058259964,0.51240122318268
642,4120750331,0.630005,0.384905,-0.575307,0.352093,9.86900520324707,0.76930034160614,0.40303432941437,0.83573591709137,-0.52726304531097,0.43585768342018
643,4120766998,0.629979,0.384916,-0.575362,0.352038,9.85887050628662,0.78614860773087,0.41521057486534,0.81332486867905,-0.58459699153900,0.26119190454483
644,4120783665,0.629942,0.384937,-0.575411,0.352001,9.85515785217285,0.78721523284912,0.37430521845818,0.99173003435135,-0.57747668027878,0.31700196862221
645,4120800332,0.629904,0.384969,-0.575453,0.351966,9.85634613037109,0.78455507755280,0.39073958992958,1.05259859561920,-0.57906466722488,0.25578761100769
646,4120816999,0.629853,0.384998,-0.575508,0.351934,9.87313461303711,0.77522432804108,0.40472576022148,1.05052411556244,-0.66335612535477,0.34958136081696
647,4120833666,0.629827,0.385015,-0.575547,0.351900,9.86778831481934,0.78255361318588,0.40262442827225,0.98010194301605,-0.46945512294769,0.28764978051186
648,4120850333,0.629784,0.385041,-0.575587,0.351882,9.88324165344238,0.78081613779068,0.39862623810768,1.13408553600311,-0.52393341064453,0.36766391992569
649,4120867000,0.629731,0.385079,-0.575618,0.351886,9.88611984252930,0.78669846057892,0.39596852660179,1.32870364189148,-0.49756509065628,0.41325452923775
650,4120883667,0.629677,0.385134,-0.575627,0.351905,9.86818408966064,0.78671526908875,0.40309831500053,1.49525022506714,-0.40678089857101,0.35650956630707
651,4120900334,0.629622,0.385172,-0.575654,0.351920,9.87688446044922,0.79878193140030,0.43525978922844,1.37519073486328,-0.45755812525749,0.45370972156525
652,4120917001,0.629595,0.385173,-0.575682,0.351922,9.89325332641602,0.80501556396484,0.43049538135529,1.06197297573090,-0.30060344934464,0.47998839616776
653,4120933668,0.629570,0.385175,-0.575713,0.351913,9.87765312194824,0.80182367563248,0.41572135686874,1.03691101074219,-0.33185097575188,0.43251526355743
654,4120950335,0.629560,0.385181,-0.575721,0.351912,9.87752819061279,0.80645143985748,0.41453602910042,1.08820021152496,-0.16106545925140,0.35324391722679
655,4120967002,0.629555,0.385202,-0.575723,0.351894,9.85714435577393,0.80767005681992,0.38642433285713,1.09361732006073,-0.20076514780521,0.19301089644432
656,4120983669,0.629549,0.385215,-0.575743,0.351857,9.84538173675537,0.78359401226044,0.37783417105675,0.92879956960678,-0.30967032909393,0.18686383962631
657,4121000336,0.629520,0.385219,-0.575797,0.351817,9.86895275115967,0.79519158601761,0.42648869752884,0.89422261714935,-0.53466510772705,0.36352747678757
658,4121017003,0.629498,0.385222,-0.575830,0.351798,9.87914276123047,0.79273295402527,0.43539917469025,0.99173015356064,-0.35340401530266,0.38403043150902
659,4121033670,0.629492,0.385237,-0.575845,0.351770,9.88612937927246,0.79973196983337,0.43028944730759,1.00498461723328,-0.27327468991280,0.20968477427959
660,4121050337,0.629523,0.385204,-0.575852,0.351738,9.87523174285889,0.78702664375305,0.45164993405342,0.70358723402023,0.02145703695714,0.27266639471054
661,4121067004,0.629462,0.385219,-0.575880,0.351784,9.88907051086426,0.77622216939926,0.34864434599876,1.42491769790649,-0.34839677810669,0.69499421119690
662,4121083671,0.629326,0.385408,-0.575881,0.351821,9.80473613739014,0.79984241724014,0.38603305816650,2.41547584533691,-0.97306483983994,0.08189020305872
663,4121100338,0.629306,0.385437,-0.575917,0.351765,9.92993927001953,0.75298076868057,0.47921776771545,0.94174695014954,-0.52117997407913,0.12202529609203
664,4121117005,0.629437,0.385175,-0.576068,0.351570,9.76240539550781,0.77748042345047,0.33768802881241,-1.55255222320557,-0.09070738404989,0.61120229959488
665,4121133672,0.629445,0.385030,-0.576198,0.351501,9.89125347137451,0.73515981435776,0.33033177256584,-0.16334499418736,-0.43336686491966,0.94199025630951
666,4121150339,0.629328,0.384926,-0.576425,0.351453,9.82476329803467,0.81086444854736,0.39531314373016,0.19443236291409,-1.38961684703827,1.42099881172180
667,4121167006,0.629147,0.385034,-0.576499,0.351538,9.93376350402832,0.80504202842712,0.39790192246437,2.15831160545349,-1.14520776271820,0.91256117820740
668,4121183673,0.628992,0.385212,-0.576502,0.351615,9.86011791229248,0.77506345510483,0.35837623476982,2.56185245513916,-0.92770481109619,0.34764754772186
669,4121200340,0.628817,0.385379,-0.576555,0.351657,9.90014457702637,0.77149385213852,0.39063963294029,2.21919298171997,-1.29120016098022,0.41311362385750
670,4121217007,0.628721,0.385429,-0.576618,0.351672,9.91211414337158,0.77947807312012,0.44164368510246,1.45717704296112,-0.79964131116867,0.60406911373138
671,4121233674,0.628679,0.385408,-0.576683,0.351663,9.89764595031738,0.77562093734741,0.38462832570076,0.90701615810394,-0.49450436234474,0.65120923519135
672,4121250341,0.628640,0.385419,-0.576713,0.351671,9.86634635925293,0.78149753808975,0.35373827815056,1.19024121761322,-0.35888513922691,0.50046575069427
673,4121267008,0.628567,0.385475,-0.576725,0.351721,9.85499954223633,0.75966483354568,0.37142482399940,1.67758703231812,-0.41317126154900,0.53915375471115
674,4121283675,0.628482,0.385529,-0.576735,0.351796,9.85186100006104,0.76868247985840,0.34812161326408,1.78043448925018,-0.38878792524338,0.68116325139999
675,4121300342,0.628416,0.385548,-0.576773,0.351832,9.85512733459473,0.79363304376602,0.33320614695549,1.35854232311249,-0.44703125953674,0.67099511623383
676,4121317009,0.628397,0.385521,-0.576827,0.351807,9.85529994964600,0.80978363752365,0.38124433159828,0.76637679338455,-0.37901675701141,0.52386301755905
677,4121333676,0.628377,0.385496,-0.576884,0.351776,9.89311218261719,0.81126934289932,0.38900998234749,0.75600373744965,-0.41935676336288,0.50291180610657
678,4121350343,0.628355,0.385500,-0.576908,0.351771,9.88773632049561,0.80218917131424,0.41604366898537,1.06872189044952,-0.28448024392128,0.41796720027924
679,4121367010,0.628346,0.385570,-0.576841,0.351821,9.90591144561768,0.75664556026459,0.32450053095818,1.76038026809692,0.14475657045841,0.11655700951815
680,4121383677,0.628373,0.385592,-0.576792,0.351829,9.85137176513672,0.78688979148865,0.44332253932953,1.23360371589661,0.22290092706680,0.08988136798143
681,4121400344,0.628423,0.385527,-0.576773,0.351841,9.86130046844482,0.76546353101730,0.35171478986740,0.75193119049072,0.39255937933922,0.47087025642395
682,4121417011,0.628431,0.385479,-0.576785,0.351861,9.85224342346191,0.73598569631577,0.32702618837357,0.84135794639587,0.07236227393150,0.62507146596909
683,4121433678,0.628408,0.385505,-0.576783,0.351877,9.86246967315674,0.77249425649643,0.40294900536537,1.33163619041443,-0.16887733340263,0.35718831419945
684,4121450345,0.628321,0.385617,-0.576769,0.351931,9.85590648651123,0.76429438591003,0.39064380526543,2.00654363632202,-0.48282495141029,0.29396334290504
685,4121467012,0.628226,0.385705,-0.576773,0.351998,9.88181304931641,0.79738819599152,0.40233784914017,1.99377572536469,-0.49688640236855,0.51647371053696
686,4121483679,0.628193,0.385689,-0.576800,0.352031,9.89326000213623,0.80858594179153,0.39681935310364,1.13231825828552,-0.19420830905437,0.69644129276276
687,4121500346,0.628227,0.385603,-0.576842,0.351995,9.87236309051514,0.80401384830475,0.38630878925323,0.35125893354416,-0.01193551626056,0.55170392990112
688,4121517013,0.628275,0.385563,-0.576853,0.351934,9.87808132171631,0.79364979267120,0.39271405339241,0.49623960256577,0.00904768519104,0.14006944000721
689,4121533680,0.628291,0.385560,-0.576854,0.351909,9.87189388275146,0.76306468248367,0.42741781473160,0.93315380811691,-0.06915429234505,0.20832727849483
690,4121550347,0.628314,0.385547,-0.576843,0.351901,9.88374423980713,0.73440277576447,0.43077555298805,0.94639563560486,0.08231280744076,0.26646810770035
691,4121567014,0.628340,0.385488,-0.576857,0.351895,9.86885070800781,0.74873596429825,0.41358566284180,0.70721137523651,0.09545212239027,0.52180117368698
692,4121583681,0.628360,0.385402,-0.576911,0.351865,9.87818145751953,0.78331458568573,0.38130596280098,0.41128233075142,-0.08896570652723,0.64369195699692
693,4121600348,0.628384,0.385310,-0.576964,0.351836,9.85672187805176,0.78653323650360,0.38222470879555,0.37197959423065,-0.06273830682039,0.65488469600677
694,4121617015,0.628395,0.385256,-0.577012,0.351796,9.87018585205078,0.77550768852234,0.38999614119530,0.51585900783539,-0.21263664960861,0.48203739523888
695,4121633682,0.628401,0.385249,-0.577024,0.351775,9.88554668426514,0.76891618967056,0.36157611012459,0.89643800258636,-0.13678461313248,0.29083856940269
696,4121650349,0.628385,0.385283,-0.577021,0.351770,9.86858749389648,0.77242195606232,0.36797842383385,1.24051916599274,-0.21286712586880,0.20696982741356
697,4121667016,0.628366,0.385303,-0.577030,0.351769,9.86634540557861,0.77696484327316,0.37638166546822,1.19426250457764,-0.23742970824242,0.32532611489296
698,4121683683,0.628361,0.385308,-0.577042,0.351750,9.88986968994141,0.76071178913116,0.36053508520126,0.97638803720474,-0.20856422185898,0.27248710393906
699,4121700350,0.628352,0.385325,-0.577063,0.351716,9.87128734588623,0.77298152446747,0.33965721726418,0.97079163789749,-0.32952016592026,0.20209060609341
700,4121717017,0.628359,0.385358,-0.577057,0.351676,9.87161159515381,0.78176844120026,0.35454013943672,1.03680837154388,-0.20508086681366,-0.00158798729535
701,4121733684,0.628369,0.385384,-0.577043,0.351653,9.86622428894043,0.77261918783188,0.36226019263268,1.10032784938812,-0.08855590224266,0.07439848035574
702,4121750351,0.628377,0.385390,-0.577039,0.351638,9.87528610229492,0.78601032495499,0.37012878060341,1.05029356479645,-0.08087210357189,0.21770152449608
703,4121767018,0.628378,0.385400,-0.577038,0.351627,9.88071727752686,0.77319467067719,0.36184731125832,1.05763149261475,-0.11320813000202,0.24449241161346
704,4121783685,0.628377,0.385428,-0.577019,0.351628,9.88272285461426,0.79052942991257,0.37974563241005,1.24087142944336,-0.05730201303959,0.17708620429039
705,4121800352,0.628386,0.385481,-0.576976,0.351627,9.88832569122314,0.75625681877136,0.34229215979576,1.37439668178558,0.02082952857018,-0.00895163882524
706,4121817019,0.628403,0.385514,-0.576940,0.351617,9.88740825653076,0.77573454380035,0.36940661072731,1.21995210647583,0.04213929176331,0.02080391347408
707,4121833686,0.628417,0.385538,-0.576913,0.351611,9.90311145782471,0.76875311136246,0.36781564354897,1.17030191421509,0.02934575080872,0.10864266753197
708,4121850353,0.628429,0.385544,-0.576902,0.351602,9.86830329895020,0.78853911161423,0.36694267392159,1.00885212421417,-0.01434311084449,0.21857236325741
709,4121867020,0.628438,0.385543,-0.576891,0.351603,9.85804176330566,0.77730435132980,0.38037049770355,1.06572520732880,0.01373480912298,0.29099225997925
710,4121883687,0.628456,0.385558,-0.576870,0.351590,9.86830043792725,0.78262430429459,0.36978694796562,1.10753786563873,0.02405672706664,0.12281928956509
711,4121900354,0.628479,0.385569,-0.576846,0.351574,9.87784194946289,0.76640516519547,0.37765318155289,1.06212651729584,0.05532983317971,0.10579965263605
712,4121917021,0.628499,0.385559,-0.576833,0.351572,9.86685848236084,0.77768647670746,0.39089396595955,1.00661110877991,0.08528388291597,0.28271934390068
713,4121933688,0.628516,0.385532,-0.576830,0.351578,9.89292526245117,0.77755832672119,0.38864445686340,0.93717509508133,0.09063693881035,0.42339709401131
714,4121950355,0.628534,0.385495,-0.576837,0.351573,9.87754058837891,0.77426314353943,0.40865078568459,0.81000798940659,0.04321502521634,0.43452584743500
715,4121967022,0.628555,0.385459,-0.576836,0.351576,9.88302040100098,0.79196876287460,0.37151524424553,0.88022524118423,0.10898843407631,0.43729200959206
716,4121983689,0.628576,0.385445,-0.576817,0.351586,9.85195636749268,0.81035125255585,0.37683472037315,1.00625252723694,0.15548828244209,0.33543029427528
717,4122000356,0.628596,0.385434,-0.576814,0.351568,9.85607337951660,0.75813555717468,0.36065819859505,0.90723377466202,0.00163280952256,0.24374966323376
718,4122017023,0.628610,0.385413,-0.576818,0.351558,9.86432743072510,0.77679812908173,0.38063910603523,0.88090389966965,-0.01290879957378,0.35513925552368
719,4122033690,0.628613,0.385406,-0.576811,0.351572,9.87928295135498,0.80783772468567,0.39709624648094,1.11218667030334,0.02509404346347,0.40248438715935
720,4122050357,0.628631,0.385416,-0.576785,0.351571,9.85892295837402,0.78298223018646,0.36436179280281,1.10983014106750,0.08807566016912,0.17349399626255
721,4122067024,0.628676,0.385384,-0.576758,0.351572,9.85993957519531,0.79194408655167,0.39458638429642,0.85092437267303,0.30100685358047,0.28633078932762
722,4122083691,0.628574,0.385472,-0.576743,0.351681,9.88321208953857,0.78799450397491,0.27245795726776,2.18374538421631,-0.33547511696815,0.66807520389557
723,4122100358,0.628470,0.385625,-0.576760,0.351672,9.82898139953613,0.83079802989960,0.44846618175507,1.95394790172577,-0.94576179981232,-0.00984808336943
724,4122117025,0.628509,0.385626,-0.576742,0.351629,9.95025253295898,0.73499983549118,0.43886870145798,0.84596830606461,0.04114040359855,0.00211945106275
725,4122133692,0.628638,0.385361,-0.576882,0.351461,9.77810192108154,0.80548322200775,0.31580197811127,-1.44075262546539,0.03259856253862,0.72065806388855
726,4122150359,0.628701,0.385233,-0.576930,0.351410,9.86428165435791,0.71970456838608,0.32901108264923,0.00319518451579,0.14161902666092,0.59929239749908
727,4122167026,0.628579,0.385164,-0.577117,0.351396,9.84994125366211,0.77179861068726,0.37995025515556,0.59174937009811,-1.23582541942596,1.33750152587891
728,4122183693,0.628410,0.385300,-0.577130,0.351528,9.91226482391357,0.80496853590012,0.39078772068024,2.58453226089478,-0.77044272422791,0.80672949552536
729,4122200360,0.628268,0.385495,-0.577125,0.351576,9.84973430633545,0.75721895694733,0.34695339202881,2.50615811347961,-0.95605796575546,0.10141988098621
730,4122217027,0.628139,0.385590,-0.577188,0.351600,9.89247226715088,0.78539425134659,0.38048925995827,1.74525582790375,-1.02425181865692,0.54367440938950
731,4122233694,0.628114,0.385572,-0.577234,0.351587,9.93416213989258,0.78033286333084,0.37648260593414,0.90690076351166,-0.36097255349159,0.53446656465530
732,4122250361,0.628131,0.385518,-0.577247,0.351596,9.89933776855469,0.78657710552216,0.37879759073257,0.79378235340118,0.09351836889982,0.58530783653259
733,4122267028,0.628125,0.385538,-0.577226,0.351620,9.84956264495850,0.77497011423111,0.31318023800850,1.33367252349854,0.01911347545683,0.32011389732361
734,4122283695,0.628042,0.385648,-0.577198,0.351693,9.83652305603027,0.74695330858231,0.31845280528069,2.13310885429382,-0.35473591089249,0.33998939394951
735,4122300362,0.627952,0.385720,-0.577200,0.351772,9.84119510650635,0.74687033891678,0.35721042752266,1.91602838039398,-0.40109488368034,0.61412203311920
736,4122317029,0.627896,0.385728,-0.577251,0.351779,9.86427021026611,0.77525037527084,0.34462627768517,1.19828379154205,-0.51186978816986,0.60953748226166
737,4122333696,0.627882,0.385715,-0.577298,0.351740,9.87524414062500,0.78173160552979,0.35918331146240,0.78474104404449,-0.40064662694931,0.37682041525841
738,4122350363,0.627890,0.385677,-0.577333,0.351709,9.87911033630371,0.79323691129684,0.37932401895523,0.72419261932373,-0.17791861295700,0.43060708045959
739,4122367030,0.627903,0.385665,-0.577331,0.351704,9.89457988739014,0.79371237754822,0.39628061652184,0.98475074768066,0.00758776254952,0.32266241312027
740,4122383697,0.627922,0.385688,-0.577282,0.351725,9.90055274963379,0.76334059238434,0.35901975631714,1.32272315025330,0.21832907199860,0.16125115752220
741,4122400364,0.627924,0.385730,-0.577232,0.351757,9.84673404693604,0.77217340469360,0.36059382557869,1.49012756347656,0.13767465949059,0.17189323902130
742,4122417031,0.627965,0.385698,-0.577205,0.351764,9.87285995483398,0.76188349723816,0.34657195210457,0.92004024982452,0.30219784379005,0.32266238331795
743,4122433698,0.627974,0.385666,-0.577221,0.351757,9.85031127929688,0.74042630195618,0.29901307821274,0.83092087507248,-0.04641021415591,0.45506727695465
744,4122450365,0.627955,0.385673,-0.577249,0.351736,9.88291645050049,0.78047877550125,0.38981971144676,0.98203575611115,-0.34025189280510,0.33567366003990
745,4122467032,0.627913,0.385770,-0.577202,0.351784,9.82114028930664,0.77683818340302,0.34469565749168,1.90623152256012,-0.14339268207550,0.13864794373512
746,4122483699,0.627812,0.385896,-0.577180,0.351862,9.90661334991455,0.76937901973724,0.40132993459702,2.23749351501465,-0.47484666109085,0.35679134726524
747,4122500366,0.627775,0.385922,-0.577179,0.351900,9.89502334594727,0.78960454463959,0.38516727089882,1.40670716762543,-0.17571592330933,0.48692947626114
748,4122517033,0.627812,0.385870,-0.577195,0.351864,9.88674354553223,0.77230697870255,0.37818750739098,0.56307595968246,0.03536473214626,0.33899044990540
749,4122533700,0.627885,0.385789,-0.577213,0.351794,9.87605094909668,0.78180539608002,0.37248700857162,0.18979649245739,0.15035292506218,0.22573110461235
750,4122550367,0.627942,0.385761,-0.577180,0.351775,9.88581371307373,0.78538876771927,0.41357764601707,0.76111334562302,0.31369790434837,0.14058169722557
751,4122567034,0.627984,0.385766,-0.577123,0.351791,9.86841964721680,0.74813103675842,0.39466229081154,1.16876506805420,0.37016114592552,0.12796744704247
752,4122583701,0.628028,0.385742,-0.577099,0.351776,9.84130573272705,0.74232894182205,0.38456931710243,0.85342162847519,0.22188924252987,0.20104049146175
753,4122600368,0.628056,0.385689,-0.577113,0.351763,9.85512638092041,0.76990735530853,0.33919611573219,0.66117262840271,0.07546140998602,0.45857614278793
754,4122617035,0.628087,0.385628,-0.577133,0.351741,9.86017894744873,0.78038924932480,0.34694576263428,0.53421044349670,0.04969504103065,0.45433729887009
755,4122633702,0.628074,0.385626,-0.577162,0.351717,9.86517429351807,0.78740632534027,0.35554724931717,0.91680020093918,-0.30783906579018,0.34890261292458
756,4122650369,0.628052,0.385661,-0.577178,0.351694,9.87659931182861,0.77750301361084,0.35747346282005,1.17853629589081,-0.36987301707268,0.20055384933949
757,4122667036,0.628043,0.385692,-0.577163,0.351700,9.88304424285889,0.75787013769150,0.35003337264061,1.27127993106842,-0.09931324422359,0.21611356735229
758,4122683703,0.628030,0.385730,-0.577155,0.351695,9.86784744262695,0.77103531360626,0.36330345273018,1.26485109329224,-0.19648781418800,0.17834761738777
759,4122700370,0.628010,0.385772,-0.577160,0.351677,9.87769222259521,0.77811813354492,0.33712053298950,1.22444701194763,-0.32131132483482,0.15401557087898
760,4122717037,0.627997,0.385797,-0.577179,0.351641,9.85460853576660,0.77489620447159,0.35042294859886,1.00424826145172,-0.35941660404205,0.16143682599068
761,4122733704,0.627963,0.385817,-0.577216,0.351618,9.85806560516357,0.77974230051041,0.35838970541954,1.06427812576294,-0.47284889221191,0.33785071969032
762,4122750371,0.627920,0.385862,-0.577250,0.351589,9.86565303802490,0.79347050189972,0.36053004860878,1.17384934425354,-0.57686203718185,0.22402788698673
763,4122767038,0.627890,0.385901,-0.577258,0.351588,9.88974475860596,0.80466425418854,0.36245453357697,1.24415624141693,-0.32738152146339,0.27509960532188
764,4122783705,0.627879,0.385928,-0.577249,0.351593,9.91404819488525,0.82179057598114,0.41950130462646,1.26204657554626,-0.12976673245430,0.25108769536018
765,4122800372,0.627918,0.385908,-0.577218,0.351595,9.91620063781738,0.79755747318268,0.40315672755241,0.95990633964539,0.27289691567421,0.25015285611153
766,4122817039,0.627974,0.385832,-0.577210,0.351593,9.89381122589111,0.78071820735931,0.36467063426971,0.63874870538712,0.37096789479256,0.47253507375717
767,4122833706,0.627996,0.385743,-0.577259,0.351571,9.87549591064453,0.77314740419388,0.28891819715500,0.39906507730484,-0.04880499839783,0.67008578777313
768,4122850373,0.627981,0.385686,-0.577308,0.351580,9.87146854400635,0.78718292713165,0.33982503414154,0.78963315486908,-0.17140020430088,0.77199882268906
769,4122867040,0.627946,0.385689,-0.577308,0.351639,9.88036346435547,0.79206466674805,0.35606035590172,1.35247218608856,-0.07088314741850,0.66092932224274
770,4122883707,0.627942,0.385710,-0.577265,0.351693,9.88425350189209,0.77850824594498,0.33475372195244,1.52382111549377,0.19262671470642,0.38094410300255
771,4122900374,0.627943,0.385719,-0.577232,0.351735,9.86939239501953,0.76553404331207,0.31399610638618,1.34168922901154,0.17222619056702,0.39323815703392
772,4122917041,0.627952,0.385736,-0.577177,0.351791,9.84684562683105,0.77436870336533,0.30038949847221,1.48439025878906,0.30904921889305,0.34636694192886
773,4122933708,0.627941,0.385737,-0.577190,0.351789,9.82357692718506,0.74999135732651,0.30488288402557,1.05655574798584,-0.18351496756077,0.38020128011703
