sep=,
DeviceTag:,D
FirmwareVersion:,3.0.0
AppVersion:,2023.6.0
StartTime: ,2024-03-14_12:04:07_000 EDT
© Movella Technologies B. V. 2005-2024

PacketCounter,SampleTimeFine,Quat_W,Quat_X,Quat_Y,Quat_Z,Acc_X,Acc_Y,Acc_Z,Gyr_X,Gyr_Y,Gyr_Z
0,4110066784,0.013779,-0.701744,-0.067746,-0.709067,0.00000000000000,0.00000000000000,0.00000000000000,0.00000000000000,0.00000000000000,0.00000000000000
1,4110083451,0.013751,-0.701705,-0.067659,-0.709114,9.79644489288330,0.74545264244080,0.06136335805058,0.30281254649162,1.00772523880005,0.19394576549530
2,4110100118,0.013775,-0.701667,-0.067633,-0.709154,9.84793090820312,0.75507485866547,0.04133789986372,0.90909069776535,0.98918163776398,0.14448763430119
3,4110116785,0.013861,-0.701634,-0.067619,-0.709187,9.87113094329834,0.78581523895264,0.07793375104666,1.24649965763092,0.95714014768600,0.39695200324059
4,4110133452,0.013940,-0.701595,-0.067577,-0.709228,9.83366203308105,0.78063714504242,0.08333022892475,1.07021379470825,1.02747917175293,0.49422267079353
5,4110150119,0.014011,-0.701558,-0.067526,-0.709267,9.82462215423584,0.77284020185471,0.11135343462229,0.98232376575470,0.99861359596252,0.50257235765457
6,4110166786,0.014041,-0.701506,-0.067473,-0.709324,9.80254554748535,0.77129888534546,0.13107654452324,0.80400824546814,1.15063774585724,0.30020645260811
7,4110183453,0.014044,-0.701422,-0.067417,-0.709411,9.79405307769775,0.74231851100922,0.08026969432831,0.61182332038879,1.43078947067261,0.16531717777252
8,4110200120,0.014036,-0.701319,-0.067362,-0.709519,9.78571987152100,0.73732173442841,0.08616565167904,0.57788014411926,1.62186670303345,0.09728344529867
9,4110216787,0.014025,-0.701218,-0.067308,-0.709624,9.76181888580322,0.70823311805725,0.06415557861328,0.54726016521454,1.59137475490570,0.07903438806534
10,4110233454,0.014029,-0.701144,-0.067271,-0.709701,9.76191329956055,0.68873387575150,0.03987332805991,0.72788733243942,1.33734142780304,0.08449628949165
11,4110250121,0.014012,-0.701093,-0.067270,-0.709752,9.77912998199463,0.69153624773026,0.05134730413556,0.79513341188431,1.08300745487213,-0.18115220963955
12,4110266788,0.013979,-0.701054,-0.067297,-0.709788,9.76745605468750,0.67591786384583,0.02570004574955,0.86348092556000,0.94357174634933,-0.38328760862350
13,4110283455,0.013968,-0.701061,-0.067340,-0.709777,9.79577255249023,0.68769484758377,0.02606683224440,1.08188056945801,0.49974220991135,-0.32387903332710
14,4110300122,0.013990,-0.701088,-0.067418,-0.709743,9.77073860168457,0.70279318094254,0.02999841049314,1.39707028865814,0.30074429512024,-0.32824593782425
15,4110316789,0.014030,-0.701145,-0.067490,-0.709679,9.78607082366943,0.73109865188599,0.03732081130147,1.48745119571686,0.02267364226282,-0.18906015157700
16,4110333456,0.014065,-0.701207,-0.067557,-0.709610,9.82674884796143,0.77492147684097,0.06751047074795,1.42659521102905,-0.02834044955671,-0.18548716604710
17,4110350123,0.014045,-0.701267,-0.067574,-0.709550,9.81651210784912,0.78018718957901,0.09861388057470,0.93273127079010,0.00245241587982,-0.21454477310181
18,4110366790,0.014009,-0.701344,-0.067539,-0.709478,9.80752658843994,0.75082832574844,0.05491624027491,0.58421277999878,-0.13732887804508,-0.04221612960100
19,4110383457,0.014015,-0.701411,-0.067570,-0.709408,9.82502269744873,0.73148995637894,0.08653635531664,1.09589052200317,-0.06933997571468,-0.14848320186138
20,4110400124,0.014058,-0.701442,-0.067668,-0.709367,9.82155513763428,0.73615926504135,0.11192711442709,1.59881508350372,0.25696581602097,-0.31860920786858
21,4110416791,0.014119,-0.701447,-0.067775,-0.709352,9.82540607452393,0.77316689491272,0.10853198170662,1.69692468643188,0.51579499244690,-0.28636282682419
22,4110433458,0.014177,-0.701422,-0.067879,-0.709365,9.83206272125244,0.78003364801407,0.10172798484564,1.69072604179382,0.79515260457993,-0.30383062362671
23,4110450125,0.014207,-0.701358,-0.067979,-0.709418,9.80781173706055,0.79090678691864,0.07167033851147,1.51954364776611,1.17128777503967,-0.44459801912308
24,4110466792,0.014184,-0.701283,-0.068004,-0.709490,9.80444431304932,0.79803830385208,0.07145626097918,0.89355665445328,1.29502296447754,-0.33999580144882
25,4110483459,0.014114,-0.701238,-0.067965,-0.709540,9.81252670288086,0.75537699460983,0.04704735428095,0.38898646831512,1.03428566455841,-0.25137582421303
26,4110500126,0.014062,-0.701189,-0.067935,-0.709592,9.79619312286377,0.74706548452377,0.02352718822658,0.49526634812355,1.06105089187622,-0.21042111515999
27,4110516793,0.014026,-0.701153,-0.067923,-0.709630,9.76969528198242,0.73111951351166,0.04838078469038,0.63016843795776,0.93643230199814,-0.21106143295765
28,4110533460,0.014012,-0.701150,-0.067929,-0.709633,9.76297855377197,0.73084574937820,0.04127139970660,0.88899123668671,0.62145376205444,-0.16940879821777
29,4110550127,0.014047,-0.701176,-0.067954,-0.709604,9.77408409118652,0.72840303182602,0.01840532943606,1.23115134239197,0.34779486060143,-0.00733163533732
30,4110566794,0.014111,-0.701204,-0.068006,-0.709569,9.77068519592285,0.72408437728882,0.02039100229740,1.48465931415558,0.31112387776375,0.00372024485841
31,4110583461,0.014173,-0.701258,-0.068070,-0.709509,9.78213691711426,0.71261560916901,0.03953927755356,1.54291546344757,0.07234948128462,-0.04222253710032
32,4110600128,0.014259,-0.701325,-0.068170,-0.709431,9.78490734100342,0.70767474174500,0.05690759420395,1.84973621368408,-0.08126268535852,-0.09079061448574
33,4110616795,0.014309,-0.701388,-0.068261,-0.709359,9.79353332519531,0.75274181365967,0.09493683278561,1.63403260707855,-0.04251708090305,-0.22951538860798
34,4110633462,0.014306,-0.701496,-0.068281,-0.709251,9.82701206207275,0.74818348884583,0.09960095584393,1.03993308544159,-0.44929796457291,-0.12665478885174
35,4110650129,0.014315,-0.701584,-0.068326,-0.709159,9.82311153411865,0.74767696857452,0.06252631545067,1.18602800369263,-0.28106096386909,-0.19760195910931
36,4110666796,0.014347,-0.701665,-0.068387,-0.709073,9.79243469238281,0.79461395740509,0.09027401357889,1.39082074165344,-0.20110452175140,-0.16043153405190
37,4110683463,0.014407,-0.701706,-0.068472,-0.709022,9.79974365234375,0.80223488807678,0.10141271352768,1.63728559017181,0.16958810389042,-0.16492018103600
38,4110700130,0.014458,-0.701710,-0.068547,-0.709010,9.83670043945312,0.80761247873306,0.08711680024862,1.52357792854309,0.53518378734589,-0.17930170893669
39,4110716797,0.014474,-0.701690,-0.068599,-0.709024,9.86878871917725,0.78163290023804,0.09979071468115,1.22355055809021,0.76259887218475,-0.25642153620720
40,4110733464,0.014430,-0.701644,-0.068567,-0.709074,9.82940101623535,0.76532226800919,0.08545971661806,0.53412085771561,1.04659259319305,-0.15723636746407
41,4110750131,0.014328,-0.701569,-0.068479,-0.709159,9.82280731201172,0.75297003984451,0.06356943398714,-0.01545726321638,1.33623373508453,-0.18402725458145
42,4110766798,0.014249,-0.701499,-0.068426,-0.709234,9.80853939056396,0.76178199052811,0.03815113380551,0.24769401550293,1.26738691329956,-0.24472934007645
43,4110783465,0.014162,-0.701418,-0.068335,-0.709325,9.77736949920654,0.76205182075500,0.03868626058102,0.09266034513712,1.40545201301575,-0.10428211092949
44,4110800132,0.014124,-0.701381,-0.068272,-0.709368,9.76359176635742,0.72436457872391,0.05154643580317,0.40445655584335,0.97319942712784,0.02780899032950
45,4110816799,0.014142,-0.701380,-0.068300,-0.709367,9.74447345733643,0.71300178766251,0.02001418359578,1.13402152061462,0.59808856248856,-0.11857399344444
46,4110833466,0.014215,-0.701396,-0.068391,-0.709341,9.76603794097900,0.74953585863113,0.02966212667525,1.76095640659332,0.42522841691971,-0.14395618438721
47,4110850133,0.014288,-0.701390,-0.068492,-0.709335,9.77553558349609,0.76552510261536,0.04275765642524,1.75620508193970,0.62097346782684,-0.20727077126503
48,4110866800,0.014315,-0.701376,-0.068529,-0.709346,9.76139736175537,0.76608270406723,0.06196572631598,1.24667263031006,0.73000037670135,-0.12217898666859
49,4110883467,0.014294,-0.701357,-0.068543,-0.709364,9.79959201812744,0.74232453107834,0.05739163607359,0.85794228315353,0.76339286565781,-0.25671607255936
50,4110900134,0.014273,-0.701344,-0.068541,-0.709377,9.79611587524414,0.74116879701614,0.04106967151165,0.78226304054260,0.71132868528366,-0.17030523717403
51,4110916801,0.014269,-0.701366,-0.068537,-0.709355,9.81343460083008,0.74890720844269,0.06115789711475,0.87555724382401,0.38384470343590,-0.05787829682231
52,4110933468,0.014302,-0.701391,-0.068528,-0.709330,9.81514644622803,0.73333579301834,0.05868449062109,1.05638945102692,0.37058380246162,0.14535848796368
53,4110950135,0.014325,-0.701401,-0.068538,-0.709320,9.79713249206543,0.74681740999222,0.07689021527767,1.07622647285461,0.51044183969498,0.00227312697098
54,4110966802,0.014310,-0.701402,-0.068522,-0.709320,9.81257438659668,0.77662628889084,0.10214594006538,0.77693557739258,0.58441770076752,-0.06601033359766
55,4110983469,0.014285,-0.701414,-0.068495,-0.709312,9.80029678344727,0.78083676099777,0.10433821380138,0.68826442956924,0.49324932694435,-0.05972240865231
56,4111000136,0.014251,-0.701417,-0.068478,-0.709311,9.75964736938477,0.72986966371536,0.05980584770441,0.66603261232376,0.56738531589508,-0.15010961890221
57,4111016803,0.014232,-0.701394,-0.068537,-0.709328,9.82300758361816,0.75198620557785,0.04159284383059,1.13484752178192,0.77605199813843,-0.46145755052567
58,4111033470,0.014272,-0.701355,-0.068618,-0.709359,9.82967472076416,0.79110783338547,0.04806699976325,1.47809600830078,0.94732409715652,-0.28839257359505
59,4111050137,0.014315,-0.701289,-0.068637,-0.709421,9.81790065765381,0.80415350198746,0.02643717452884,1.14282572269440,1.22860264778137,0.01000175904483
60,4111066804,0.014346,-0.701232,-0.068619,-0.709478,9.80410003662109,0.78326880931854,0.07595200836658,0.94761222600937,1.17174911499023,0.13119465112686
61,4111083471,0.014354,-0.701202,-0.068586,-0.709511,9.80611801147461,0.79322111606598,0.09317966550589,0.77940082550049,0.90966701507568,0.11567334830761
62,4111100138,0.014330,-0.701185,-0.068531,-0.709534,9.81025028228760,0.76514697074890,0.07334861904383,0.53670775890350,0.78376781940460,0.06227087602019
63,4111116805,0.014298,-0.701155,-0.068466,-0.709570,9.78831958770752,0.74366533756256,0.08092896640301,0.42150178551674,0.90845036506653,0.06795689463615
64,4111133472,0.014282,-0.701113,-0.068439,-0.709614,9.77795124053955,0.72474473714828,0.08042046427727,0.69698560237885,1.00523447990417,-0.04069218039513
65,4111150139,0.014282,-0.701068,-0.068438,-0.709659,9.79643440246582,0.73397248983383,0.08551129698753,0.88420808315277,1.03022611141205,-0.09349916875362
66,4111166806,0.014261,-0.701029,-0.068428,-0.709699,9.81588840484619,0.74144941568375,0.04118807986379,0.68208545446396,0.96534895896912,-0.14700409770012
67,4111183473,0.014255,-0.700998,-0.068417,-0.709730,9.81307220458984,0.74319094419479,0.06187501177192,0.82238543033600,0.89923638105392,-0.07008915394545
68,4111200140,0.014249,-0.700991,-0.068424,-0.709737,9.77003002166748,0.76018208265305,0.05767588689923,0.90586358308792,0.66451501846313,-0.13523505628109
69,4111216807,0.014248,-0.700995,-0.068435,-0.709732,9.79290676116943,0.73340260982513,0.02801289781928,0.95557785034180,0.55078190565109,-0.12780736386776
70,4111233474,0.014255,-0.701000,-0.068471,-0.709723,9.80356407165527,0.74451088905334,0.07663830369711,1.09863758087158,0.52189081907272,-0.20103408396244
71,4111250141,0.014256,-0.701012,-0.068500,-0.709709,9.79007053375244,0.73608797788620,0.08310311287642,1.10926675796509,0.47151058912277,-0.20148229598999
72,4111266808,0.014262,-0.701037,-0.068531,-0.709681,9.78599548339844,0.76079064607620,0.06200959160924,1.09847104549408,0.34015583992004,-0.17834120988846
73,4111283475,0.014264,-0.701059,-0.068546,-0.709658,9.80655193328857,0.73994022607803,0.06251117587090,0.99878638982773,0.38221192359924,-0.12445210665464
74,4111300142,0.014272,-0.701089,-0.068557,-0.709627,9.81908702850342,0.75247889757156,0.06413525342941,1.02916312217712,0.30003359913826,-0.06623444706202
75,4111316809,0.014273,-0.701108,-0.068586,-0.709605,9.80857849121094,0.76669597625732,0.08689737319946,1.07175695896149,0.39915472269058,-0.19419549405575
76,4111333476,0.014270,-0.701124,-0.068603,-0.709588,9.79077148437500,0.78549742698669,0.06056593731046,0.99409925937653,0.43514052033424,-0.15756931900978
77,4111350143,0.014307,-0.701128,-0.068637,-0.709580,9.80170917510986,0.79605549573898,0.07728871703148,1.25692403316498,0.54766994714737,-0.05280057713389
78,4111366810,0.014347,-0.701103,-0.068661,-0.709602,9.81716346740723,0.79878056049347,0.07761205732822,1.19444179534912,0.84202396869659,-0.00134466669988
79,4111383477,0.014380,-0.701066,-0.068644,-0.709639,9.82023048400879,0.80251550674438,0.07684823870659,0.98249667882919,0.96907579898834,0.14428274333477
80,4111400144,0.014395,-0.701015,-0.068616,-0.709692,9.82909488677979,0.77184081077576,0.08257671445608,0.82784092426300,1.11600935459137,0.11169699579477
81,4111416811,0.014398,-0.700962,-0.068552,-0.709750,9.82495784759521,0.77763497829437,0.09600363671780,0.61877715587616,1.14507961273193,0.22010272741318
82,4111433478,0.014415,-0.700919,-0.068482,-0.709799,9.80027008056641,0.76958060264587,0.08241796493530,0.63410639762878,1.05639564990997,0.32439759373665
83,4111450145,0.014436,-0.700861,-0.068413,-0.709863,9.79006767272949,0.77316462993622,0.06328994035721,0.66666662693024,1.20364952087402,0.32971867918968
84,4111466812,0.014447,-0.700806,-0.068346,-0.709923,9.80398559570312,0.77551507949829,0.05129431188107,0.62592315673828,1.16989862918854,0.27049574255943
85,4111483479,0.014484,-0.700766,-0.068274,-0.709969,9.80111026763916,0.76649981737137,0.06201832368970,0.72710615396500,1.04097688198090,0.43409687280655
86,4111500146,0.014532,-0.700723,-0.068207,-0.710017,9.79148578643799,0.75618124008179,0.09059492498636,0.79963493347168,1.06000089645386,0.46677225828171
87,4111516813,0.014570,-0.700685,-0.068148,-0.710059,9.80003166198730,0.73457604646683,0.05233380571008,0.80190157890320,1.01256608963013,0.37301695346832
88,4111533480,0.014592,-0.700640,-0.068097,-0.710109,9.76954746246338,0.72840917110443,0.09116884320974,0.73642271757126,1.07183384895325,0.25463506579399
89,4111550147,0.014591,-0.700620,-0.068023,-0.710135,9.76279449462891,0.74152982234955,0.09285802394152,0.55724912881851,0.82958889007568,0.27205166220665
90,4111566814,0.014568,-0.700620,-0.067931,-0.710144,9.79902458190918,0.74136596918106,0.11357689648867,0.35260999202728,0.64171338081360,0.25628063082695
91,4111583481,0.014588,-0.700639,-0.067839,-0.710134,9.80468750000000,0.72566574811935,0.06413014978170,0.55845284461975,0.47335469722748,0.48315152525902
92,4111600148,0.014639,-0.700624,-0.067813,-0.710150,9.76565456390381,0.77002912759781,0.06041712686419,0.97595274448395,0.76559567451477,0.29370722174644
93,4111616815,0.014689,-0.700609,-0.067768,-0.710168,9.75868320465088,0.76737427711487,0.08817254751921,0.91787582635880,0.78483068943024,0.38232713937759
94,4111633482,0.014808,-0.700600,-0.067778,-0.710173,9.80982780456543,0.75163513422012,0.06343344599009,1.48752808570862,0.71597105264664,0.45701384544373
95,4111650149,0.014881,-0.700590,-0.067764,-0.710183,9.86521053314209,0.74554777145386,0.07991426438093,1.21007859706879,0.73039096593857,0.34617486596107
96,4111666816,0.014926,-0.700596,-0.067697,-0.710183,9.85146045684814,0.71395516395569,0.08531486243010,0.78497153520584,0.59547597169876,0.47430232167244
97,4111683483,0.014925,-0.700597,-0.067587,-0.710193,9.83237266540527,0.70470875501633,0.11987441033125,0.34755790233612,0.64679104089737,0.44895857572556
98,4111700150,0.014905,-0.700566,-0.067444,-0.710237,9.79937171936035,0.73688620328903,0.11332382261753,0.09263473004103,0.96299266815186,0.50878989696503
99,4111716817,0.014871,-0.700534,-0.067320,-0.710281,9.77552700042725,0.76026028394699,0.11169403791428,0.12218537926674,0.96273010969162,0.33811324834824
100,4111733484,0.014831,-0.700515,-0.067197,-0.710312,9.76468849182129,0.70803469419479,0.09500153362751,0.07705579698086,0.82907027006149,0.31380677223206
101,4111750151,0.014807,-0.700526,-0.067131,-0.710308,9.75895786285400,0.66420185565948,0.08630103617907,0.46691948175430,0.51855468750000,0.13399282097816
102,4111766818,0.014781,-0.700528,-0.067169,-0.710303,9.78542041778564,0.68088370561600,0.09301342070103,0.98805451393127,0.55545616149902,-0.37978506088257
103,4111783485,0.014789,-0.700515,-0.067258,-0.710308,9.78670597076416,0.70737665891647,0.09346745908260,1.38523066043854,0.67486256361008,-0.46456310153008
104,4111800152,0.014799,-0.700488,-0.067348,-0.710325,9.81809139251709,0.72288572788239,0.09218095988035,1.38944411277771,0.80424517393112,-0.47118401527405
105,4111816819,0.014767,-0.700462,-0.067414,-0.710346,9.79609584808350,0.72475612163544,0.07524236291647,1.07174420356750,0.80375850200653,-0.56099498271942
106,4111833486,0.014717,-0.700474,-0.067484,-0.710327,9.81045532226562,0.73560833930969,0.05711208656430,0.98338043689728,0.41334417462349,-0.64333987236023
107,4111850153,0.014675,-0.700481,-0.067527,-0.710318,9.81497764587402,0.74158579111099,0.06680436432362,0.92773681879044,0.49650859832764,-0.48035338521004
108,4111866820,0.014615,-0.700469,-0.067538,-0.710330,9.80922222137451,0.75098180770874,0.07052217423916,0.67011135816574,0.68437767028809,-0.42185392975807
109,4111883487,0.014556,-0.700465,-0.067510,-0.710337,9.76521682739258,0.72260487079620,0.06556975841522,0.49347344040871,0.62721014022827,-0.22783777117729
110,4111900154,0.014496,-0.700447,-0.067476,-0.710360,9.72380828857422,0.72786116600037,0.09546198695898,0.47560858726501,0.77087181806564,-0.21093334257603
111,4111916821,0.014404,-0.700429,-0.067448,-0.710382,9.74083042144775,0.72207063436508,0.07459355145693,0.35933333635330,0.75029838085175,-0.39711847901344
112,4111933488,0.014300,-0.700412,-0.067436,-0.710402,9.73947811126709,0.70551139116287,0.08041867613792,0.34949806332588,0.73668515682220,-0.52913910150528
113,4111950155,0.014208,-0.700379,-0.067469,-0.710433,9.78840732574463,0.69927376508713,0.06404972821474,0.61693310737610,0.85714185237885,-0.70039850473404
114,4111966822,0.014161,-0.700347,-0.067524,-0.710461,9.80697250366211,0.71097022294998,0.05255253240466,0.96465748548508,0.86472946405411,-0.57748943567276
115,4111983489,0.014185,-0.700319,-0.067590,-0.710481,9.81987190246582,0.73099666833878,0.03396608680487,1.32646250724792,0.83294415473938,-0.28737449645996
116,4112000156,0.014237,-0.700308,-0.067658,-0.710485,9.84371566772461,0.73526817560196,0.06584446132183,1.49187576770782,0.68434572219849,-0.15398995578289
117,4112016823,0.014291,-0.700333,-0.067738,-0.710452,9.82870292663574,0.74593979120255,0.12834414839745,1.58353722095490,0.33265134692192,-0.17713743448257
118,4112033490,0.014309,-0.700370,-0.067835,-0.710405,9.82355976104736,0.75719946622849,0.11298874020576,1.51201367378235,0.19110274314880,-0.42663076519966
119,4112050157,0.014286,-0.700405,-0.067912,-0.710364,9.77492713928223,0.78079628944397,0.12982545793056,1.29145634174347,0.21595346927643,-0.53624671697617
120,4112066824,0.014241,-0.700428,-0.067942,-0.710339,9.79156303405762,0.79638904333115,0.14475244283676,0.92741662263870,0.35364091396332,-0.41842183470726
121,4112083491,0.014154,-0.700425,-0.067925,-0.710346,9.80831718444824,0.79108822345734,0.12953351438046,0.45994007587433,0.60607331991196,-0.41668662428856
122,4112100158,0.014028,-0.700412,-0.067860,-0.710367,9.80664730072021,0.78340756893158,0.11594066023827,-0.02106004208326,0.71125185489655,-0.37970185279846
123,4112116825,0.013917,-0.700399,-0.067808,-0.710387,9.79626369476318,0.74448066949844,0.11549709737301,0.10758615285158,0.71359550952911,-0.37351641058922
124,4112133492,0.013843,-0.700378,-0.067821,-0.710408,9.81037425994873,0.73029905557632,0.13143706321716,0.59600108861923,0.75511997938156,-0.50582522153854
125,4112150159,0.013782,-0.700377,-0.067873,-0.710405,9.81323051452637,0.72301667928696,0.12773151695728,0.88193494081497,0.55927896499634,-0.62245905399323
126,4112166826,0.013728,-0.700390,-0.067960,-0.710385,9.79667377471924,0.72993445396423,0.10020186007023,1.08214950561523,0.40348967909813,-0.74383759498596
127,4112183493,0.013670,-0.700398,-0.068052,-0.710370,9.78538227081299,0.73525285720825,0.10510634630919,1.06867694854736,0.44696721434593,-0.79138749837875
128,4112200160,0.013586,-0.700409,-0.068113,-0.710355,9.76496505737305,0.76774537563324,0.09961661696434,0.80468708276749,0.42426156997681,-0.76878440380096
129,4112216827,0.013514,-0.700451,-0.068152,-0.710310,9.76856517791748,0.76058828830719,0.08797720819712,0.76553797721863,0.13362145423889,-0.58497482538223
130,4112233494,0.013447,-0.700506,-0.068194,-0.710254,9.77708816528320,0.75745838880539,0.06872133165598,0.82542043924332,0.02675246447325,-0.56795513629913
131,4112250161,0.013390,-0.700570,-0.068243,-0.710187,9.78274822235107,0.74834573268890,0.05964289978147,0.87627440690994,-0.07396307587624,-0.55206245183945
132,4112266828,0.013348,-0.700653,-0.068290,-0.710101,9.77358245849609,0.75099360942841,0.08478028327227,0.98573672771454,-0.24341028928757,-0.45702019333839
133,4112283495,0.013349,-0.700736,-0.068373,-0.710011,9.79071426391602,0.76099294424057,0.06907357275486,1.34894418716431,-0.25581327080727,-0.41746780276299
134,4112300162,0.013353,-0.700816,-0.068479,-0.709922,9.80806732177734,0.76528090238571,0.05830407887697,1.45500004291534,-0.22791461646557,-0.51359868049622
135,4112316829,0.013396,-0.700905,-0.068599,-0.709822,9.82850170135498,0.76123321056366,0.04006941616535,1.73301279544830,-0.31234681606293,-0.38979962468147
136,4112333496,0.013451,-0.700999,-0.068738,-0.709715,9.81642055511475,0.76312345266342,0.06693386286497,1.89658820629120,-0.36580049991608,-0.41998416185379
137,4112350163,0.013479,-0.701099,-0.068859,-0.709603,9.79569339752197,0.80103075504303,0.08280933648348,1.65116739273071,-0.42997315526009,-0.45527848601341
138,4112366830,0.013457,-0.701197,-0.068924,-0.709500,9.81095027923584,0.81592065095901,0.10906240344048,1.17244052886963,-0.39499902725220,-0.44338142871857
139,4112383497,0.013434,-0.701282,-0.068969,-0.709413,9.84984111785889,0.79781037569046,0.05212867259979,0.99185818433762,-0.26141598820686,-0.34647578001022
140,4112400164,0.013462,-0.701346,-0.069040,-0.709342,9.79873466491699,0.80992233753204,0.05005061998963,1.46418190002441,-0.04117241501808,-0.24428109824657
141,4112416831,0.013532,-0.701424,-0.069078,-0.709260,9.76636314392090,0.80900084972382,0.07709655165672,1.39127552509308,-0.16378042101860,0.13649648427963
142,4112433498,0.013650,-0.701491,-0.069157,-0.709183,9.78938198089600,0.79054808616638,0.04551637172699,1.91000926494598,-0.04997037351131,0.16484972834587
143,4112450165,0.013697,-0.701522,-0.069232,-0.709145,9.83402633666992,0.80559062957764,0.06818586587906,1.53870213031769,0.27914643287659,-0.19198000431061
144,4112466832,0.013687,-0.701560,-0.069253,-0.709105,9.83211803436279,0.78957968950272,0.09565583616495,0.97881489992142,0.21321290731430,-0.19353593885899
145,4112483499,0.013655,-0.701595,-0.069214,-0.709075,9.80598163604736,0.77583342790604,0.06104223802686,0.59066730737686,0.26869001984596,-0.02303222008049
146,4112500166,0.013577,-0.701594,-0.069156,-0.709083,9.79955577850342,0.77212458848953,0.03679202124476,0.22235023975372,0.60998564958572,-0.17297534644604
147,4112516833,0.013542,-0.701585,-0.069128,-0.709095,9.81077480316162,0.79310816526413,0.06314232200384,0.61794483661652,0.68213027715683,-0.11313770711422
148,4112533500,0.013551,-0.701599,-0.069089,-0.709085,9.79855537414551,0.78549349308014,0.06668592244387,0.69065922498703,0.48302987217903,0.17455054819584
149,4112550167,0.013565,-0.701625,-0.069048,-0.709064,9.76735305786133,0.76047909259796,0.03862434625626,0.77886295318604,0.37609046697617,0.20558671653271
150,4112566834,0.013591,-0.701667,-0.069077,-0.709018,9.76114654541016,0.73636865615845,0.02893150225282,1.18648898601532,0.17720785737038,-0.06025387346745
151,4112583501,0.013635,-0.701702,-0.069163,-0.708975,9.75887870788574,0.74417585134506,0.02895980514586,1.56968069076538,0.23253127932549,-0.24867369234562
152,4112600168,0.013687,-0.701707,-0.069238,-0.708961,9.76650142669678,0.76925915479660,0.04267615452409,1.54312026500702,0.52598875761032,-0.17520366609097
153,4112616835,0.013736,-0.701700,-0.069315,-0.708960,9.78904342651367,0.77606099843979,0.03291483223438,1.53377175331116,0.63836449384689,-0.20648957788944
154,4112633502,0.013794,-0.701734,-0.069375,-0.708919,9.79896640777588,0.76063245534897,0.04285170882940,1.54472112655640,0.25869467854500,-0.06003617122769
155,4112650169,0.013879,-0.701786,-0.069455,-0.708858,9.81204319000244,0.76909315586090,0.01988043636084,1.69432497024536,0.08438745141029,-0.01019385550171
156,4112666836,0.013975,-0.701832,-0.069539,-0.708802,9.82029914855957,0.75978362560272,0.02724779210985,1.80427372455597,0.13432580232620,0.01621283777058
157,4112683503,0.014046,-0.701863,-0.069576,-0.708767,9.79917526245117,0.78493279218674,0.00241389544681,1.45035743713379,0.30932456254959,0.11754947900772
158,4112700170,0.014068,-0.701868,-0.069588,-0.708760,9.78740882873535,0.81782102584839,0.04910822957754,1.08900713920593,0.55019277334213,-0.02081031911075
159,4112716837,0.014039,-0.701896,-0.069545,-0.708738,9.80925369262695,0.79637128114700,0.06083843857050,0.58138263225555,0.34186547994614,0.01317773293704
160,4112733504,0.014033,-0.701963,-0.069500,-0.708676,9.79358291625977,0.73086595535278,0.09226243197918,0.68857818841934,-0.02589443698525,0.15871548652649
161,4112750171,0.014072,-0.702014,-0.069511,-0.708624,9.78705310821533,0.70064193010330,0.05495880171657,1.18846130371094,0.11555808782578,0.08949717879295
162,4112766838,0.014127,-0.702025,-0.069604,-0.708602,9.80999660491943,0.78151869773865,0.06351803243160,1.65597641468048,0.45357531309128,-0.24307096004486
163,4112783505,0.014193,-0.702007,-0.069670,-0.708612,9.82313156127930,0.82158690690994,0.02777276746929,1.51517701148987,0.75787341594696,-0.07987321168184
164,4112800172,0.014242,-0.701988,-0.069698,-0.708627,9.81663703918457,0.80140644311905,0.04683933034539,1.27253496646881,0.77700608968735,0.02800108119845
165,4112816839,0.014288,-0.701993,-0.069729,-0.708618,9.80583190917969,0.78146111965179,0.06888335943222,1.29289710521698,0.55169117450714,0.00655044848099
166,4112833506,0.014312,-0.702021,-0.069739,-0.708589,9.78781032562256,0.79286551475525,0.05634475871921,1.19049108028412,0.34417065978050,0.01589268073440
167,4112850173,0.014310,-0.702030,-0.069714,-0.708582,9.77018070220947,0.78821134567261,0.05583272874355,0.78603458404541,0.51319527626038,0.03719604015350
168,4112866840,0.014280,-0.702005,-0.069668,-0.708612,9.78613567352295,0.77738374471664,0.05204290151596,0.56506103277206,0.86037534475327,-0.00546831125394
169,4112883507,0.014230,-0.701977,-0.069598,-0.708648,9.78744411468506,0.75219392776489,0.05346860736609,0.35457584261894,0.89221203327179,0.00543629610911
170,4112900174,0.014199,-0.701961,-0.069560,-0.708668,9.79227828979492,0.75158756971359,0.03228615596890,0.49791085720062,0.75221937894821,-0.04554577916861
171,4112916841,0.014178,-0.701946,-0.069548,-0.708684,9.80961990356445,0.75047826766968,0.06078687682748,0.76216995716095,0.74178218841553,-0.13008050620556
172,4112933508,0.014188,-0.701925,-0.069569,-0.708703,9.81319046020508,0.77084267139435,0.04623814299703,1.08691334724426,0.79837340116501,-0.13072082400322
173,4112950175,0.014206,-0.701908,-0.069595,-0.708717,9.80158138275146,0.77223241329193,0.02992662787437,1.08828985691071,0.74661660194397,-0.12196766585112
174,4112966842,0.014219,-0.701900,-0.069629,-0.708722,9.79241466522217,0.76986575126648,0.02958898060024,1.14091777801514,0.66466236114502,-0.17476186156273
175,4112983509,0.014226,-0.701887,-0.069633,-0.708733,9.78196239471436,0.78757929801941,0.05594815686345,0.95496952533722,0.71419733762741,-0.05917174369097
176,4113000176,0.014210,-0.701882,-0.069584,-0.708744,9.78083992004395,0.77678918838501,0.05747978016734,0.59701925516129,0.67013067007065,0.07980918139219
177,4113016843,0.014172,-0.701863,-0.069525,-0.708769,9.78914260864258,0.76346457004547,0.05496905371547,0.44512307643890,0.79702877998352,0.02100241370499
178,4113033510,0.014141,-0.701846,-0.069497,-0.708789,9.78516769409180,0.72545927762985,0.02564445883036,0.59239608049393,0.76264369487762,-0.09598999470472
179,4113050177,0.014125,-0.701847,-0.069495,-0.708788,9.79053401947021,0.73513239622116,0.04413725808263,0.86282789707184,0.58172845840454,-0.14163182675838
180,4113066844,0.014126,-0.701853,-0.069529,-0.708780,9.78019428253174,0.76131671667099,0.04351110756397,1.13008999824524,0.53322440385818,-0.22489233314991
181,4113083511,0.014149,-0.701873,-0.069574,-0.708755,9.79743957519531,0.77708649635315,0.04347432032228,1.24780583381653,0.37735828757286,-0.16168017685413
182,4113100178,0.014172,-0.701907,-0.069612,-0.708717,9.80628967285156,0.78718346357346,0.04774025827646,1.24639737606049,0.26146087050438,-0.12169875204563
183,4113116845,0.014169,-0.701919,-0.069628,-0.708703,9.78470993041992,0.78605550527573,0.05449712648988,0.96643763780594,0.46495372056961,-0.15674972534180
184,4113133512,0.014139,-0.701933,-0.069616,-0.708691,9.78242111206055,0.79374492168427,0.03027245402336,0.73479628562927,0.46167528629303,-0.15523856878281
185,4113150179,0.014056,-0.701942,-0.069586,-0.708687,9.80770587921143,0.78987360000610,0.05861026793718,0.39039516448975,0.50074750185013,-0.32407745718956
186,4113166846,0.013996,-0.701963,-0.069551,-0.708671,9.84742355346680,0.74560022354126,0.03011510148644,0.51679384708405,0.39508226513863,-0.18370707333088
187,4113183513,0.014002,-0.701963,-0.069557,-0.708670,9.80044746398926,0.77037984132767,0.04155040159822,0.96054661273956,0.59440028667450,-0.06709245592356
188,4113200180,0.014007,-0.701968,-0.069551,-0.708666,9.75192356109619,0.79772228002548,0.04592701792717,0.91943824291229,0.55892670154572,-0.01813379116356
189,4113216847,0.014062,-0.701973,-0.069601,-0.708655,9.79300689697266,0.78420537710190,0.02952874265611,1.46454071998596,0.53583687543869,-0.04132609441876
190,4113233514,0.014106,-0.701942,-0.069671,-0.708679,9.83549213409424,0.78241127729416,0.02339534461498,1.44752097129822,0.88040459156036,-0.20966556668282
191,4113250181,0.014135,-0.701951,-0.069727,-0.708663,9.82566833496094,0.77413266897202,0.05461189523339,1.33733499050140,0.48153793811798,-0.19569382071495
192,4113266848,0.014158,-0.701954,-0.069719,-0.708660,9.81273078918457,0.75445348024368,0.06822138279676,0.98894470930099,0.58002519607544,0.08302356302738
193,4113283515,0.014116,-0.701905,-0.069641,-0.708718,9.79593181610107,0.78648632764816,0.01456601545215,0.30947822332382,1.10348474979401,0.07352124899626
194,4113300182,0.014067,-0.701839,-0.069551,-0.708792,9.81245136260986,0.79746609926224,0.01400821562856,0.23963244259357,1.26622784137726,0.08882484585047
195,4113316849,0.013978,-0.701788,-0.069426,-0.708857,9.77465629577637,0.76672685146332,0.03543831780553,-0.15293341875076,1.12454473972321,0.06709887087345
196,4113333516,0.013886,-0.701768,-0.069337,-0.708888,9.76159095764160,0.71841704845428,0.01773442700505,0.02748882956803,0.81254369020462,-0.10567799210548
197,4113350183,0.013827,-0.701779,-0.069343,-0.708877,9.74852752685547,0.69852852821350,0.02790543995798,0.66720443964005,0.45752605795860,-0.38137307763100
198,4113366850,0.013827,-0.701806,-0.069435,-0.708842,9.76494026184082,0.73475766181946,0.04207734763622,1.41040802001953,0.29220885038376,-0.49109786748886
199,4113383517,0.013874,-0.701822,-0.069565,-0.708812,9.74993610382080,0.75436884164810,0.01381537318230,1.76637339591980,0.38340288400650,-0.46521624922752
200,4113400184,0.013919,-0.701838,-0.069681,-0.708784,9.75257682800293,0.78858667612076,0.02711522579193,1.69832062721252,0.39190632104874,-0.39622846245766
201,4113416851,0.013937,-0.701871,-0.069768,-0.708742,9.78591918945312,0.79605251550674,0.07134530693293,1.43448412418365,0.23761542141438,-0.38232079148293
202,4113433518,0.013918,-0.701927,-0.069808,-0.708683,9.81135940551758,0.80178546905518,0.05515310540795,1.05106186866760,0.02184122987092,-0.32316821813583
203,4113450185,0.013848,-0.701980,-0.069803,-0.708633,9.80038547515869,0.78647595643997,0.06196136772633,0.57661223411560,0.06739340722561,-0.36188182234764
204,4113466852,0.013771,-0.702027,-0.069778,-0.708590,9.80735492706299,0.78150856494904,0.03874820470810,0.44584664702415,0.12513723969460,-0.29930996894836
205,4113483519,0.013693,-0.702064,-0.069777,-0.708555,9.78620910644531,0.78335392475128,0.03113446012139,0.54952681064606,0.20982563495636,-0.42313453555107
206,4113500186,0.013647,-0.702077,-0.069781,-0.708542,9.79731655120850,0.80895751714706,0.03813467919827,0.71550995111465,0.44693520665169,-0.30995208024979
207,4113516853,0.013643,-0.702115,-0.069786,-0.708505,9.81468391418457,0.78807598352432,0.06362491101027,0.89919143915176,0.22848448157310,-0.08902974426746
208,4113533520,0.013642,-0.702150,-0.069787,-0.708470,9.78911495208740,0.77977347373962,0.04699547588825,0.96659117937088,0.26019299030304,-0.06134241074324
209,4113550187,0.013634,-0.702152,-0.069818,-0.708465,9.81504154205322,0.78171712160110,0.02857770584524,0.99770420789719,0.55705058574677,-0.25391790270805
210,4113566854,0.013614,-0.702128,-0.069860,-0.708485,9.82351112365723,0.80963510274887,0.03485317528248,0.95044881105423,0.78978037834167,-0.38654044270515
211,4113583521,0.013576,-0.702109,-0.069849,-0.708505,9.78882884979248,0.80026286840439,0.01555070094764,0.65320700407028,0.76834893226624,-0.21314887702465
212,4113600188,0.013586,-0.702098,-0.069851,-0.708516,9.80843544006348,0.78712177276611,0.01778374798596,0.94126677513123,0.70732033252716,-0.04175510630012
213,4113616855,0.013622,-0.702092,-0.069857,-0.708520,9.80114364624023,0.78765147924423,0.03194375336170,1.14360713958740,0.65957826375961,0.07622339576483
214,4113633522,0.013663,-0.702094,-0.069852,-0.708518,9.77831077575684,0.79673302173615,0.05374843999743,1.08132338523865,0.59408015012741,0.15173603594303
215,4113650189,0.013669,-0.702091,-0.069822,-0.708524,9.77765083312988,0.81073987483978,0.04510539025068,0.79391044378281,0.64985185861588,0.10459586232901
216,4113666856,0.013662,-0.702081,-0.069786,-0.708538,9.77164840698242,0.77697247266769,0.05165519565344,0.72593420743942,0.71186012029648,0.05813441425562
217,4113683523,0.013630,-0.702080,-0.069743,-0.708544,9.79924201965332,0.76397210359573,0.03539087995887,0.60967826843262,0.62745344638824,-0.01891497895122
218,4113700190,0.013620,-0.702072,-0.069733,-0.708552,9.80397415161133,0.75800049304962,0.01918142288923,0.77530926465988,0.66906780004501,-0.07263121008873
219,4113716857,0.013614,-0.702061,-0.069721,-0.708565,9.80426025390625,0.75470465421677,0.03616030886769,0.80782455205917,0.70555305480957,-0.05437576025724
220,4113733524,0.013643,-0.702079,-0.069717,-0.708546,9.79413604736328,0.76605409383774,0.03140237554908,1.08388459682465,0.43797072768211,0.10280296951532
221,4113750191,0.013686,-0.702107,-0.069734,-0.708517,9.78588962554932,0.78361821174622,0.01198120508343,1.21545720100403,0.34032234549522,0.07019800692797
222,4113766858,0.013727,-0.702145,-0.069734,-0.708479,9.78483200073242,0.78032082319260,0.02221369929612,1.10918354988098,0.24680398404598,0.15539224445820
223,4113783525,0.013745,-0.702182,-0.069718,-0.708443,9.78515052795410,0.76966804265976,0.03376451507211,1.00769329071045,0.25994327664375,0.11480893194675
224,4113800192,0.013738,-0.702194,-0.069702,-0.708433,9.79279804229736,0.77852809429169,0.03913442045450,0.79866796731949,0.48568081855774,-0.01963853649795
225,4113816859,0.013721,-0.702205,-0.069674,-0.708425,9.79505157470703,0.77807945013046,0.04527099803090,0.71339696645737,0.50388497114182,-0.01319053955376
226,4113833526,0.013710,-0.702212,-0.069648,-0.708420,9.80906009674072,0.76827931404114,0.04643109813333,0.72697812318802,0.52950417995453,0.00526341004297
227,4113850193,0.013698,-0.702231,-0.069652,-0.708402,9.80564594268799,0.75492107868195,0.02517492137849,0.84962439537048,0.40868902206421,-0.13580493628979
228,4113866860,0.013730,-0.702251,-0.069678,-0.708378,9.81377601623535,0.76543170213699,0.04889070987701,1.18947935104370,0.39825189113617,-0.02902559377253
229,4113883527,0.013791,-0.702262,-0.069713,-0.708363,9.80735015869141,0.76989758014679,0.04763427004218,1.36501598358154,0.49600267410278,0.06441593170166
230,4113900194,0.013841,-0.702283,-0.069732,-0.708339,9.81609153747559,0.79396885633469,0.04618227481842,1.26866757869720,0.39884734153748,0.09054730087519
231,4113916861,0.013862,-0.702299,-0.069738,-0.708322,9.81956863403320,0.78801411390305,0.01534000597894,1.08534455299377,0.45192965865135,0.01843473687768
232,4113933528,0.013874,-0.702311,-0.069745,-0.708309,9.80756187438965,0.78271895647049,0.03371319174767,1.01781678199768,0.48115381598473,-0.04041684046388
233,4113950195,0.013875,-0.702316,-0.069731,-0.708306,9.81264972686768,0.77836030721664,0.02403590269387,0.90808552503586,0.56403011083603,0.00087083183462
234,4113966862,0.013888,-0.702312,-0.069726,-0.708310,9.78875350952148,0.77178877592087,0.03613923862576,0.95322781801224,0.64114987850189,0.01978581026196
235,4113983529,0.013879,-0.702301,-0.069706,-0.708323,9.79381084442139,0.78492432832718,0.06003720685840,0.78714227676392,0.71168726682663,-0.02957626432180
236,4114000196,0.013840,-0.702295,-0.069666,-0.708334,9.82513904571533,0.77558505535126,0.03873505070806,0.53199493885040,0.66611588001251,-0.06888535618782
237,4114016863,0.013844,-0.702289,-0.069665,-0.708340,9.83086681365967,0.75901699066162,-0.00831524841487,0.90854644775391,0.65382814407349,-0.05150073021650
238,4114033530,0.013860,-0.702273,-0.069670,-0.708355,9.75930023193359,0.78227466344833,0.01567472890019,1.01010084152222,0.75626611709595,-0.02432566322386
239,4114050197,0.013914,-0.702288,-0.069693,-0.708337,9.77573394775391,0.77068638801575,0.02816814742982,1.27987289428711,0.46113738417625,0.09057290852070
240,4114066864,0.013996,-0.702288,-0.069757,-0.708329,9.80990505218506,0.76185417175293,0.02066153287888,1.59837341308594,0.59035992622375,0.01874849572778
241,4114083531,0.014054,-0.702297,-0.069830,-0.708311,9.83444976806641,0.78535175323486,0.05458664149046,1.55236649513245,0.48512369394302,-0.13486365973949
242,4114100198,0.014078,-0.702304,-0.069852,-0.708302,9.81502056121826,0.77033752202988,0.06540630757809,1.15025997161865,0.52359402179718,-0.05290303379297
243,4114116865,0.014061,-0.702285,-0.069809,-0.708325,9.81159687042236,0.77135604619980,0.03890859708190,0.57894307374954,0.79535758495331,0.04025676473975
244,4114133532,0.014020,-0.702255,-0.069738,-0.708363,9.80134296417236,0.79394745826721,0.02065237425268,0.37519398331642,0.91599339246750,0.05629030987620
245,4114150199,0.013971,-0.702232,-0.069617,-0.708399,9.79812526702881,0.80525982379913,0.05540736019611,0.08037264645100,0.87485295534134,0.25811195373535
246,4114166866,0.013894,-0.702221,-0.069464,-0.708426,9.76929664611816,0.77170979976654,0.02732579968870,-0.13777710497379,0.76734364032745,0.28536385297775
247,4114183533,0.013831,-0.702240,-0.069403,-0.708415,9.75874328613281,0.71338862180710,0.02824138849974,0.32207328081131,0.42488265037537,-0.07589042931795
248,4114200200,0.013811,-0.702261,-0.069441,-0.708391,9.76934337615967,0.69637227058411,0.03576232120395,1.01387226581573,0.36601185798645,-0.33464270830154
249,4114216867,0.013832,-0.702251,-0.069543,-0.708389,9.75828361511230,0.74657785892487,0.03952683880925,1.50968945026398,0.63572007417679,-0.46453115344048
250,4114233534,0.013855,-0.702229,-0.069646,-0.708401,9.77422904968262,0.78609538078308,0.04088392481208,1.49895775318146,0.76051795482635,-0.47145941853523
251,4114250201,0.013844,-0.702229,-0.069744,-0.708392,9.81573963165283,0.81723177433014,0.04685136675835,1.35349035263062,0.53942906856537,-0.59515589475632
252,4114266868,0.013818,-0.702248,-0.069850,-0.708363,9.84353733062744,0.81484067440033,-0.00213019759394,1.32435584068298,0.34212163090706,-0.69735056161880
253,4114283535,0.013767,-0.702258,-0.069940,-0.708345,9.84999942779541,0.80801552534103,0.01806965470314,1.11683535575867,0.42548456788063,-0.74862074851990
254,4114300202,0.013726,-0.702274,-0.069994,-0.708325,9.81621170043945,0.77568304538727,0.02598434872925,0.99736493825912,0.39886015653610,-0.51448231935501
255,4114316869,0.013663,-0.702269,-0.070008,-0.708330,9.80091094970703,0.78254371881485,0.05393620952964,0.68480026721954,0.61601746082306,-0.44995108246803
256,4114333536,0.013603,-0.702243,-0.069993,-0.708358,9.79626560211182,0.80464303493500,0.08117783814669,0.53292983770370,0.82782161235809,-0.30865862965584
257,4114350203,0.013543,-0.702240,-0.069954,-0.708365,9.79447364807129,0.78532797098160,0.03576564788818,0.37949696183205,0.61725962162018,-0.17031162977219
258,4114366870,0.013515,-0.702250,-0.069931,-0.708359,9.76528835296631,0.76957690715790,0.03328344970942,0.68787395954132,0.51142805814743,-0.09548415243626
259,4114383537,0.013525,-0.702231,-0.069985,-0.708372,9.79602813720703,0.75703305006027,-0.01423033419997,1.21279978752136,0.74904340505600,-0.28835418820381
260,4114400204,0.013595,-0.702193,-0.070109,-0.708397,9.85250759124756,0.80338686704636,0.01497500203550,1.77195692062378,0.91914367675781,-0.35093238949776
261,4114416871,0.013671,-0.702160,-0.070187,-0.708419,9.81833744049072,0.82783031463623,0.00838924292475,1.62912118434906,0.88909345865250,-0.09935805946589
262,4114433538,0.013761,-0.702138,-0.070218,-0.708436,9.79026412963867,0.82159268856049,0.02799256332219,1.49228549003601,0.82720053195953,0.21098460257053
263,4114450205,0.013849,-0.702138,-0.070219,-0.708435,9.79307270050049,0.81645148992538,0.06624332070351,1.34053659439087,0.63069355487823,0.35002952814102
264,4114466872,0.013911,-0.702145,-0.070173,-0.708431,9.78224182128906,0.80734086036682,0.03453042730689,1.00905072689056,0.58313715457916,0.45871064066887
265,4114483539,0.013925,-0.702138,-0.070094,-0.708445,9.75751686096191,0.78617799282074,0.02647362276912,0.59532243013382,0.71270537376404,0.37794739007950
266,4114500206,0.013919,-0.702120,-0.070017,-0.708471,9.75914382934570,0.77293181419373,0.02071805298328,0.50105482339859,0.81062275171280,0.25778540968895
267,4114516873,0.013928,-0.702110,-0.069981,-0.708484,9.80057716369629,0.75448334217072,0.04484349861741,0.77943283319473,0.71833384037018,0.13985817134380
268,4114533540,0.013937,-0.702104,-0.069962,-0.708492,9.80848312377930,0.75238358974457,0.05479754507542,0.92952960729599,0.67792326211929,0.06188668310642
269,4114550207,0.013975,-0.702107,-0.069983,-0.708487,9.80754280090332,0.77682709693909,0.04298188909888,1.21018087863922,0.57444798946381,0.01488738134503
270,4114566874,0.014025,-0.702118,-0.070016,-0.708471,9.79847812652588,0.80046427249908,0.06423093378544,1.30135560035706,0.48260724544525,0.02396068163216
271,4114583541,0.014065,-0.702133,-0.070048,-0.708453,9.79598903656006,0.79192417860031,0.05085256695747,1.25046968460083,0.45326149463654,-0.02310265414417
272,4114600208,0.014096,-0.702146,-0.070070,-0.708436,9.80479240417480,0.78808671236038,0.06828661262989,1.15867376327515,0.46399328112602,-0.02083593048155
273,4114616875,0.014116,-0.702145,-0.070073,-0.708437,9.81072521209717,0.79176771640778,0.08832684159279,1.04160439968109,0.61283510923386,0.01764714904130
274,4114633542,0.014122,-0.702127,-0.070095,-0.708452,9.80082702636719,0.76693719625473,0.07183390855789,0.97779697179794,0.75565791130066,-0.16000254452229
275,4114650209,0.014119,-0.702102,-0.070081,-0.708479,9.82023906707764,0.78578281402588,0.03929292038083,0.80957257747650,0.84575051069260,-0.03412892296910
276,4114666876,0.014096,-0.702063,-0.070035,-0.708522,9.79197692871094,0.80268383026123,0.06182411313057,0.57585674524307,0.99295943975449,0.01739742606878
277,4114683543,0.014081,-0.702036,-0.070006,-0.708553,9.79945659637451,0.77270156145096,0.01923295296729,0.66877955198288,0.86880195140839,-0.02081031538546
278,4114700210,0.014057,-0.702010,-0.069984,-0.708581,9.81063556671143,0.76011162996292,0.05817757919431,0.70012950897217,0.84792762994766,-0.09968462586403
279,4114716877,0.014055,-0.701988,-0.069983,-0.708603,9.79658508300781,0.76299816370010,0.05672726780176,0.86150234937668,0.80675518512726,-0.08736491948366
280,4114733544,0.014070,-0.701969,-0.070011,-0.708618,9.79885196685791,0.77455896139145,0.02565739676356,1.10790944099426,0.76504498720169,-0.14276520907879
281,4114750211,0.014116,-0.701958,-0.070031,-0.708627,9.79864883422852,0.77860510349274,0.03159603849053,1.21986889839172,0.71345454454422,0.05342808738351
282,4114766878,0.014161,-0.701951,-0.070053,-0.708631,9.79748916625977,0.76920026540756,0.02545217238367,1.22930061817169,0.66989374160767,0.04041043668985
283,4114783545,0.014199,-0.701938,-0.070068,-0.708641,9.79239463806152,0.78318828344345,0.05561625957489,1.20671033859253,0.73099285364151,0.03289311006665
284,4114800212,0.014249,-0.701930,-0.070059,-0.708649,9.80783653259277,0.77788597345352,0.04195136949420,1.09947001934052,0.69612115621567,0.21517871320248
285,4114816879,0.014265,-0.701932,-0.070021,-0.708650,9.80996417999268,0.78508085012436,0.04567522183061,0.81497687101364,0.60627180337906,0.18814450502396
286,4114833546,0.014249,-0.701931,-0.069946,-0.708659,9.78222751617432,0.78400886058807,0.04483652487397,0.52144891023636,0.65135645866394,0.21421179175377
287,4114850213,0.014238,-0.701938,-0.069891,-0.708658,9.78044795989990,0.76162129640579,0.05206957831979,0.58381587266922,0.55518084764481,0.14226573705673
288,4114866880,0.014266,-0.701936,-0.069888,-0.708660,9.79761886596680,0.74761050939560,0.04970123246312,0.91527622938156,0.61734926700592,0.08253052085638
289,4114883547,0.014305,-0.701917,-0.069899,-0.708676,9.83252716064453,0.75922745466232,0.03011601977050,1.18212223052979,0.78864705562592,0.05887719243765
290,4114900214,0.014350,-0.701890,-0.069932,-0.708699,9.83249568939209,0.77151322364807,0.04821390286088,1.29107868671417,0.85417717695236,-0.02799468114972
291,4114916881,0.014357,-0.701868,-0.069918,-0.708722,9.82822799682617,0.77421629428864,0.09316651523113,0.90504401922226,0.82219970226288,0.01688517257571
292,4114933548,0.014354,-0.701834,-0.069884,-0.708759,9.84128570556641,0.76106655597687,0.05163127928972,0.58405274152756,0.93667560815811,0.05746849253774
293,4114950215,0.014358,-0.701775,-0.069865,-0.708819,9.80677890777588,0.79391103982925,0.04576347395778,0.85760289430618,1.17344582080841,0.00720997434109
294,4114966882,0.014300,-0.701705,-0.069768,-0.708899,9.76658821105957,0.81280285120010,0.05877692997456,0.13976852595806,1.31245875358582,0.07364932447672
295,4114983549,0.014299,-0.701627,-0.069724,-0.708981,9.80327129364014,0.77572673559189,0.05570326372981,0.65213763713837,1.37610626220703,0.09609884023666
296,4115000216,0.014316,-0.701539,-0.069714,-0.709068,9.85448455810547,0.78119719028473,0.06185511872172,0.90873211622238,1.45067131519318,0.00331044127233
297,4115016883,0.014351,-0.701466,-0.069714,-0.709140,9.88323307037354,0.76558172702789,0.08091254532337,1.13133847713470,1.31911802291870,0.06190588697791
298,4115033550,0.014386,-0.701394,-0.069663,-0.709216,9.82798767089844,0.76498359441757,0.06730288267136,0.79752188920975,1.34011411666870,0.30071231722832
299,4115050217,0.014363,-0.701301,-0.069562,-0.709318,9.80077743530273,0.79780906438828,0.07717064768076,0.29907310009003,1.54491329193115,0.25574922561646
300,4115066884,0.014330,-0.701203,-0.069420,-0.709430,9.79823398590088,0.81785959005356,0.06208825483918,0.00931661948562,1.60885536670685,0.39702886343002
301,4115083551,0.014267,-0.701107,-0.069192,-0.709548,9.77255344390869,0.78657698631287,0.05377431213856,-0.50489032268524,1.63061320781708,0.66026335954666
302,4115100218,0.014214,-0.701013,-0.069004,-0.709660,9.74719810485840,0.72244668006897,0.05314291268587,-0.30325436592102,1.58737897872925,0.52333784103394
303,4115116885,0.014212,-0.700950,-0.068952,-0.709727,9.77819919586182,0.69635832309723,0.04600352048874,0.68281537294388,1.23528134822845,0.13342295587063
304,4115133552,0.014308,-0.700880,-0.069027,-0.709788,9.84313297271729,0.71148622035980,0.05633334442973,1.75015425682068,1.27368116378784,-0.00126142555382
305,4115150219,0.014485,-0.700797,-0.069136,-0.709855,9.86325073242188,0.73870468139648,0.06181984022260,2.25774669647217,1.39463710784912,0.21724693477154
306,4115166886,0.014681,-0.700732,-0.069278,-0.709901,9.89172458648682,0.76007175445557,0.04931869357824,2.51675534248352,1.21055865287781,0.17165631055832
307,4115183553,0.014856,-0.700687,-0.069414,-0.709928,9.89584922790527,0.75728917121887,0.06659124046564,2.51109480857849,1.02881085872650,0.10081157833338
308,4115200220,0.015079,-0.700649,-0.069574,-0.709946,9.90367603302002,0.76176524162292,0.05733861774206,2.76632523536682,0.95850414037704,0.23045028746128
309,4115216887,0.015334,-0.700586,-0.069752,-0.709985,9.88348865509033,0.76758706569672,0.05808430165052,2.93972277641296,1.19274497032166,0.28001081943512
310,4115233554,0.015585,-0.700501,-0.069906,-0.710048,9.80334663391113,0.76893228292465,0.09099188446999,2.87384080886841,1.41807913780212,0.36693391203880
311,4115250221,0.015857,-0.700411,-0.070046,-0.710117,9.78614234924316,0.77844166755676,0.09828037768602,2.84528255462646,1.48253345489502,0.53198212385178
312,4115266888,0.016133,-0.700311,-0.070158,-0.710199,9.77794075012207,0.81393265724182,0.08064968883991,2.76037001609802,1.59837329387665,0.67835229635239
313,4115283555,0.016406,-0.700203,-0.070247,-0.710291,9.76646137237549,0.79580861330032,0.11631625890732,2.63333773612976,1.68939435482025,0.77467525005341
314,4115300222,0.016641,-0.700044,-0.070322,-0.710434,9.76168632507324,0.77794671058655,0.09423790127039,2.35923027992249,2.16468906402588,0.62161374092102
315,4115316889,0.016840,-0.699858,-0.070389,-0.710606,9.77191829681396,0.79221045970917,0.07779660820961,2.13857698440552,2.42268610000610,0.46775829792023
316,4115333556,0.017029,-0.699644,-0.070364,-0.710815,9.75509262084961,0.82247549295425,0.09190320968628,1.62264764308929,2.74229407310486,0.84779953956604
317,4115350223,0.017166,-0.699409,-0.070233,-0.711055,9.75761604309082,0.80761981010437,0.07117861509323,0.85116767883301,2.97937774658203,1.08763682842255
318,4115366890,0.017264,-0.699214,-0.070034,-0.711264,9.75917243957520,0.74510043859482,0.12281801551580,0.33687743544579,2.62724184989929,1.24776756763458
319,4115383557,0.017379,-0.699057,-0.069850,-0.711434,9.73858833312988,0.68414795398712,0.10997755080462,0.49763554334641,2.26199197769165,1.27900218963623
320,4115400224,0.017520,-0.698933,-0.069682,-0.711569,9.70436763763428,0.69124203920364,0.12768030166626,0.72129851579666,1.93979728221893,1.35388112068176
321,4115416891,0.017651,-0.698832,-0.069509,-0.711682,9.68813610076904,0.69013917446136,0.11881744861603,0.65955263376236,1.71275973320007,1.33659875392914
322,4115433558,0.017785,-0.698724,-0.069394,-0.711795,9.69713020324707,0.67355960607529,0.10936512798071,0.95518726110458,1.74702954292297,1.07219886779785
323,4115450225,0.017922,-0.698639,-0.069300,-0.711885,9.73527812957764,0.66310292482376,0.11012752354145,1.08031165599823,1.52344977855682,1.00430595874786
324,4115466892,0.018099,-0.698588,-0.069271,-0.711933,9.77929115295410,0.66558301448822,0.09545977413654,1.60882973670959,1.16616559028625,0.90138137340546
325,4115483559,0.018335,-0.698583,-0.069309,-0.711928,9.83956146240234,0.66199660301208,0.12565393745899,2.23274850845337,0.70373451709747,0.90433329343796
326,4115500226,0.018600,-0.698613,-0.069365,-0.711886,9.86378669738770,0.66890668869019,0.14063939452171,2.47934770584106,0.36640247702599,0.97242462635040
327,4115516893,0.018846,-0.698682,-0.069395,-0.711810,9.83026599884033,0.71260792016983,0.15312996506691,2.27019453048706,0.00466151162982,1.03342115879059
328,4115533560,0.019040,-0.698746,-0.069388,-0.711742,9.80034637451172,0.74409580230713,0.16930505633354,1.83591818809509,0.05587410181761,0.95361202955246
329,4115550227,0.019162,-0.698806,-0.069311,-0.711687,9.77731800079346,0.74898779392242,0.20487512648106,1.14112257957458,0.10179767757654,0.93394142389297
330,4115566894,0.019208,-0.698836,-0.069177,-0.711670,9.77410507202148,0.72383540868759,0.17836095392704,0.48482924699783,0.40874665975571,0.81017452478409
331,4115583561,0.019211,-0.698837,-0.069052,-0.711681,9.79839134216309,0.67010605335236,0.17349256575108,0.31644487380981,0.66481596231461,0.54539680480957
332,4115600228,0.019211,-0.698820,-0.068964,-0.711706,9.79163360595703,0.65851670503616,0.17843961715698,0.47184997797012,0.81157684326172,0.34511837363243
333,4115616895,0.019257,-0.698799,-0.068962,-0.711726,9.78221607208252,0.67006510496140,0.19256779551506,1.12157368659973,0.81519460678101,0.14515358209610
334,4115633562,0.019324,-0.698771,-0.068993,-0.711749,9.77703094482422,0.70325452089310,0.14270141720772,1.37303268909454,0.87070369720459,0.09786612540483
335,4115650229,0.019378,-0.698736,-0.069020,-0.711778,9.80156517028809,0.71928888559341,0.12545475363731,1.28751206398010,0.92773032188416,0.03925146162510
336,4115666896,0.019438,-0.698717,-0.069031,-0.711795,9.81910800933838,0.71357387304306,0.09453746676445,1.25126993656158,0.80171591043472,0.15750530362129
337,4115683563,0.019448,-0.698706,-0.068988,-0.711809,9.79561901092529,0.71417129039764,0.15683104097843,0.73275363445282,0.72541558742523,0.18238802254200
338,4115700230,0.019426,-0.698706,-0.068873,-0.711821,9.81651020050049,0.70610779523849,0.14672105014324,0.24914756417274,0.65964227914810,0.37146100401878
339,4115716897,0.019390,-0.698707,-0.068750,-0.711833,9.81085300445557,0.66779935359955,0.12451630830765,0.13514542579651,0.64520955085754,0.34062328934669
340,4115733564,0.019336,-0.698712,-0.068612,-0.711843,9.76772022247314,0.65345174074173,0.12846809625626,-0.02302581444383,0.61569726467133,0.33024376630783
341,4115750231,0.019282,-0.698713,-0.068513,-0.711852,9.73956871032715,0.66605418920517,0.11356958001852,0.17375014722347,0.62206196784973,0.14154218137264
342,4115766898,0.019251,-0.698736,-0.068447,-0.711837,9.75533199310303,0.66856122016907,0.13143277168274,0.45059138536453,0.40720346570015,0.11036512255669
343,4115783565,0.019261,-0.698781,-0.068400,-0.711798,9.76117515563965,0.64283758401871,0.11174217611551,0.74970287084579,0.19885057210922,0.22442486882210
344,4115800232,0.019332,-0.698825,-0.068428,-0.711750,9.74493789672852,0.66147768497467,0.11047646403313,1.42640328407288,0.18348295986652,0.16917827725410
345,4115816899,0.019412,-0.698884,-0.068456,-0.711687,9.77594566345215,0.68384099006653,0.12211045622826,1.45936024188995,0.04025035351515,0.22753041982651
346,4115833566,0.019497,-0.698942,-0.068527,-0.711621,9.79998588562012,0.68874323368073,0.13057076931000,1.68955469131470,0.02198850363493,0.03677984327078
347,4115850233,0.019519,-0.698993,-0.068546,-0.711569,9.80401611328125,0.70224106311798,0.16347044706345,1.13135766983032,0.10763096064329,-0.02195008285344
348,4115866900,0.019471,-0.699061,-0.068494,-0.711507,9.83245658874512,0.71185481548309,0.16895434260368,0.45609170198441,-0.04967583343387,-0.01328018400818
349,4115883567,0.019400,-0.699124,-0.068356,-0.711461,9.82170677185059,0.71205866336823,0.13368578255177,-0.08495733886957,0.05585489794612,0.28077283501625
350,4115900234,0.019298,-0.699153,-0.068158,-0.711455,9.82415294647217,0.69431704282761,0.11647349596024,-0.55425244569778,0.39994230866432,0.39269387722015
351,4115916901,0.019209,-0.699175,-0.068001,-0.711450,9.77872753143311,0.69203901290894,0.13584581017494,-0.28635641932487,0.44343268871307,0.26452797651291
352,4115933568,0.019108,-0.699188,-0.067849,-0.711454,9.74707126617432,0.68137836456299,0.11130587756634,-0.30567476153374,0.52454811334610,0.17063181102276
353,4115950235,0.018999,-0.699200,-0.067720,-0.711458,9.75376129150391,0.65452784299850,0.11297951638699,-0.24105392396450,0.52702617645264,0.01927996054292
354,4115966902,0.018899,-0.699223,-0.067668,-0.711442,9.77725696563721,0.62977749109268,0.12378310412169,0.18211911618710,0.36348265409470,-0.29700487852097
355,4115983569,0.018860,-0.699229,-0.067719,-0.711433,9.83798217773438,0.61343818902969,0.09002905339003,0.97136807441711,0.49810943007469,-0.49680954217911
356,4116000236,0.018877,-0.699219,-0.067835,-0.711431,9.86250972747803,0.64842998981476,0.09422010928392,1.55351912975311,0.62646746635437,-0.55514252185822
357,4116016903,0.018917,-0.699245,-0.067962,-0.711393,9.83933925628662,0.66868358850479,0.08135138452053,1.75077509880066,0.28919938206673,-0.47033885121346
358,4116033570,0.018929,-0.699309,-0.068061,-0.711321,9.81982994079590,0.70819085836411,0.10877786576748,1.48038828372955,-0.06970495730639,-0.44399607181549
359,4116050237,0.018898,-0.699400,-0.068125,-0.711225,9.82642555236816,0.70421320199966,0.12220896780491,1.12076687812805,-0.33386155962944,-0.47671642899513
360,4116066904,0.018865,-0.699489,-0.068161,-0.711135,9.82962036132812,0.69708323478699,0.11471179872751,0.95564174652100,-0.29181829094887,-0.34993347525597
361,4116083571,0.018811,-0.699568,-0.068174,-0.711058,9.77501010894775,0.67075806856155,0.13287065923214,0.74593144655228,-0.18695348501205,-0.34946608543396
362,4116100238,0.018736,-0.699641,-0.068191,-0.710986,9.75964450836182,0.68109959363937,0.13887885212898,0.63317149877548,-0.14612683653831,-0.47491702437401
363,4116116905,0.018641,-0.699708,-0.068236,-0.710918,9.78291797637939,0.67873191833496,0.11871591955423,0.70846647024155,-0.10514012724161,-0.71139270067215
364,4116133572,0.018537,-0.699755,-0.068299,-0.710869,9.79566955566406,0.66962617635727,0.10840857028961,0.74529755115509,0.07370695471764,-0.85880672931671
365,4116150239,0.018431,-0.699769,-0.068411,-0.710847,9.82522201538086,0.68635070323944,0.12904712557793,0.97255265712738,0.35554271936417,-1.11450457572937
366,4116166906,0.018355,-0.699755,-0.068542,-0.710851,9.84630107879639,0.72919160127640,0.08106213808060,1.20503902435303,0.63578402996063,-1.08047807216644
367,4116183573,0.018327,-0.699763,-0.068635,-0.710834,9.86642265319824,0.74878543615341,0.08867946267128,1.25050151348114,0.44837594032288,-0.64667588472366
368,4116200240,0.018309,-0.699768,-0.068699,-0.710823,9.85138511657715,0.75041961669922,0.10026410222054,1.12094616889954,0.50531935691833,-0.46129754185677
369,4116216907,0.018264,-0.699795,-0.068724,-0.710796,9.81612873077393,0.75907641649246,0.11014942079782,0.82184106111526,0.30692335963249,-0.39695844054222
370,4116233574,0.018179,-0.699824,-0.068701,-0.710771,9.78415298461914,0.73547178506851,0.10237291455269,0.38341569900513,0.29672950506210,-0.35866743326187
371,4116250241,0.018047,-0.699822,-0.068627,-0.710784,9.75728511810303,0.70448422431946,0.12080781906843,-0.08555921912193,0.61165046691895,-0.36606949567795
372,4116266908,0.017892,-0.699809,-0.068539,-0.710809,9.76728248596191,0.67545634508133,0.11304154247046,-0.26300400495529,0.72191315889359,-0.40964955091476
373,4116283575,0.017744,-0.699796,-0.068500,-0.710829,9.75816917419434,0.66910701990128,0.11195579916239,-0.06892377138138,0.68564552068710,-0.61611342430115
374,4116300242,0.017620,-0.699788,-0.068515,-0.710839,9.78928375244141,0.67051905393600,0.09504605084658,0.38149476051331,0.61888599395752,-0.75092589855194
375,4116316909,0.017537,-0.699797,-0.068611,-0.710823,9.80136966705322,0.67819893360138,0.06215230748057,0.98299622535706,0.43065837025642,-0.93638759851456
376,4116333576,0.017459,-0.699813,-0.068742,-0.710796,9.84630298614502,0.67458081245422,0.09724017977715,1.18858945369720,0.33409842848778,-1.06922769546509
377,4116350243,0.017375,-0.699812,-0.068899,-0.710785,9.94561195373535,0.68501436710358,0.09364724904299,1.32222366333008,0.49037435650826,-1.23759269714355
378,4116366910,0.017328,-0.699784,-0.069078,-0.710796,9.94892406463623,0.70341515541077,0.11597937345505,1.56128609180450,0.74557286500931,-1.17196679115295
379,4116383577,0.017251,-0.699724,-0.069216,-0.710843,9.86723136901855,0.75685191154480,0.15223252773285,1.17315113544464,1.05761218070984,-1.14553415775299
380,4116400244,0.017120,-0.699657,-0.069279,-0.710906,9.84306716918945,0.78980016708374,0.19687773287296,0.55131340026855,1.15391623973846,-1.05582594871521
381,4116416911,0.016960,-0.699570,-0.069306,-0.710993,9.82392120361328,0.78302395343781,0.15041032433510,0.26190909743309,1.36189782619476,-1.03646922111511
382,4116433578,0.016797,-0.699449,-0.069349,-0.711112,9.80000305175781,0.76743900775909,0.13642984628677,0.30355530977249,1.67872667312622,-1.13981628417969
383,4116450245,0.016650,-0.699311,-0.069385,-0.711248,9.75689029693604,0.76282477378845,0.12393566966057,0.31584942340851,1.84819328784943,-1.04875051975250
384,4116466912,0.016514,-0.699161,-0.069442,-0.711393,9.74328517913818,0.75575345754623,0.11721536517143,0.48585373163223,1.95717537403107,-1.09674870967865
385,4116483579,0.016386,-0.699001,-0.069499,-0.711547,9.73669338226318,0.72473239898682,0.09218971431255,0.52580952644348,2.05228805541992,-1.06628227233887
386,4116500246,0.016305,-0.698855,-0.069576,-0.711685,9.76959609985352,0.72916704416275,0.08513104915619,0.74564337730408,1.91820573806763,-0.92276155948639
387,4116516913,0.016224,-0.698721,-0.069643,-0.711812,9.73775672912598,0.73338127136230,0.06731768697500,0.80604451894760,1.81287968158722,-0.86647772789001
388,4116533580,0.016120,-0.698643,-0.069660,-0.711889,9.73304939270020,0.74495851993561,0.07162902504206,0.48054543137550,1.29880714416504,-0.70675039291382
389,4116550247,0.015991,-0.698612,-0.069618,-0.711926,9.76136493682861,0.73073089122772,0.05847138166428,0.12780736386776,0.87565970420837,-0.51932948827744
390,4116566914,0.015899,-0.698612,-0.069593,-0.711931,9.76806735992432,0.70666569471359,0.06399623304605,0.33717197179794,0.57744461297989,-0.40190166234970
391,4116583581,0.015850,-0.698655,-0.069573,-0.711891,9.75458431243896,0.72509747743607,0.12424101680517,0.59461164474487,0.17146420478821,-0.18484044075012
392,4116600248,0.015871,-0.698753,-0.069562,-0.711797,9.74379062652588,0.72140645980835,0.09146524220705,0.99274814128876,-0.32371249794960,0.13669498264790
393,4116616915,0.015936,-0.698870,-0.069601,-0.711676,9.77565670013428,0.74541896581650,0.09718120098114,1.45692074298859,-0.52995234727859,0.13262896239758
394,4116633582,0.015973,-0.699002,-0.069640,-0.711542,9.81459045410156,0.76849746704102,0.11666516959667,1.36325514316559,-0.67677718400955,0.00026253017131
395,4116650249,0.015987,-0.699139,-0.069632,-0.711407,9.82748317718506,0.73879098892212,0.14404378831387,0.89315962791443,-0.72608155012131,0.11719731241465
396,4116666916,0.015930,-0.699232,-0.069536,-0.711327,9.82236766815186,0.77616572380066,0.15355518460274,0.20157194137573,-0.25668409466743,0.16588065028191
397,4116683583,0.015826,-0.699283,-0.069442,-0.711288,9.83174228668213,0.78949457406998,0.15926614403725,-0.06690677255392,0.11082612723112,-0.09760358184576
398,4116700250,0.015724,-0.699350,-0.069331,-0.711235,9.80909633636475,0.78686571121216,0.18028017878532,-0.13328848779202,-0.02448574081063,-0.00002561270230
399,4116716917,0.015653,-0.699404,-0.069212,-0.711196,9.80286407470703,0.75057822465897,0.12441656738520,-0.08781314641237,0.11828585714102,0.17958986759186
400,4116733584,0.015595,-0.699463,-0.069138,-0.711145,9.79941558837891,0.72661381959915,0.13207291066647,0.33162045478821,0.04648704826832,0.03862395137548
401,4116750251,0.015563,-0.699516,-0.069176,-0.711091,9.79113864898682,0.70823693275452,0.12797439098358,0.93903845548630,0.05696264281869,-0.37893348932266
402,4116766918,0.015545,-0.699558,-0.069229,-0.711045,9.79381465911865,0.73861986398697,0.14156572520733,1.11191141605377,0.15530261397362,-0.38636115193367
403,4116783585,0.015498,-0.699571,-0.069290,-0.711027,9.80052280426025,0.74117785692215,0.11042747646570,0.99580901861191,0.41838344931602,-0.58798438310623
404,4116800252,0.015424,-0.699596,-0.069343,-0.710999,9.79559040069580,0.74320226907730,0.11389361321926,0.83524292707443,0.29312449693680,-0.67026501893997
405,4116816919,0.015347,-0.699657,-0.069388,-0.710936,9.79680252075195,0.74498128890991,0.10347770899534,0.79061275720596,-0.03815651684999,-0.62914395332336
406,4116833586,0.015293,-0.699727,-0.069450,-0.710863,9.81343936920166,0.75794285535812,0.09792189300060,1.02116549015045,-0.12995243072510,-0.58852225542068
407,4116850253,0.015261,-0.699795,-0.069497,-0.710792,9.80793190002441,0.77296954393387,0.08370549231768,1.02035224437714,-0.09737948328257,-0.41364508867264
408,4116866920,0.015212,-0.699854,-0.069509,-0.710733,9.80220222473145,0.76832312345505,0.06446828693151,0.75279563665390,-0.00231154635549,-0.33945149183273
409,4116883587,0.015162,-0.699909,-0.069494,-0.710681,9.80815219879150,0.79632121324539,0.08486340194941,0.62294572591782,0.05518896877766,-0.20871791243553
410,4116900254,0.015109,-0.699995,-0.069440,-0.710603,9.81149005889893,0.78100413084030,0.09576722979546,0.41340813040733,-0.21701638400555,-0.02063102833927
411,4116916921,0.015061,-0.700100,-0.069403,-0.710504,9.77235507965088,0.75099992752075,0.10210786759853,0.54568493366241,-0.41166010499001,-0.06871885806322
412,4116933588,0.015015,-0.700174,-0.069388,-0.710434,9.78837299346924,0.73911994695663,0.10023409873247,0.64350622892380,-0.12658436596394,-0.17718224227428
413,4116950255,0.015013,-0.700229,-0.069423,-0.710377,9.82569789886475,0.77624642848969,0.06848843395710,1.02695393562317,0.04624372348189,-0.21325773000717
414,4116966922,0.015021,-0.700261,-0.069420,-0.710346,9.82527732849121,0.76146572828293,0.07504358142614,0.96961998939514,0.29633888602257,-0.00439898017794
415,4116983589,0.015039,-0.700296,-0.069415,-0.710310,9.82548141479492,0.77768540382385,0.09842126816511,0.97421765327454,0.25856021046638,0.06417262554169
416,4117000256,0.015052,-0.700342,-0.069416,-0.710264,9.80230140686035,0.76148831844330,0.10699461400509,0.99561041593552,0.15780623257160,0.01846035197377
417,4117016923,0.015063,-0.700402,-0.069413,-0.710205,9.80019569396973,0.77471333742142,0.10298357158899,0.97261673212051,0.02268004603684,0.02732875198126
418,4117033590,0.015079,-0.700450,-0.069411,-0.710158,9.81158256530762,0.75665336847305,0.09100990742445,1.00227618217468,0.14440439641476,0.04436119273305
419,4117050257,0.015082,-0.700479,-0.069416,-0.710129,9.80832672119141,0.75650054216385,0.08650094270706,0.96244835853577,0.31598383188248,-0.06129759177566
420,4117066924,0.015081,-0.700505,-0.069426,-0.710103,9.81739902496338,0.73395466804504,0.06418322771788,0.88820999860764,0.33692225813866,-0.11244615167379
421,4117083591,0.015083,-0.700525,-0.069443,-0.710081,9.82226562500000,0.76475411653519,0.07582703977823,0.95886260271072,0.38261529803276,-0.12732711434364
422,4117100258,0.015081,-0.700539,-0.069439,-0.710068,9.80277824401855,0.77472937107086,0.08612968027592,0.88038527965546,0.46691948175430,-0.05317836627364
423,4117116925,0.015063,-0.700566,-0.069432,-0.710042,9.80001831054688,0.75805217027664,0.05640341341496,0.80742752552032,0.33251684904099,-0.10838653892279
424,4117133592,0.015072,-0.700581,-0.069450,-0.710025,9.80687999725342,0.75756973028183,0.06393063068390,1.05345034599304,0.44099944829941,-0.10312952846289
425,4117150259,0.015098,-0.700586,-0.069490,-0.710015,9.81607723236084,0.75042641162872,0.07097789645195,1.23455131053925,0.53396713733673,-0.13577291369438
426,4117166926,0.015116,-0.700601,-0.069520,-0.709998,9.81068992614746,0.76983743906021,0.08012566715479,1.15415942668915,0.44890096783638,-0.11564774066210
427,4117183593,0.015127,-0.700609,-0.069512,-0.709990,9.82105350494385,0.77862268686295,0.09028410166502,0.93404394388199,0.52445846796036,0.02280811034143
428,4117200260,0.015107,-0.700614,-0.069485,-0.709989,9.80686283111572,0.77753770351410,0.06696289777756,0.71429336071014,0.56358814239502,-0.03587058186531
429,4117216927,0.015088,-0.700629,-0.069443,-0.709978,9.82118797302246,0.74759149551392,0.06723982095718,0.58615303039551,0.45851215720177,0.04922120645642
430,4117233594,0.015065,-0.700627,-0.069400,-0.709984,9.79404258728027,0.75060504674911,0.06999891996384,0.64097696542740,0.63457381725311,0.02531174942851
431,4117250261,0.015026,-0.700624,-0.069363,-0.709993,9.81811141967773,0.74108070135117,0.07980126887560,0.72222685813904,0.65669673681259,-0.09049607068300
432,4117266928,0.015033,-0.700616,-0.069355,-0.710001,9.81173133850098,0.76040440797806,0.08616859465837,0.95764601230621,0.68679171800613,-0.00055707618594
433,4117283595,0.015045,-0.700611,-0.069365,-0.710004,9.78586864471436,0.75679665803909,0.06223801523447,1.02348351478577,0.63514369726181,-0.05805758386850
434,4117300262,0.015067,-0.700602,-0.069378,-0.710011,9.78259086608887,0.76752847433090,0.07989805191755,1.07917189598083,0.68345564603806,-0.03134994581342
435,4117316929,0.015094,-0.700595,-0.069387,-0.710017,9.80138301849365,0.76921135187149,0.07277958840132,1.08512675762177,0.67646342515945,0.01566856913269
436,4117333596,0.015129,-0.700575,-0.069396,-0.710036,9.80391693115234,0.77157497406006,0.06675151735544,1.12339866161346,0.79586338996887,0.04405384138227
437,4117350263,0.015162,-0.700557,-0.069386,-0.710053,9.81203937530518,0.77481144666672,0.09418024867773,1.01578688621521,0.78538787364960,0.12429843842983
438,4117366930,0.015155,-0.700540,-0.069360,-0.710072,9.78956699371338,0.76091486215591,0.07600095868111,0.77209478616714,0.76893162727356,0.01347227860242
439,4117383597,0.015126,-0.700521,-0.069322,-0.710095,9.78733921051025,0.75017970800400,0.10003736615181,0.54638934135437,0.78857016563416,-0.04329826682806
440,4117400264,0.015101,-0.700521,-0.069268,-0.710102,9.81764698028564,0.73025792837143,0.06455411761999,0.53048384189606,0.62689000368118,0.07231105864048
441,4117416931,0.015119,-0.700507,-0.069262,-0.710116,9.80454921722412,0.74853038787842,0.05620694905519,0.96755808591843,0.73950266838074,0.03606268391013
442,4117433598,0.015147,-0.700507,-0.069271,-0.710114,9.75961112976074,0.75867205858231,0.08728986233473,1.09651803970337,0.59689116477966,0.02256478741765
443,4117450265,0.015212,-0.700513,-0.069308,-0.710103,9.78667926788330,0.75406026840210,0.09984613955021,1.41146469116211,0.54078656435013,0.07414876669645
444,4117466932,0.015271,-0.700516,-0.069357,-0.710094,9.83609867095947,0.75226867198944,0.10861314088106,1.43994605541229,0.56440144777298,-0.01559173129499
445,4117483599,0.015361,-0.700551,-0.069430,-0.710051,9.83573627471924,0.75565707683563,0.11878775060177,1.72328019142151,0.25120297074318,0.03887367993593
446,4117500266,0.015414,-0.700560,-0.069456,-0.710038,9.80523777008057,0.75059509277344,0.11029146611691,1.29704630374908,0.51827937364578,0.07101761549711
447,4117516933,0.015410,-0.700543,-0.069424,-0.710058,9.81665992736816,0.77968281507492,0.10214985907078,0.73057657480240,0.77472007274628,0.04911234602332
448,4117533600,0.015377,-0.700501,-0.069352,-0.710108,9.80346298217773,0.81075906753540,0.09521718323231,0.38344126939774,1.03285133838654,0.09048325568438
449,4117550267,0.015301,-0.700460,-0.069170,-0.710167,9.79471111297607,0.80846756696701,0.08740545809269,-0.36630004644394,1.06859385967255,0.40658241510391
450,4117566934,0.015202,-0.700424,-0.068981,-0.710223,9.77217674255371,0.74704551696777,0.08282044529915,-0.44497582316399,1.01664483547211,0.33970123529434
451,4117583601,0.015149,-0.700428,-0.068884,-0.710230,9.77674674987793,0.69823640584946,0.08353301882744,0.23731444776058,0.60041278600693,0.13593940436840
452,4117600268,0.015176,-0.700431,-0.068899,-0.710225,9.78956794738770,0.69286584854126,0.08623562008142,1.13724231719971,0.57017713785172,-0.00783108267933
453,4117616935,0.015243,-0.700402,-0.068973,-0.710245,9.79003620147705,0.70829474925995,0.08084807544947,1.48849487304688,0.84617960453033,-0.12036050111055
454,4117633602,0.015308,-0.700380,-0.069060,-0.710256,9.78301334381104,0.72668814659119,0.11292003840208,1.64829242229462,0.78333878517151,-0.17825798690319
455,4117650269,0.015352,-0.700385,-0.069141,-0.710243,9.79438495635986,0.73447132110596,0.08690902590752,1.50260734558105,0.51522505283356,-0.24255867302418
456,4117666936,0.015378,-0.700404,-0.069216,-0.710216,9.82606220245361,0.74172443151474,0.09090411663055,1.41373133659363,0.38454908132553,-0.29286202788353
457,4117683603,0.015394,-0.700423,-0.069257,-0.710193,9.82024383544922,0.77136731147766,0.09343127906322,1.23569118976593,0.39177826046944,-0.18073602020741
458,4117700270,0.015387,-0.700445,-0.069245,-0.710172,9.79521942138672,0.76456612348557,0.09960336238146,0.80816394090652,0.38826930522919,-0.03544797748327
459,4117716937,0.015333,-0.700470,-0.069195,-0.710154,9.76912593841553,0.74890476465225,0.07650928199291,0.42399266362190,0.36393088102341,-0.07272085547447
460,4117733604,0.015255,-0.700487,-0.069144,-0.710144,9.77307319641113,0.78294980525970,0.08508870005608,0.27771851420403,0.43183013796806,-0.19993914663792
461,4117750271,0.015184,-0.700503,-0.069076,-0.710136,9.77970409393311,0.76954615116119,0.09049592912197,0.22587841749191,0.45339602231979,-0.08304277807474
462,4117766938,0.015129,-0.700523,-0.069039,-0.710122,9.79117965698242,0.71175467967987,0.11468897014856,0.45973512530327,0.40868902206421,-0.15014803409576
463,4117783605,0.015106,-0.700519,-0.069087,-0.710121,9.81139850616455,0.70605856180191,0.06559450179338,1.00524091720581,0.59332460165024,-0.41410613059998
464,4117800272,0.015151,-0.700515,-0.069201,-0.710113,9.83784675598145,0.75369089841843,0.08532039076090,1.64108896255493,0.58104336261749,-0.40368178486824
465,4117816939,0.015218,-0.700515,-0.069292,-0.710102,9.82506561279297,0.78152590990067,0.08071189373732,1.65447807312012,0.56550282239914,-0.17779697477818
466,4117833606,0.015282,-0.700519,-0.069334,-0.710093,9.82413673400879,0.79804772138596,0.07983528822660,1.45436596870422,0.56365865468979,0.04030157998204
467,4117850273,0.015307,-0.700513,-0.069326,-0.710100,9.79411029815674,0.81050902605057,0.12816533446312,0.99018067121506,0.66856193542480,0.08899773657322
468,4117866940,0.015285,-0.700505,-0.069264,-0.710113,9.79215621948242,0.78160154819489,0.12581454217434,0.45525291562080,0.69210630655289,0.11374599486589
469,4117883607,0.015247,-0.700501,-0.069164,-0.710128,9.78020668029785,0.75194430351257,0.09130781143904,0.26397725939751,0.68177157640457,0.21882209181786
470,4117900274,0.015197,-0.700475,-0.069074,-0.710164,9.75263690948486,0.74600249528885,0.11669157445431,0.19327342510223,0.87950164079666,0.10442297160625
471,4117916941,0.015157,-0.700436,-0.069023,-0.710208,9.79167079925537,0.72605317831039,0.07131377607584,0.45221781730652,0.98721581697464,-0.03928347676992
472,4117933608,0.015145,-0.700407,-0.069013,-0.710238,9.79163742065430,0.71368718147278,0.09864535927773,0.82546532154083,0.87676751613617,-0.09936447441578
473,4117950275,0.015159,-0.700382,-0.069058,-0.710258,9.80778026580811,0.72364532947540,0.06973264366388,1.18845486640930,0.82141208648682,-0.23338930308819
474,4117966942,0.015199,-0.700363,-0.069116,-0.710271,9.79372692108154,0.74714255332947,0.07005633413792,1.39019322395325,0.76053065061569,-0.16057881712914
475,4117983609,0.015229,-0.700364,-0.069161,-0.710264,9.79469871520996,0.77274054288864,0.05352379754186,1.28465616703033,0.56441426277161,-0.14263072609901
476,4118000276,0.015264,-0.700372,-0.069187,-0.710252,9.81207847595215,0.76510483026505,0.04921768605709,1.21250522136688,0.51656979322433,-0.02481230534613
477,4118016943,0.015285,-0.700379,-0.069178,-0.710246,9.80145263671875,0.77799189090729,0.05819664895535,0.94846385717392,0.54172134399414,0.08331810683012
478,4118033610,0.015276,-0.700398,-0.069119,-0.710233,9.79831123352051,0.74642640352249,0.08331147581339,0.58414876461029,0.44407296180725,0.18331009149551
479,4118050277,0.015256,-0.700411,-0.069049,-0.710228,9.78395938873291,0.73424541950226,0.07361980527639,0.45876821875572,0.50302702188492,0.16985701024532
480,4118066944,0.015224,-0.700406,-0.069008,-0.710238,9.78114128112793,0.72535449266434,0.08841384947300,0.54501903057098,0.65596044063568,-0.02736716717482
481,4118083611,0.015219,-0.700407,-0.069016,-0.710236,9.79185485839844,0.73343646526337,0.09030035883188,0.91843932867050,0.57574146986008,-0.13574729859829
482,4118100278,0.015233,-0.700421,-0.069052,-0.710218,9.81021499633789,0.72820973396301,0.09020601212978,1.21176874637604,0.45283892750740,-0.16516350209713
483,4118116945,0.015286,-0.700423,-0.069089,-0.710212,9.79036045074463,0.75626575946808,0.09860716015100,1.38010823726654,0.57775205373764,0.01299204211682
484,4118133612,0.015338,-0.700435,-0.069138,-0.710194,9.80971050262451,0.76093804836273,0.10429836809635,1.40447866916656,0.47156175971031,-0.04752436280251
485,4118150279,0.015356,-0.700433,-0.069162,-0.710193,9.82723045349121,0.76434713602066,0.09602492302656,1.15467166900635,0.61629277467728,-0.09952455013990
486,4118166946,0.015345,-0.700426,-0.069151,-0.710202,9.82417488098145,0.77062547206879,0.08514972031116,0.79820692539215,0.66874754428864,-0.07398868352175
487,4118183613,0.015323,-0.700411,-0.069114,-0.710220,9.81092643737793,0.77618730068207,0.10295865684748,0.60725790262222,0.74675750732422,-0.01180745474994
488,4118200280,0.015288,-0.700399,-0.069077,-0.710236,9.78923797607422,0.74857860803604,0.07893465459347,0.57347476482391,0.71878838539124,-0.06982021778822
489,4118216947,0.015275,-0.700395,-0.069055,-0.710243,9.78652191162109,0.74358737468719,0.08752498775721,0.72069001197815,0.64314764738083,-0.03042148239911
490,4118233614,0.015285,-0.700392,-0.069036,-0.710247,9.80091953277588,0.75034445524216,0.09557379037142,0.88064146041870,0.63744884729385,0.06415981054306
491,4118250281,0.015311,-0.700378,-0.069058,-0.710259,9.78419303894043,0.75498199462891,0.10262972861528,1.13159453868866,0.73414963483810,-0.05799354985356
492,4118266948,0.015345,-0.700367,-0.069073,-0.710267,9.79038619995117,0.73700511455536,0.07162228971720,1.14919066429138,0.70274847745895,0.02536937966943
493,4118283615,0.015377,-0.700354,-0.069093,-0.710277,9.78353309631348,0.73431468009949,0.07406022399664,1.15092587471008,0.72321939468384,-0.02215498499572
494,4118300282,0.015365,-0.700348,-0.069092,-0.710283,9.82156372070312,0.74810880422592,0.07124642282724,0.83406466245651,0.64569604396820,-0.12516283988953
495,4118316949,0.015346,-0.700364,-0.069072,-0.710270,9.84893226623535,0.72256118059158,0.06722759455442,0.72681158781052,0.44717207551003,-0.06205316260457
496,4118333616,0.015361,-0.700375,-0.069071,-0.710259,9.79672908782959,0.76253348588943,0.08508764207363,0.95350956916809,0.49865359067917,0.01860762573779
497,4118350283,0.015360,-0.700419,-0.069031,-0.710219,9.74910259246826,0.76308751106262,0.08592553436756,0.74876165390015,0.19244100153446,0.13803963363171
498,4118366950,0.015406,-0.700451,-0.069071,-0.710184,9.79693412780762,0.74147456884384,0.08734188973904,1.35986149311066,0.28905853629112,-0.01692999526858
499,4118383617,0.015466,-0.700481,-0.069130,-0.710146,9.84782695770264,0.75149738788605,0.10676056891680,1.47397875785828,0.28648445010185,-0.04418190568686
500,4118400284,0.015537,-0.700517,-0.069195,-0.710103,9.82052326202393,0.74030560255051,0.12203232198954,1.57121086120605,0.23596975207329,-0.01773679442704
501,4118416951,0.015561,-0.700526,-0.069207,-0.710093,9.80543327331543,0.74791359901428,0.10937274992466,1.10682713985443,0.52312654256821,-0.00621748203412
502,4118433618,0.015542,-0.700500,-0.069192,-0.710120,9.80976486206055,0.77371227741241,0.10118914395571,0.76662653684616,0.84264510869980,-0.10135585814714
503,4118450285,0.015473,-0.700474,-0.069114,-0.710155,9.78632164001465,0.81361138820648,0.10637558251619,0.15960553288460,0.86345529556274,-0.04906752705574
504,4118466952,0.015358,-0.700460,-0.068950,-0.710188,9.76999950408936,0.78796356916428,0.10166341811419,-0.43054306507111,0.79317402839661,0.14477577805519
505,4118483619,0.015234,-0.700463,-0.068850,-0.710197,9.77094173431396,0.71435099840164,0.09234840422869,-0.16846112906933,0.57955133914948,-0.19039839506149
506,4118500286,0.015165,-0.700493,-0.068830,-0.710171,9.78024387359619,0.69533985853195,0.09342484176159,0.46791839599609,0.28878316283226,-0.29197835922241
507,4118516953,0.015174,-0.700500,-0.068892,-0.710157,9.78126049041748,0.69797295331955,0.07415539026260,1.27517938613892,0.49545204639435,-0.32286727428436
508,4118533620,0.015220,-0.700497,-0.068997,-0.710150,9.78094673156738,0.72495961189270,0.07367438077927,1.68086552619934,0.59040480852127,-0.35364735126495
509,4118550287,0.015263,-0.700510,-0.069103,-0.710125,9.78054904937744,0.73989814519882,0.09738347679377,1.66139972209930,0.42130967974663,-0.36318805813789
510,4118566954,0.015291,-0.700542,-0.069202,-0.710083,9.81396007537842,0.76857340335846,0.09635987132788,1.49530124664307,0.23373508453369,-0.38917213678360
511,4118583621,0.015267,-0.700590,-0.069249,-0.710032,9.81778144836426,0.75927591323853,0.09225326031446,1.10854971408844,0.11120393127203,-0.38525342941284
512,4118600288,0.015237,-0.700632,-0.069259,-0.709990,9.81540489196777,0.76150053739548,0.10592937469482,0.85493278503418,0.17510762810707,-0.24015748500824
513,4118616955,0.015183,-0.700671,-0.069219,-0.709957,9.79145908355713,0.74778467416763,0.09012059122324,0.46236681938171,0.22082628309727,-0.12393985688686
514,4118633622,0.015117,-0.700698,-0.069173,-0.709936,9.77530479431152,0.76080948114395,0.07466405630112,0.40075552463531,0.34319093823433,-0.15211381018162
515,4118650289,0.015056,-0.700715,-0.069126,-0.709925,9.80225563049316,0.78303205966949,0.09844940900803,0.41728851199150,0.43227192759514,-0.13070160150528
516,4118666956,0.015026,-0.700736,-0.069106,-0.709906,9.79131603240967,0.77003937959671,0.09338561445475,0.57538294792175,0.38353100419044,-0.11046757549047
517,4118683623,0.015005,-0.700756,-0.069108,-0.709887,9.80081844329834,0.71509724855423,0.08617369830608,0.85034799575806,0.39871928095818,-0.17229661345482
518,4118700290,0.015039,-0.700742,-0.069204,-0.709891,9.84978580474854,0.74147450923920,0.06064270809293,1.52606236934662,0.68847584724426,-0.36928394436836
519,4118716957,0.015107,-0.700723,-0.069292,-0.709899,9.84490585327148,0.79242622852325,0.07009920477867,1.61379230022430,0.74503505229950,-0.17467221617699
520,4118733624,0.015161,-0.700707,-0.069314,-0.709912,9.81965923309326,0.79837518930435,0.07086225599051,1.27049219608307,0.75848168134689,0.07299619168043
521,4118750291,0.015197,-0.700699,-0.069305,-0.709921,9.80165958404541,0.79401594400406,0.07838179916143,1.03424084186554,0.69850963354111,0.14784932136536
522,4118766958,0.015200,-0.700701,-0.069255,-0.709923,9.79007434844971,0.75942564010620,0.07659374177456,0.72869408130646,0.60869854688644,0.18065917491913
523,4118783625,0.015194,-0.700696,-0.069201,-0.709933,9.79277610778809,0.74231940507889,0.08000725507736,0.64390963315964,0.67282634973526,0.16013698279858
524,4118800292,0.015194,-0.700674,-0.069156,-0.709960,9.79160976409912,0.72786539793015,0.09023122489452,0.73398953676224,0.84056401252747,0.13520304858685
525,4118816959,0.015213,-0.700653,-0.069119,-0.709983,9.77493286132812,0.74604517221451,0.08440067619085,0.82009297609329,0.82417827844620,0.18652449548244
526,4118833626,0.015227,-0.700645,-0.069092,-0.709993,9.77750396728516,0.74214994907379,0.08106859028339,0.85462528467178,0.69318848848343,0.12689170241356
527,4118850293,0.015232,-0.700637,-0.069095,-0.710002,9.79312705993652,0.74232560396194,0.07930703461170,0.92853069305420,0.67992115020752,-0.06930796802044
528,4118866960,0.015245,-0.700614,-0.069110,-0.710022,9.81919574737549,0.74750065803528,0.07194612175226,1.07921028137207,0.81118619441986,-0.09134769439697
529,4118883627,0.015298,-0.700615,-0.069134,-0.710018,9.80213642120361,0.74452275037766,0.05359048768878,1.26152157783508,0.59290200471878,0.07350204885006
530,4118900294,0.015359,-0.700632,-0.069149,-0.709998,9.80143547058105,0.74971961975098,0.06852773576975,1.28189635276794,0.44820299744606,0.16225004196167
531,4118916961,0.015394,-0.700645,-0.069162,-0.709984,9.79105186462402,0.75046181678772,0.06531473994255,1.12781679630280,0.47269514203072,0.04623092338443
532,4118933628,0.015399,-0.700667,-0.069143,-0.709963,9.78390216827393,0.73821365833282,0.08294355869293,0.82745659351349,0.39164376258850,0.06318652629852
533,4118950295,0.015378,-0.700690,-0.069100,-0.709945,9.79248142242432,0.74061435461044,0.07398097962141,0.60599642992020,0.39073449373245,0.03996861726046
534,4118966962,0.015346,-0.700699,-0.069059,-0.709941,9.78191089630127,0.73224323987961,0.09664697200060,0.56872361898422,0.52338910102844,-0.02383261546493
535,4118983629,0.015343,-0.700718,-0.069052,-0.709923,9.78711700439453,0.70243251323700,0.07656020671129,0.80001902580261,0.41214030981064,-0.03608829155564
536,4119000296,0.015358,-0.700730,-0.069070,-0.709909,9.79518985748291,0.72994786500931,0.07347289472818,1.07296729087830,0.47378376126289,-0.07865019887686
537,4119016963,0.015393,-0.700744,-0.069138,-0.709888,9.82570266723633,0.75224459171295,0.08259621262550,1.37433910369873,0.42713016271591,-0.21802172064781
538,4119033630,0.015426,-0.700757,-0.069197,-0.709868,9.81782722473145,0.78192603588104,0.07577949017286,1.36869132518768,0.45015600323677,-0.18735049664974
539,4119050297,0.015450,-0.700784,-0.069239,-0.709837,9.82343196868896,0.75474578142166,0.09953008592129,1.23925769329071,0.31927508115768,-0.13282106816769
540,4119066964,0.015474,-0.700804,-0.069243,-0.709817,9.80194473266602,0.77181416749954,0.06882818043232,1.06103169918060,0.41465678811073,0.03690790012479
541,4119083631,0.015472,-0.700824,-0.069218,-0.709800,9.80785179138184,0.75006884336472,0.08888159692287,0.79337900876999,0.42167463898659,0.04820309579372
542,4119100298,0.015475,-0.700839,-0.069179,-0.709789,9.80203437805176,0.74712419509888,0.08902293443680,0.70817828178406,0.47097912430763,0.14126682281494
543,4119116965,0.015454,-0.700837,-0.069144,-0.709795,9.80078220367432,0.76521432399750,0.08173449337482,0.62817704677582,0.62854844331741,-0.00418127281591
544,4119133632,0.015435,-0.700842,-0.069129,-0.709791,9.80356025695801,0.75442016124725,0.08616179227829,0.76558917760849,0.54807335138321,-0.09105954319239
545,4119150299,0.015421,-0.700852,-0.069108,-0.709783,9.78742504119873,0.73429191112518,0.10196665674448,0.75912201404572,0.50380182266235,-0.03229121491313
546,4119166966,0.015426,-0.700855,-0.069130,-0.709779,9.80802059173584,0.73338115215302,0.06165166199207,1.03821086883545,0.55930453538895,-0.15256847441196
547,4119183633,0.015429,-0.700844,-0.069150,-0.709787,9.81732559204102,0.73533940315247,0.06333654373884,1.02671074867249,0.68735522031784,-0.15291421115398
548,4119200300,0.015428,-0.700840,-0.069169,-0.709789,9.80037021636963,0.74217951297760,0.09363261610270,1.01457023620605,0.62762641906738,-0.16756469011307
549,4119216967,0.015381,-0.700850,-0.069155,-0.709782,9.79991722106934,0.75061678886414,0.07295026630163,0.63710308074951,0.49656617641449,-0.22849731147289
550,4119233634,0.015350,-0.700862,-0.069133,-0.709772,9.84600353240967,0.72636348009109,0.00825746264309,0.66415011882782,0.47270801663399,-0.10765657573938
551,4119250301,0.015371,-0.700867,-0.069176,-0.709763,9.79766368865967,0.76174253225327,0.04681637883186,1.21976006031036,0.53551679849625,-0.17384620010853
552,4119266968,0.015373,-0.700893,-0.069180,-0.709738,9.74658679962158,0.77413207292557,0.06958089023829,0.92254382371902,0.34486219286919,-0.06722693145275
553,4119283635,0.015421,-0.700917,-0.069209,-0.709710,9.77331447601318,0.75426036119461,0.05886184051633,1.28127515316010,0.36294469237328,0.04351597279310
554,4119300302,0.015448,-0.700935,-0.069261,-0.709686,9.82793521881104,0.74923306703568,0.05246098339558,1.37842416763306,0.40868902206421,-0.17871901392937
555,4119316969,0.015504,-0.700957,-0.069320,-0.709658,9.83586025238037,0.73586326837540,0.10372973978519,1.43674433231354,0.36658176779747,-0.06962171941996
556,4119333636,0.015520,-0.700974,-0.069329,-0.709639,9.80216121673584,0.73729658126831,0.10498709976673,0.95325344800949,0.42258390784264,-0.02888472005725
557,4119350303,0.015489,-0.700965,-0.069300,-0.709652,9.81279945373535,0.77254635095596,0.07190836220980,0.60874336957932,0.69153642654419,-0.08822294324636
558,4119366970,0.015458,-0.700945,-0.069251,-0.709677,9.82875347137451,0.82913893461227,0.07779694348574,0.52806341648102,0.79977577924728,0.00469352724031
559,4119383637,0.015405,-0.700929,-0.069121,-0.709706,9.80766773223877,0.80021417140961,0.07560063898563,0.00664009293541,0.80628144741058,0.28747054934502
560,4119400304,0.015347,-0.700942,-0.069009,-0.709706,9.78682041168213,0.74848228693008,0.09716555476189,0.05536184832454,0.51879799365997,0.19026391208172
561,4119416971,0.015299,-0.700977,-0.068970,-0.709676,9.77805519104004,0.69279360771179,0.06917815655470,0.50068986415863,0.25539702177048,-0.09079061448574
562,4119433638,0.015298,-0.700972,-0.068998,-0.709679,9.77760887145996,0.69996142387390,0.08725658059120,1.04494690895081,0.63346618413925,-0.21692036092281
563,4119450305,0.015301,-0.700938,-0.069056,-0.709706,9.75894641876221,0.74585473537445,0.09041611105204,1.20872735977173,0.88680136203766,-0.35239872336388
564,4119466972,0.015313,-0.700904,-0.069106,-0.709735,9.79496288299561,0.74473041296005,0.05177279934287,1.20688319206238,0.90425634384155,-0.27625218033791
565,4119483639,0.015319,-0.700896,-0.069176,-0.709736,9.82423114776611,0.76192468404770,0.05445297062397,1.28337562084198,0.63452899456024,-0.38049587607384
566,4119500306,0.015336,-0.700905,-0.069236,-0.709721,9.85153293609619,0.75771111249924,0.03287841752172,1.28410553932190,0.48201826214790,-0.27150103449821
567,4119516973,0.015362,-0.700922,-0.069275,-0.709700,9.82463169097900,0.75669145584106,0.05776596814394,1.19556879997253,0.41271662712097,-0.11762633174658
568,4119533640,0.015386,-0.700946,-0.069268,-0.709676,9.79899597167969,0.75338381528854,0.05770299583673,0.98664599657059,0.37174913287163,0.09447883814573
569,4119550307,0.015379,-0.700947,-0.069253,-0.709677,9.76817417144775,0.76213181018829,0.08705402910709,0.74830698966980,0.59208232164383,-0.03675422444940
570,4119566974,0.015350,-0.700946,-0.069194,-0.709684,9.78683090209961,0.78360784053802,0.09799165278673,0.44151175022125,0.62100553512573,0.07385421544313
571,4119583641,0.015333,-0.700963,-0.069129,-0.709674,9.77244472503662,0.74981665611267,0.07986398041248,0.52822345495224,0.46420451998711,0.16900540888309
572,4119600308,0.015314,-0.700967,-0.069104,-0.709673,9.78859710693359,0.70861148834229,0.06610625237226,0.76316231489182,0.57631772756577,-0.03922584652901
573,4119616975,0.015363,-0.700957,-0.069165,-0.709675,9.83189010620117,0.73643779754639,0.07017616182566,1.45989811420441,0.66987448930740,-0.13517740368843
574,4119633642,0.015434,-0.700939,-0.069242,-0.709684,9.84071254730225,0.77950656414032,0.05822104215622,1.64528310298920,0.75844329595566,-0.10149672627449
575,4119650309,0.015507,-0.700911,-0.069261,-0.709709,9.82548046112061,0.79628551006317,0.07454897463322,1.33941614627838,0.88403517007828,0.17900714278221
576,4119666976,0.015561,-0.700892,-0.069236,-0.709729,9.81650352478027,0.77653115987778,0.08511990308762,1.04899382591248,0.81375390291214,0.30155113339424
577,4119683643,0.015609,-0.700895,-0.069187,-0.709729,9.80801105499268,0.74685579538345,0.08904001861811,0.89988946914673,0.60631662607193,0.40059542655945
578,4119700310,0.015645,-0.700881,-0.069142,-0.709747,9.80260848999023,0.73368871212006,0.09117233753204,0.82768708467484,0.77437430620193,0.31451112031937
579,4119716977,0.015653,-0.700848,-0.069088,-0.709784,9.78018188476562,0.73555517196655,0.09587770700455,0.68820041418076,0.94421219825745,0.20956312119961
580,4119733644,0.015652,-0.700809,-0.069042,-0.709828,9.77964687347412,0.73630869388580,0.08733967691660,0.67499703168869,1.00097000598907,0.12413195520639
581,4119750311,0.015649,-0.700775,-0.069022,-0.709864,9.79713344573975,0.71744829416275,0.08320151269436,0.78511875867844,0.93806511163712,-0.01221085432917
582,4119766978,0.015642,-0.700742,-0.069022,-0.709895,9.79828357696533,0.72086054086685,0.06855601817369,0.83563989400864,0.90187430381775,-0.12298576533794
583,4119783645,0.015641,-0.700726,-0.069042,-0.709909,9.81163406372070,0.72588688135147,0.05785842984915,1.00321102142334,0.73811954259872,-0.17921848595142
584,4119800312,0.015654,-0.700729,-0.069056,-0.709905,9.80565834045410,0.74195563793182,0.06182353198528,1.09798443317413,0.56749415397644,-0.07759367674589
585,4119816979,0.015696,-0.700740,-0.069090,-0.709890,9.80406379699707,0.74578821659088,0.05899564176798,1.29325568675995,0.48878633975983,-0.02170676551759
586,4119833646,0.015739,-0.700758,-0.069108,-0.709869,9.80227851867676,0.74894350767136,0.08052995055914,1.22006726264954,0.42821231484413,0.06388447433710
587,4119850313,0.015751,-0.700774,-0.069095,-0.709855,9.79941272735596,0.76737797260284,0.06524024158716,0.90293085575104,0.45684728026390,0.06524194777012
588,4119866980,0.015747,-0.700792,-0.069037,-0.709843,9.78394126892090,0.76513314247131,0.08352947235107,0.63329321146011,0.45815360546112,0.19767241179943
589,4119883647,0.015710,-0.700797,-0.068963,-0.709846,9.79203891754150,0.74410182237625,0.08620810508728,0.36672899127007,0.57484501600266,0.10705468058586
590,4119900314,0.015685,-0.700790,-0.068929,-0.709856,9.79754829406738,0.71653753519058,0.09368851780891,0.60445970296860,0.67111670970917,-0.03558244183660
591,4119916981,0.015685,-0.700800,-0.068935,-0.709846,9.80239486694336,0.71941757202148,0.10052094608545,0.90761154890060,0.49127715826035,-0.08957400918007
592,4119933648,0.015711,-0.700820,-0.068968,-0.709823,9.80204677581787,0.73974603414536,0.07204702496529,1.21432375907898,0.39941728115082,-0.09377450495958
593,4119950315,0.015740,-0.700835,-0.069025,-0.709801,9.81625175476074,0.74712699651718,0.09093458205462,1.31984806060791,0.42319867014885,-0.19319018721581
594,4119966982,0.015776,-0.700852,-0.069063,-0.709780,9.81146812438965,0.75855630636215,0.09121279418468,1.29258978366852,0.42876303195953,-0.06386526674032
595,4119983649,0.015797,-0.700858,-0.069078,-0.709772,9.81834888458252,0.74839830398560,0.09530715644360,1.09487247467041,0.53290426731110,-0.03795802220702
596,4120000316,0.015784,-0.700854,-0.069069,-0.709777,9.81598949432373,0.76348620653152,0.08992152661085,0.83125370740891,0.63766014575958,-0.09164223819971
597,4120016983,0.015781,-0.700846,-0.069057,-0.709786,9.80923652648926,0.76400256156921,0.09583321958780,0.79727846384048,0.67610478401184,-0.03478204458952
598,4120033650,0.015774,-0.700837,-0.069025,-0.709799,9.80104160308838,0.76797002553940,0.07520477473736,0.75686162710190,0.70561063289642,0.04925961792469
599,4120050317,0.015790,-0.700820,-0.069012,-0.709816,9.81117439270020,0.74819523096085,0.11759338527918,0.84994459152222,0.76297670602798,0.05531062185764
600,4120066984,0.015800,-0.700817,-0.068995,-0.709821,9.81769561767578,0.74425864219666,0.09466058760881,0.86933338642120,0.64202070236206,0.06266146153212
601,4120083651,0.015825,-0.700814,-0.068983,-0.709824,9.79998874664307,0.73806577920914,0.07519698888063,0.96690493822098,0.63532304763794,0.10534503310919
602,4120100318,0.015848,-0.700803,-0.068987,-0.709834,9.79855346679688,0.73374080657959,0.05684177950025,0.98455852270126,0.70358723402023,0.01609117724001
603,4120116985,0.015860,-0.700780,-0.068985,-0.709857,9.81483364105225,0.73816049098969,0.05367155745625,0.97225159406662,0.82406938076019,-0.01126958709210
604,4120133652,0.015858,-0.700757,-0.068986,-0.709880,9.80803680419922,0.75476980209351,0.07894406467676,0.89489495754242,0.82466489076614,-0.10198978334665
605,4120150319,0.015812,-0.700755,-0.068948,-0.709886,9.82586193084717,0.72613817453384,0.05424748733640,0.52125048637390,0.61377632617950,-0.11118472367525
606,4120166986,0.015818,-0.700771,-0.068930,-0.709872,9.82619190216064,0.71109735965729,0.03805450722575,0.89112991094589,0.45796793699265,0.05511853471398
607,4120183653,0.015837,-0.700771,-0.068941,-0.709870,9.74071502685547,0.75486451387405,0.05651450902224,1.02062773704529,0.59393292665482,-0.03066480159760
608,4120200320,0.015872,-0.700788,-0.068936,-0.709854,9.72700214385986,0.75502300262451,0.08305866271257,1.01178491115570,0.45008561015129,0.13606107234955
609,4120216987,0.015945,-0.700788,-0.069000,-0.709846,9.80858993530273,0.73529499769211,0.07963749766350,1.57475185394287,0.58425766229630,-0.02355087548494
610,4120233654,0.015995,-0.700797,-0.069058,-0.709830,9.85937595367432,0.73340064287186,0.09460132569075,1.46819043159485,0.48790267109871,-0.10257885605097
611,4120250321,0.016042,-0.700812,-0.069091,-0.709811,9.83196640014648,0.72280383110046,0.09794454276562,1.29728329181671,0.44952854514122,0.01425346732140
612,4120266988,0.016030,-0.700808,-0.069060,-0.709818,9.79937839508057,0.75295543670654,0.07275182753801,0.67320424318314,0.64697682857513,0.01307528465986
613,4120283655,0.015985,-0.700777,-0.069008,-0.709855,9.81219196319580,0.77929967641830,0.04526258632541,0.42830196022987,0.91541707515717,-0.05694983899593
614,4120300322,0.015932,-0.700748,-0.068913,-0.709894,9.82414913177490,0.80171406269073,0.07896360009909,0.19160859286785,0.91083884239197,0.11250378191471
615,4120316989,0.015867,-0.700750,-0.068749,-0.709909,9.78264331817627,0.77077639102936,0.06750806421041,-0.21776558458805,0.64127790927887,0.40281093120575
616,4120333656,0.015813,-0.700784,-0.068643,-0.709888,9.77429771423340,0.67028468847275,0.08437329530716,0.14346311986446,0.31660497188568,0.19325421750546
617,4120350323,0.015807,-0.700802,-0.068650,-0.709869,9.76675891876221,0.66548287868500,0.08711058646441,0.83668363094330,0.40471267700195,-0.12336355447769
618,4120366990,0.015825,-0.700779,-0.068741,-0.709882,9.77822303771973,0.72680163383484,0.09387522190809,1.40570831298828,0.76723486185074,-0.43245759606361
619,4120383657,0.015851,-0.700731,-0.068844,-0.709919,9.80140876770020,0.73733788728714,0.06247485429049,1.46410501003265,1.00649583339691,-0.46465271711349
620,4120400324,0.015860,-0.700703,-0.068935,-0.709938,9.81095790863037,0.74112480878830,0.06166186928749,1.44782197475433,0.82329463958740,-0.47883585095406
621,4120416991,0.015891,-0.700713,-0.069029,-0.709918,9.82505130767822,0.74901539087296,0.05666273832321,1.54105198383331,0.45365205407143,-0.36756142973900
622,4120433658,0.015940,-0.700735,-0.069103,-0.709888,9.84002494812012,0.76442563533783,0.06512230634689,1.52642714977264,0.36350822448730,-0.16919109225273
623,4120450325,0.015969,-0.700759,-0.069117,-0.709863,9.82689762115479,0.76821988821030,0.04745953530073,1.15622138977051,0.37030842900276,0.01294722035527
624,4120466992,0.015958,-0.700759,-0.069089,-0.709865,9.77014541625977,0.75817871093750,0.08204128593206,0.69350224733353,0.60218018293381,0.00828570779413
625,4120483659,0.015908,-0.700760,-0.069011,-0.709873,9.75864315032959,0.76665991544724,0.08124784380198,0.31244930624962,0.61346250772476,0.06471047550440
626,4120500326,0.015864,-0.700779,-0.068934,-0.709863,9.78392696380615,0.74979120492935,0.06550896167755,0.31035551428795,0.44619241356850,0.09903790056705
627,4120516993,0.015836,-0.700797,-0.068891,-0.709850,9.77279853820801,0.71306711435318,0.04132665321231,0.66211378574371,0.44376555085182,0.00523779634386
628,4120533660,0.015843,-0.700783,-0.068915,-0.709861,9.79698467254639,0.70016080141068,0.06325157731771,1.12703561782837,0.71884602308273,-0.15772941708565
629,4120550327,0.015904,-0.700755,-0.069022,-0.709877,9.84867477416992,0.74109780788422,0.07014750689268,1.71225988864899,0.82832741737366,-0.30615496635437
630,4120566994,0.015984,-0.700720,-0.069068,-0.709905,9.85082340240479,0.77547878026962,0.04221834242344,1.55242419242859,0.93782192468643,0.07991163432598
631,4120583661,0.016064,-0.700696,-0.069077,-0.709927,9.82213687896729,0.78800135850906,0.06939069926739,1.35341966152191,0.86184811592102,0.26662176847458
632,4120600328,0.016124,-0.700709,-0.069043,-0.709915,9.79242420196533,0.76791191101074,0.09013774245977,1.05225932598114,0.50756686925888,0.39449962973595
633,4120616995,0.016145,-0.700725,-0.068978,-0.709905,9.76672172546387,0.74867361783981,0.07305185496807,0.68893682956696,0.48488041758537,0.35136139392853
634,4120633662,0.016121,-0.700710,-0.068899,-0.709928,9.77476310729980,0.72970157861710,0.06511884182692,0.42259672284126,0.78127694129944,0.18141475319862
635,4120650329,0.016110,-0.700671,-0.068826,-0.709974,9.78029918670654,0.72096133232117,0.07974829524755,0.46726524829865,1.00911474227905,0.20818002521992
636,4120666996,0.016114,-0.700648,-0.068788,-0.710001,9.77148628234863,0.69601827859879,0.06929422914982,0.72683709859848,0.84638440608978,0.11824101954699
637,4120683663,0.016146,-0.700636,-0.068815,-0.710009,9.79419612884521,0.69681841135025,0.07432731986046,1.16573643684387,0.69872730970383,-0.04855527728796
638,4120700330,0.016198,-0.700611,-0.068882,-0.710027,9.81293392181396,0.73755764961243,0.07598724216223,1.48017084598541,0.82402467727661,-0.15366980433464
639,4120716997,0.016260,-0.700620,-0.068938,-0.710011,9.80596160888672,0.75575292110443,0.06873392313719,1.46689057350159,0.49450442194939,-0.03464758396149
640,4120733664,0.016310,-0.700644,-0.068962,-0.709983,9.79847431182861,0.76725417375565,0.07036456465721,1.29218626022339,0.36799049377441,0.07025563716888
641,4120750331,0.016349,-0.700674,-0.068950,-0.709954,9.79633331298828,0.74890661239624,0.09715847671032,1.07712924480438,0.33477082848549,0.19844719767570
642,4120766998,0.016360,-0.700706,-0.068911,-0.709926,9.79555416107178,0.76115077733994,0.08400193601847,0.78660440444946,0.31182178854942,0.18973886966705
643,4120783665,0.016318,-0.700724,-0.068832,-0.709917,9.79713821411133,0.74651896953583,0.07625189423561,0.36275905370712,0.45726990699768,0.11239492893219
644,4120800332,0.016265,-0.700723,-0.068726,-0.709929,9.79212951660156,0.71222329139709,0.09581021964550,0.17799545824528,0.64684873819351,0.18305397033691
645,4120816999,0.016198,-0.700716,-0.068678,-0.709942,9.79944801330566,0.70155531167984,0.08007485419512,0.39548566937447,0.67080944776535,-0.16905021667480
646,4120833666,0.016156,-0.700728,-0.068673,-0.709932,9.80951023101807,0.71116346120834,0.07081615179777,0.69864404201508,0.47185641527176,-0.24558740854263
647,4120850333,0.016141,-0.700740,-0.068705,-0.709917,9.80515766143799,0.68961769342422,0.07745373249054,1.07095658779144,0.46058037877083,-0.28948110342026
648,4120867000,0.016153,-0.700762,-0.068775,-0.709888,9.83376598358154,0.70617306232452,0.05447042360902,1.29399192333221,0.34429869055748,-0.33512294292450
649,4120883667,0.016153,-0.700780,-0.068841,-0.709864,9.82379627227783,0.74511599540710,0.07770570367575,1.24340677261353,0.38723838329315,-0.38177648186684
650,4120900334,0.016125,-0.700805,-0.068876,-0.709837,9.80661296844482,0.73912101984024,0.06499807536602,0.95475172996521,0.32770168781281,-0.36050513386726
651,4120917001,0.016076,-0.700828,-0.068887,-0.709814,9.78301239013672,0.74722141027451,0.10001764446497,0.74769866466522,0.34917792677879,-0.34568816423416
652,4120933668,0.016006,-0.700840,-0.068861,-0.709807,9.79777145385742,0.75965827703476,0.07416319847107,0.45191046595573,0.46998021006584,-0.27923604846001
653,4120950335,0.015960,-0.700846,-0.068835,-0.709804,9.79567527770996,0.76313757896423,0.07955630868673,0.47808662056923,0.52835154533386,-0.16597668826580
654,4120967002,0.015938,-0.700854,-0.068814,-0.709799,9.80434703826904,0.73605173826218,0.06090293824673,0.71725171804428,0.52657794952393,-0.07513486593962
655,4120983669,0.015971,-0.700858,-0.068833,-0.709792,9.80419063568115,0.72674071788788,0.04362865909934,1.07144331932068,0.54783004522324,0.00352174579166
656,4121000336,0.016016,-0.700861,-0.068858,-0.709786,9.79891777038574,0.75606065988541,0.06675052642822,1.23369967937469,0.56958800554276,0.03111943230033
657,4121017003,0.016047,-0.700856,-0.068850,-0.709791,9.78939533233643,0.76059222221375,0.09480564296246,1.02851641178131,0.66120463609695,0.11688354611397
658,4121033670,0.016068,-0.700869,-0.068831,-0.709780,9.81354236602783,0.73541259765625,0.04550418257713,0.87473767995834,0.48630830645561,0.13208468258381
659,4121050337,0.016069,-0.700871,-0.068802,-0.709780,9.81271362304688,0.73315447568893,0.05210425704718,0.78604084253311,0.59093618392944,0.07366212457418
660,4121067004,0.016070,-0.700870,-0.068782,-0.709783,9.80278778076172,0.73097801208496,0.07190581411123,0.81856912374496,0.61606228351593,0.03154203668237
661,4121083671,0.016055,-0.700864,-0.068759,-0.709792,9.81269931793213,0.74780315160751,0.08017539978027,0.75369209051132,0.66885006427765,-0.03556963801384
662,4121100338,0.016043,-0.700868,-0.068730,-0.709790,9.83137607574463,0.71923249959946,0.08391570299864,0.61850833892822,0.55678170919418,0.00927179772407
663,4121117005,0.016066,-0.700883,-0.068727,-0.709776,9.80659103393555,0.72321021556854,0.03823331370950,1.03045010566711,0.47028756141663,0.06988424807787
664,4121133672,0.016104,-0.700885,-0.068740,-0.709771,9.75141811370850,0.74610966444016,0.09424483776093,1.17637848854065,0.57727187871933,0.05257006734610
665,4121150339,0.016155,-0.700893,-0.068769,-0.709760,9.78142642974854,0.75487881898880,0.07693065702915,1.30961573123932,0.52751922607422,0.04010948911309
666,4121167006,0.016219,-0.700882,-0.068832,-0.709764,9.83716678619385,0.74804568290710,0.08934068679810,1.51006066799164,0.69028788805008,-0.06464005261660
667,4121183673,0.016258,-0.700881,-0.068880,-0.709759,9.87091541290283,0.72936898469925,0.10130841284990,1.28139042854309,0.58783704042435,-0.11207476258278
668,4121200340,0.016280,-0.700882,-0.068883,-0.709757,9.81374168395996,0.72324609756470,0.11080011725426,1.03791618347168,0.59030872583389,0.02130976878107
669,4121217007,0.016235,-0.700851,-0.068808,-0.709796,9.80583858489990,0.73472523689270,0.09071532636881,0.27593842148781,0.91744679212570,0.05149433016777
670,4121233674,0.016178,-0.700807,-0.068741,-0.709846,9.81823348999023,0.77193903923035,0.06282553821802,0.28199577331543,1.03397190570831,-0.04550736397505
671,4121250341,0.016088,-0.700774,-0.068624,-0.709893,9.79837894439697,0.77379304170609,0.06723345071077,-0.09326225519180,0.95349687337875,0.02791784517467
672,4121267008,0.015997,-0.700757,-0.068492,-0.709924,9.78580856323242,0.73760348558426,0.07855139672756,-0.21169535815716,0.79631167650223,0.11160733550787
673,4121283675,0.015923,-0.700771,-0.068440,-0.709917,9.77598476409912,0.69421333074570,0.07528273761272,0.29249057173729,0.46798881888390,-0.16796807944775
674,4121300342,0.015912,-0.700789,-0.068466,-0.709897,9.78457546234131,0.69272875785828,0.04643483459949,0.98484027385712,0.39862963557243,-0.24059288203716
675,4121317009,0.015933,-0.700767,-0.068551,-0.709910,9.78213310241699,0.71303176879883,0.07709585875273,1.45595383644104,0.77099347114563,-0.39027988910675
676,4121333676,0.015956,-0.700719,-0.068632,-0.709949,9.80222320556641,0.72050768136978,0.06857275217772,1.41168880462646,1.02242696285248,-0.37366366386414
677,4121350343,0.015950,-0.700691,-0.068700,-0.709970,9.81571674346924,0.74950855970383,0.04947611689568,1.18064308166504,0.81964480876923,-0.44965013861656
678,4121367010,0.015938,-0.700704,-0.068759,-0.709952,9.82613849639893,0.75079524517059,0.02643935009837,1.14887058734894,0.43486523628235,-0.39916750788689
679,4121383677,0.015925,-0.700724,-0.068788,-0.709930,9.81040191650391,0.76239269971848,0.06385704129934,1.02964329719543,0.38758420944214,-0.26356109976768
680,4121400344,0.015905,-0.700752,-0.068785,-0.709903,9.81687259674072,0.72497516870499,0.06403785943985,0.82684832811356,0.31600308418274,-0.13844944536686
681,4121417011,0.015900,-0.700758,-0.068790,-0.709897,9.77629852294922,0.74768859148026,0.06549748778343,0.90946853160858,0.54305326938629,-0.11147286742926
682,4121433678,0.015886,-0.700763,-0.068774,-0.709894,9.80642414093018,0.75015008449554,0.09917452186346,0.67119997739792,0.54195827245712,-0.05752612277865
683,4121450345,0.015874,-0.700806,-0.068735,-0.709855,9.77423572540283,0.76078444719315,0.09907167404890,0.67887097597122,0.19740347564220,0.07949541509151
684,4121467012,0.015848,-0.700836,-0.068721,-0.709828,9.75628662109375,0.73198902606964,0.08776358515024,0.67273032665253,0.30289575457573,-0.10895001888275
685,4121483679,0.015842,-0.700824,-0.068768,-0.709835,9.80182647705078,0.73029530048370,0.06524633616209,1.06263256072998,0.67133456468582,-0.33467477560043
686,4121500346,0.015867,-0.700794,-0.068860,-0.709855,9.84050655364990,0.77529460191727,0.05623757094145,1.32990741729736,0.83378946781158,-0.40857377648354
687,4121517013,0.015928,-0.700751,-0.068902,-0.709892,9.86302566528320,0.78958547115326,0.05901449173689,1.39901041984558,1.01059389114380,0.00179929216392
688,4121533680,0.015982,-0.700712,-0.068894,-0.709930,9.80049228668213,0.79390943050385,0.05717524141073,1.16964221000671,0.99865192174911,0.20468389987946
689,4121550347,0.016022,-0.700716,-0.068856,-0.709929,9.80057907104492,0.78320044279099,0.09924894571304,0.93908953666687,0.59508544206619,0.31626558303833
690,4121567014,0.016036,-0.700721,-0.068785,-0.709930,9.80589580535889,0.76131379604340,0.09651762992144,0.61769497394562,0.59201836585999,0.33929780125618
691,4121583681,0.016023,-0.700690,-0.068687,-0.709971,9.80194950103760,0.73880851268768,0.09532629698515,0.33431616425514,0.94911050796509,0.31878203153610
692,4121600348,0.016011,-0.700644,-0.068617,-0.710023,9.78514289855957,0.70381486415863,0.07564841210842,0.42410153150558,1.06607103347778,0.18177974224091
693,4121617015,0.016016,-0.700613,-0.068574,-0.710058,9.77863502502441,0.69660860300064,0.08278255164623,0.71946716308594,0.92352354526520,0.14580669999123
694,4121633682,0.016064,-0.700596,-0.068579,-0.710073,9.78547477722168,0.71163946390152,0.07739742845297,1.13339400291443,0.76816964149475,0.12773692607880
695,4121650349,0.016125,-0.700583,-0.068604,-0.710083,9.80522632598877,0.71491408348083,0.05250597372651,1.34262418746948,0.73778021335602,0.10063870251179
696,4121667016,0.016219,-0.700580,-0.068672,-0.710077,9.80717754364014,0.72279536724091,0.05483490601182,1.64429056644440,0.61635047197342,0.06083656847477
697,4121683683,0.016308,-0.700593,-0.068737,-0.710056,9.81521415710449,0.72065472602844,0.05649628490210,1.70522320270538,0.46690037846565,0.05801916867495
698,4121700350,0.016375,-0.700612,-0.068764,-0.710032,9.79467773437500,0.74842417240143,0.07504037022591,1.34235525131226,0.41607189178467,0.13926266133785
699,4121717017,0.016396,-0.700647,-0.068737,-0.710000,9.79776382446289,0.75536555051804,0.09772345423698,0.90342390537262,0.28720799088478,0.18391196429729
700,4121733684,0.016362,-0.700671,-0.068671,-0.709984,9.79442310333252,0.72982168197632,0.06404629349709,0.44900339841843,0.39111867547035,0.09641899913549
701,4121750351,0.016312,-0.700698,-0.068590,-0.709966,9.78527164459229,0.69038683176041,0.05502352491021,0.32562065124512,0.36871403455734,0.08616752922535
702,4121767018,0.016302,-0.700715,-0.068574,-0.709951,9.79918670654297,0.68329817056656,0.06078089401126,0.79434585571289,0.43830370903015,-0.03004369512200
703,4121783685,0.016309,-0.700728,-0.068609,-0.709934,9.80906200408936,0.70705509185791,0.08146645873785,1.12376999855042,0.45395946502686,-0.19407382607460
704,4121800352,0.016344,-0.700762,-0.068689,-0.709892,9.81755161285400,0.71511471271515,0.08092311024666,1.44098329544067,0.22846527397633,-0.26475206017494
705,4121817019,0.016410,-0.700803,-0.068783,-0.709841,9.81051349639893,0.74024260044098,0.09293155372143,1.63073503971100,0.16906943917274,-0.17310343682766
706,4121833686,0.016454,-0.700841,-0.068842,-0.709797,9.80745315551758,0.73784035444260,0.09320958703756,1.43989479541779,0.21427583694458,-0.11964331567287
707,4121850353,0.016460,-0.700862,-0.068856,-0.709774,9.80873680114746,0.76371723413467,0.07283848524094,1.08124017715454,0.38522785902023,-0.09601560980082
708,4121867020,0.016433,-0.700881,-0.068822,-0.709760,9.79627990722656,0.76087784767151,0.06281604617834,0.63141703605652,0.42750155925751,-0.02884630113840
709,4121883687,0.016386,-0.700886,-0.068765,-0.709762,9.81442928314209,0.75268435478210,0.09989777207375,0.41313925385475,0.56900537014008,-0.02279530465603
710,4121900354,0.016330,-0.700888,-0.068720,-0.709765,9.82697105407715,0.74053639173508,0.08808546513319,0.47564062476158,0.58441770076752,-0.12516285479069
711,4121917021,0.016322,-0.700893,-0.068709,-0.709762,9.81532573699951,0.71949344873428,0.05681508779526,0.81927335262299,0.55734509229660,-0.05452303215861
712,4121933688,0.016363,-0.700901,-0.068742,-0.709750,9.82505130767822,0.71530187129974,0.06919907778502,1.18388295173645,0.50335359573364,-0.02369815111160
713,4121950355,0.016407,-0.700891,-0.068796,-0.709754,9.80995368957520,0.73366135358810,0.10482663661242,1.38427031040192,0.68107366561890,-0.11651217192411
714,4121967022,0.016439,-0.700877,-0.068822,-0.709763,9.80880832672119,0.73694473505020,0.08693378418684,1.18565046787262,0.71916621923447,-0.04668554663658
715,4121983689,0.016448,-0.700867,-0.068827,-0.709773,9.81062602996826,0.73968160152435,0.06333962082863,0.98879104852676,0.69670385122299,-0.06142565235496
716,4122000356,0.016441,-0.700855,-0.068808,-0.709787,9.82079982757568,0.74136388301849,0.06883891671896,0.73680686950684,0.72049158811569,-0.02033648267388
717,4122017023,0.016440,-0.700835,-0.068785,-0.709809,9.80284023284912,0.74755573272705,0.06342568993568,0.74223029613495,0.79868078231812,0.02196288667619
718,4122033690,0.016446,-0.700825,-0.068753,-0.709821,9.79838275909424,0.73178303241730,0.05797735601664,0.82310253381729,0.71097016334534,0.11254220455885
719,4122050357,0.016435,-0.700806,-0.068738,-0.709843,9.80327892303467,0.71285498142242,0.05663977935910,0.78952425718307,0.79280263185501,-0.06147687882185
720,4122067024,0.016445,-0.700791,-0.068742,-0.709857,9.80601310729980,0.70560443401337,0.06852964311838,0.99045598506927,0.74219202995300,-0.05107812955976
721,4122083691,0.016462,-0.700782,-0.068762,-0.709863,9.79042434692383,0.72269743680954,0.05216376483440,1.15239214897156,0.67865967750549,-0.08953559398651
722,4122100358,0.016464,-0.700782,-0.068777,-0.709861,9.78744125366211,0.73466467857361,0.08883117139339,0.99593698978424,0.58872067928314,-0.13449870049953
723,4122117025,0.016459,-0.700787,-0.068757,-0.709859,9.83265495300293,0.70577430725098,0.03257058188319,0.77395170927048,0.56073880195618,0.00315036205575
724,4122133692,0.016490,-0.700782,-0.068778,-0.709861,9.81038379669189,0.73928189277649,0.04338096827269,1.16970002651215,0.64524155855179,-0.01783924549818
725,4122150359,0.016534,-0.700781,-0.068776,-0.709861,9.76387310028076,0.76389425992966,0.06914619356394,1.10716009140015,0.61690741777420,0.15179367363453
726,4122167026,0.016596,-0.700806,-0.068762,-0.709836,9.77785015106201,0.74505990743637,0.06738955527544,1.13510358333588,0.39156696200371,0.31603509187698
727,4122183693,0.016653,-0.700821,-0.068787,-0.709817,9.84255599975586,0.74188888072968,0.06181577220559,1.36541306972504,0.45874908566475,0.09607323259115
728,4122200360,0.016700,-0.700838,-0.068809,-0.709798,9.85368156433105,0.71941065788269,0.09351392090321,1.25938928127289,0.43901449441910,0.06307127326727
729,4122217027,0.016705,-0.700830,-0.068798,-0.709806,9.82049751281738,0.70854163169861,0.09388361871243,0.91115897893906,0.67932558059692,0.00029454601463
730,4122233694,0.016655,-0.700787,-0.068735,-0.709856,9.82483673095703,0.73111665248871,0.09567579627037,0.37395817041397,1.03306257724762,-0.03094654344022
731,4122250361,0.016632,-0.700731,-0.068693,-0.709916,9.83251476287842,0.77399593591690,0.07851301878691,0.53504925966263,1.14815318584442,-0.01643694750965
732,4122267028,0.016606,-0.700681,-0.068610,-0.709974,9.79685878753662,0.77763646841049,0.08140927553177,0.31922385096550,1.11472856998444,0.17087513208389
733,4122283695,0.016573,-0.700653,-0.068509,-0.710012,9.76072025299072,0.73394000530243,0.06004737317562,0.17688128352165,0.91037780046463,0.23964519798756
734,4122300362,0.016542,-0.700655,-0.068471,-0.710015,9.77639675140381,0.67355763912201,0.06835201382637,0.54220157861710,0.58713907003403,-0.03613951802254
735,4122317029,0.016551,-0.700641,-0.068496,-0.710026,9.78522872924805,0.68636381626129,0.08458147197962,0.99102586507797,0.71319204568863,-0.15646800398827
736,4122333696,0.016572,-0.700600,-0.068511,-0.710064,9.77832412719727,0.70201200246811,0.10446047782898,1.10844075679779,0.98840683698654,-0.06446076184511
737,4122350363,0.016555,-0.700560,-0.068516,-0.710104,9.77963733673096,0.70426887273788,0.04585823416710,0.95873469114304,0.98799711465836,-0.19850483536720
738,4122367030,0.016534,-0.700558,-0.068529,-0.710105,9.80899906158447,0.68872141838074,0.06454201787710,0.90411555767059,0.60052824020386,-0.23627074062824
739,4122383697,0.016541,-0.700580,-0.068576,-0.710078,9.82008838653564,0.71451544761658,0.04361587390304,1.13925290107727,0.35244357585907,-0.25089561939240
740,4122400364,0.016570,-0.700622,-0.068616,-0.710033,9.81255245208740,0.73489409685135,0.04716659337282,1.29371023178101,0.18861189484596,-0.09890983998775
741,4122417031,0.016594,-0.700661,-0.068650,-0.709990,9.79907798767090,0.72300171852112,0.05199018493295,1.16331589221954,0.20025287568569,-0.09615647047758
742,4122433698,0.016598,-0.700687,-0.068677,-0.709962,9.77785968780518,0.74932855367661,0.08427187055349,1.06598138809204,0.33297151327133,-0.16038671135902
743,4122450365,0.016572,-0.700698,-0.068653,-0.709953,9.80289745330811,0.75549501180649,0.09548634290695,0.68020278215408,0.49202632904053,-0.07692774385214
744,4122467032,0.016535,-0.700734,-0.068597,-0.709924,9.80683612823486,0.75013780593872,0.11649133265018,0.47015950083733,0.27091827988625,0.04104434698820
745,4122483699,0.016471,-0.700756,-0.068528,-0.709911,9.76142215728760,0.72214680910110,0.09708335250616,0.26908701658249,0.40492394566536,-0.03827177360654
746,4122500366,0.016424,-0.700756,-0.068525,-0.709912,9.79666996002197,0.69258958101273,0.08633762598038,0.66128146648407,0.57846283912659,-0.29196557402611
747,4122517033,0.016441,-0.700742,-0.068605,-0.709918,9.84623718261719,0.73464089632034,0.05723394453526,1.36659109592438,0.69028782844543,-0.37711498141289
748,4122533700,0.016488,-0.700709,-0.068662,-0.709944,9.83453178405762,0.77648872137070,0.06667179614305,1.40878796577454,0.90131080150604,-0.13866074383259
749,4122550367,0.016534,-0.700679,-0.068685,-0.709970,9.80591201782227,0.77516341209412,0.06367568671703,1.23250865936279,0.88572561740875,0.03090172074735
750,4122567034,0.016567,-0.700686,-0.068691,-0.709963,9.79705619812012,0.76107949018478,0.08301118016243,1.09992444515228,0.54255378246307,0.06715650111437
751,4122583701,0.016585,-0.700695,-0.068676,-0.709955,9.79716873168945,0.74744081497192,0.08209644258022,0.81758296489716,0.51381635665894,0.09274357557297
752,4122600368,0.016572,-0.700680,-0.068623,-0.709975,9.76360988616943,0.73395442962646,0.09342807531357,0.59150606393814,0.76792633533478,0.11356030404568
753,4122617035,0.016551,-0.700662,-0.068555,-0.709999,9.76708412170410,0.70489656925201,0.08967129141092,0.45892190933228,0.79718887805939,0.14301490783691
754,4122633702,0.016536,-0.700647,-0.068505,-0.710019,9.78558635711670,0.71129763126373,0.08189054578543,0.60927498340607,0.76824015378952,0.08932429552078
755,4122650369,0.016523,-0.700644,-0.068478,-0.710025,9.79323101043701,0.70274341106415,0.08295875787735,0.73290735483170,0.63424724340439,-0.00420688558370
756,4122667036,0.016531,-0.700651,-0.068478,-0.710018,9.80439281463623,0.71543961763382,0.08980476111174,0.93371087312698,0.53656047582626,-0.02948661707342
757,4122683703,0.016572,-0.700663,-0.068503,-0.710002,9.81195831298828,0.71403038501740,0.06420583277941,1.18969702720642,0.46960881352425,0.01521394308656
758,4122700370,0.016632,-0.700701,-0.068541,-0.709960,9.82491588592529,0.72416430711746,0.03560656681657,1.32128238677979,0.22375255823135,0.06533800065517
759,4122717037,0.016670,-0.700744,-0.068574,-0.709914,9.79739856719971,0.72557681798935,0.07143697887659,1.26722681522369,0.17735515534878,-0.01709007471800
760,4122733704,0.016698,-0.700780,-0.068577,-0.709878,9.78921890258789,0.74018430709839,0.08966313302517,1.04695761203766,0.26082694530487,0.07284253090620
761,4122750371,0.016700,-0.700796,-0.068529,-0.709866,9.78478145599365,0.74595332145691,0.04931632429361,0.75635576248169,0.47284883260727,0.17982673645020
762,4122767038,0.016674,-0.700786,-0.068469,-0.709882,9.79917430877686,0.73863083124161,0.06393985450268,0.45714831352234,0.71599030494690,0.08292112499475
763,4122783705,0.016641,-0.700772,-0.068409,-0.709903,9.81061172485352,0.72372174263000,0.06068329140544,0.44220975041389,0.75768131017685,0.05317837372422
764,4122800372,0.016635,-0.700769,-0.068375,-0.709909,9.82644653320312,0.70723301172256,0.03556489944458,0.73046141862869,0.63698780536652,0.06207237392664
