sep=,
DeviceTag:,E
FirmwareVersion:,3.0.0
AppVersion:,2023.6.0
StartTime: ,2024-03-14_12:04:07_000 EDT
© Movella Technologies B. V. 2005-2024

PacketCounter,SampleTimeFine,Quat_W,Quat_X,Quat_Y,Quat_Z,Acc_X,Acc_Y,Acc_Z,Gyr_X,Gyr_Y,Gyr_Z
0,4110066784,0.192182,-0.144947,0.244859,0.939202,0.00000000000000,0.00000000000000,0.00000000000000,0.00000000000000,0.00000000000000,0.00000000000000
1,4110083451,0.192069,-0.145131,0.244861,0.939196,-3.50880551338196,3.91226816177368,8.09296989440918,1.21438765525818,1.04479324817657,0.41975367069244
2,4110100118,0.191981,-0.145355,0.244901,0.939169,-3.54001951217651,3.93888521194458,8.09746360778809,1.39838910102844,1.40383195877075,0.36323928833008
3,4110116785,0.191916,-0.145486,0.244925,0.939156,-3.58442711830139,3.94201898574829,8.12794589996338,1.42503941059113,0.72787451744080,0.36047312617302
4,4110133452,0.191876,-0.145467,0.244816,0.939196,-3.57054853439331,3.91162967681885,8.10213947296143,0.71689951419830,-0.53647714853287,0.34824305772781
5,4110150119,0.191886,-0.145400,0.244760,0.939218,-3.54085135459900,3.89620256423950,8.11520481109619,1.12595975399017,-0.76425087451935,0.29814460873604
6,4110166786,0.191872,-0.145353,0.244703,0.939243,-3.54469966888428,3.92344641685486,8.10644721984863,1.13132560253143,-0.66268372535706,0.28086885809898
7,4110183453,0.191881,-0.145329,0.244629,0.939264,-3.55608558654785,3.88422131538391,8.09694099426270,1.01700341701508,-0.56953036785126,0.07254797220230
8,4110200120,0.191919,-0.145298,0.244577,0.939275,-3.52508950233459,3.90961122512817,8.11407279968262,1.19602346420288,-0.60757809877396,-0.04708254709840
9,4110216787,0.191962,-0.145261,0.244485,0.939296,-3.53856730461121,3.92483425140381,8.09714412689209,0.93529897928238,-0.72489708662033,-0.11678750813007
10,4110233454,0.191970,-0.145197,0.244416,0.939322,-3.56225228309631,3.90316200256348,8.09153175354004,1.15556824207306,-0.88744807243347,0.02778978087008
11,4110250121,0.191996,-0.145077,0.244339,0.939355,-3.55803203582764,3.95323276519775,8.12938404083252,1.14196777343750,-1.26304543018341,0.09407544136047
12,4110266788,0.191992,-0.144969,0.244292,0.939385,-3.54133582115173,3.89326047897339,8.10201358795166,1.31432867050171,-1.10464370250702,0.25252845883369
13,4110283455,0.192000,-0.144861,0.244343,0.939387,-3.54457402229309,3.89348459243774,8.11510086059570,1.88911592960358,-0.84818381071091,0.48698711395264
14,4110300122,0.191949,-0.144791,0.244386,0.939397,-3.52184128761292,3.91055083274841,8.11949539184570,1.82373929023743,-0.63357490301132,0.57583749294281
15,4110316789,0.191947,-0.144700,0.244376,0.939414,-3.53462791442871,3.93947434425354,8.10532665252686,1.48123371601105,-0.86114388704300,0.39930197596550
16,4110333456,0.191873,-0.144651,0.244387,0.939434,-3.51708221435547,3.91548466682434,8.09612941741943,1.52250862121582,-0.49093788862228,0.71688675880432
17,4110350123,0.191793,-0.144635,0.244423,0.939443,-3.54516553878784,3.93827676773071,8.10444068908691,1.67416143417358,-0.23659092187881,0.67434406280518
18,4110366790,0.191684,-0.144654,0.244438,0.939459,-3.54433941841125,3.89304947853088,8.11020660400391,1.49506449699402,-0.05287101864815,0.69663983583450
19,4110383457,0.191616,-0.144635,0.244490,0.939462,-3.53033185005188,3.90116906166077,8.15909671783447,1.78455197811127,-0.22912481427193,0.65092110633850
20,4110400124,0.191596,-0.144604,0.244538,0.939458,-3.53377866744995,3.91344475746155,8.14587593078613,1.81483864784241,-0.37122398614883,0.38973557949066
21,4110416791,0.191594,-0.144552,0.244442,0.939492,-3.51746439933777,3.93188285827637,8.11698818206787,0.89238494634628,-0.79429465532303,0.14960378408432
22,4110433458,0.191611,-0.144502,0.244339,0.939523,-3.53383851051331,3.92659878730774,8.10866451263428,0.86720764636993,-0.81087887287140,0.02680369280279
23,4110450125,0.191625,-0.144439,0.244169,0.939574,-3.53459787368774,3.91592144966125,8.10535621643066,0.44613477587700,-1.03189074993134,-0.04252348467708
24,4110466792,0.191648,-0.144420,0.244079,0.939595,-3.51592087745667,3.87940883636475,8.11930370330811,0.93724548816681,-0.60216093063354,-0.07785619795322
25,4110483459,0.191663,-0.144383,0.244023,0.939613,-3.53330922126770,3.93623733520508,8.13748455047607,1.18183410167694,-0.66374671459198,0.02519008889794
26,4110500126,0.191684,-0.144331,0.243909,0.939646,-3.52028322219849,3.91741037368774,8.12765407562256,0.76024889945984,-0.80264437198639,0.08721123635769
27,4110516793,0.191682,-0.144276,0.243891,0.939659,-3.51758551597595,3.90281772613525,8.10825538635254,1.42856121063232,-0.68570953607559,0.22608329355717
28,4110533460,0.191655,-0.144198,0.243853,0.939687,-3.53093552589417,3.91579031944275,8.09378242492676,1.28985559940338,-0.83332836627960,0.41715401411057
29,4110550127,0.191639,-0.144130,0.243839,0.939704,-3.50102806091309,3.90214085578918,8.11273288726807,1.45727300643921,-0.74513107538223,0.32654914259911
30,4110566794,0.191582,-0.144124,0.243867,0.939709,-3.50860452651978,3.92813825607300,8.10726261138916,1.61340820789337,-0.19772367179394,0.55016082525253
31,4110583461,0.191511,-0.144143,0.243851,0.939725,-3.52792596817017,3.92461752891541,8.11423492431641,1.31756842136383,-0.13390961289406,0.45305025577545
32,4110600128,0.191421,-0.144184,0.243872,0.939732,-3.50067806243896,3.91821694374084,8.12006950378418,1.49097931385040,0.13608027994633,0.64285320043564
33,4110616795,0.191343,-0.144212,0.243947,0.939724,-3.50209259986877,3.90584874153137,8.14778041839600,1.88588869571686,0.11334899067879,0.62231165170670
34,4110633462,0.191283,-0.144163,0.244070,0.939712,-3.53687334060669,3.89210391044617,8.14059925079346,2.26658320426941,-0.26937517523766,0.82106631994247
35,4110650129,0.191250,-0.144074,0.244150,0.939711,-3.50899457931519,3.92451763153076,8.10823917388916,2.02837204933167,-0.62689000368118,0.71742457151413
36,4110666796,0.191212,-0.144025,0.244213,0.939710,-3.51516795158386,3.93529868125916,8.09280681610107,1.89338028430939,-0.42132249474525,0.59617400169373
37,4110683463,0.191164,-0.143997,0.244194,0.939729,-3.50305652618408,3.90323877334595,8.10646915435791,1.34798347949982,-0.44678151607513,0.45280691981316
38,4110700130,0.191163,-0.143991,0.244225,0.939722,-3.51227283477783,3.90232229232788,8.12051868438721,1.69580423831940,-0.26641690731049,0.19930523633957
39,4110716797,0.191139,-0.144008,0.244282,0.939710,-3.52893733978271,3.92204165458679,8.12253952026367,1.85355269908905,-0.06497301906347,0.27079021930695
40,4110733464,0.191160,-0.143922,0.244178,0.939745,-3.54917073249817,3.95712065696716,8.14240646362305,0.91719079017639,-1.07319140434265,0.03565287962556
41,4110750131,0.191188,-0.143793,0.244024,0.939799,-3.49496769905090,3.88807296752930,8.12644386291504,0.59978544712067,-1.41865551471710,0.08900413662195
42,4110766798,0.191225,-0.143649,0.244019,0.939815,-3.52839684486389,3.88725590705872,8.10891628265381,1.63944315910339,-1.27728605270386,0.19118599593639
43,4110783465,0.191237,-0.143542,0.244009,0.939832,-3.48482131958008,3.93346047401428,8.12800693511963,1.56237459182739,-1.04414653778076,0.22699253261089
44,4110800132,0.191223,-0.143490,0.244022,0.939839,-3.49911189079285,3.91953444480896,8.09429740905762,1.64190220832825,-0.60825681686401,0.28427535295486
45,4110816799,0.191196,-0.143435,0.244032,0.939850,-3.50595855712891,3.94125080108643,8.09601497650146,1.59052300453186,-0.59951007366180,0.40884274244308
46,4110833466,0.191151,-0.143388,0.244000,0.939875,-3.48702001571655,3.91091251373291,8.10360336303711,1.30728495121002,-0.63009160757065,0.39816218614578
47,4110850133,0.191115,-0.143371,0.244001,0.939885,-3.47838854789734,3.92878961563110,8.12768936157227,1.47280693054199,-0.35460141301155,0.39029908180237
48,4110866800,0.191102,-0.143377,0.243977,0.939893,-3.50837278366089,3.92095708847046,8.14751338958740,1.29233992099762,-0.25660723447800,0.22411109507084
49,4110883467,0.191082,-0.143406,0.243998,0.939887,-3.50467967987061,3.90828609466553,8.13474941253662,1.54342138767242,0.01366437599063,0.31672665476799
50,4110900134,0.191051,-0.143431,0.244060,0.939873,-3.50366520881653,3.91958403587341,8.11445903778076,1.84311521053314,0.03775311261415,0.35953822731972
51,4110916801,0.190993,-0.143460,0.244118,0.939866,-3.49223160743713,3.92637848854065,8.11048793792725,1.79349076747894,0.07448172569275,0.49049594998360
52,4110933468,0.190944,-0.143441,0.244126,0.939876,-3.50447630882263,3.93348670005798,8.11887359619141,1.50101947784424,-0.33021813631058,0.49989590048790
53,4110950135,0.190913,-0.143426,0.244108,0.939890,-3.51506996154785,3.91293215751648,8.12705802917480,1.31202316284180,-0.33517414331436,0.42181551456451
54,4110966802,0.190865,-0.143408,0.244126,0.939897,-3.50393390655518,3.91884899139404,8.13971138000488,1.58639943599701,-0.31870526075363,0.47460326552391
55,4110983469,0.190828,-0.143377,0.244092,0.939919,-3.51732087135315,3.94227433204651,8.15006828308105,1.27808642387390,-0.52970260381699,0.33069837093353
56,4111000136,0.190806,-0.143363,0.244106,0.939922,-3.50499010086060,3.89589524269104,8.11788177490234,1.59699034690857,-0.35191214084625,0.26378521323204
57,4111016803,0.190790,-0.143354,0.244094,0.939929,-3.49459791183472,3.91854786872864,8.12885379791260,1.41727888584137,-0.35602295398712,0.20805196464062
58,4111033470,0.190796,-0.143354,0.244086,0.939930,-3.49293684959412,3.90613365173340,8.09693431854248,1.42170977592468,-0.28700950741768,0.13303235173225
59,4111050137,0.190846,-0.143301,0.244011,0.939948,-3.51671314239502,3.94326972961426,8.13160514831543,1.07808971405029,-0.80519288778305,-0.09739869832993
60,4111066804,0.190851,-0.143215,0.243923,0.939982,-3.52318334579468,3.92319202423096,8.11704254150391,1.00383841991425,-1.01829051971436,0.15622466802597
61,4111083471,0.190830,-0.143120,0.243951,0.939994,-3.52691864967346,3.91498208045959,8.11905384063721,1.74850225448608,-0.82797527313232,0.49664300680161
62,4111100138,0.190793,-0.143049,0.243995,0.940001,-3.48539471626282,3.94291663169861,8.11456584930420,1.79682028293610,-0.60926848649979,0.59074407815933
63,4111116805,0.190755,-0.142995,0.244004,0.940014,-3.48325777053833,3.92534089088440,8.13522815704346,1.56981515884399,-0.57653552293777,0.48282501101494
64,4111133472,0.190747,-0.143004,0.243962,0.940026,-3.46019244194031,3.91414690017700,8.10425949096680,1.17184507846832,-0.27970990538597,0.15633991360664
65,4111150139,0.190760,-0.142974,0.243892,0.940046,-3.48446750640869,3.92507815361023,8.13640403747559,1.07391476631165,-0.62356030941010,0.03049191646278
66,4111166806,0.190772,-0.142957,0.243851,0.940056,-3.48545217514038,3.87958335876465,8.12287425994873,1.21902370452881,-0.45746207237244,0.10493523627520
67,4111183473,0.190751,-0.142953,0.243907,0.940047,-3.51273727416992,3.93595457077026,8.10724544525146,1.86314439773560,-0.20034889876842,0.30625098943710
68,4111200140,0.190730,-0.142953,0.243878,0.940059,-3.49958252906799,3.93246960639954,8.12958526611328,1.28238952159882,-0.32568469643593,0.20360815525055
69,4111216807,0.190698,-0.142972,0.243846,0.940070,-3.49957704544067,3.93446946144104,8.12361717224121,1.22082924842834,-0.17665719985962,0.26133915781975
70,4111233474,0.190648,-0.143004,0.243826,0.940081,-3.49156570434570,3.89466428756714,8.10995292663574,1.30611968040466,-0.09048326313496,0.27716785669327
71,4111250141,0.190598,-0.143018,0.243844,0.940084,-3.48191356658936,3.92357325553894,8.13352203369141,1.56429564952850,-0.11344505101442,0.40012159943581
72,4111266808,0.190529,-0.143014,0.243855,0.940096,-3.49903655052185,3.94520187377930,8.10684871673584,1.52837383747101,-0.25300863385201,0.50040811300278
73,4111283475,0.190492,-0.142983,0.243826,0.940116,-3.48389410972595,3.92369461059570,8.12668418884277,1.28049397468567,-0.48933699727058,0.40716505050659
74,4111300142,0.190456,-0.142956,0.243818,0.940129,-3.50787377357483,3.91404557228088,8.12669181823730,1.42370760440826,-0.42712381482124,0.40258041024208
75,4111316809,0.190462,-0.142832,0.243767,0.940160,-3.50058841705322,3.91325235366821,8.14423751831055,1.28578317165375,-1.20171582698822,0.28532546758652
76,4111333476,0.190455,-0.142664,0.243730,0.940197,-3.48751187324524,3.89617276191711,8.14134120941162,1.43305623531342,-1.47563087940216,0.40583321452141
77,4111350143,0.190468,-0.142537,0.243743,0.940210,-3.47291207313538,3.90720582008362,8.11827087402344,1.71749794483185,-1.10824227333069,0.32542213797569
78,4111366810,0.190464,-0.142428,0.243696,0.940240,-3.49770784378052,3.93918228149414,8.12374305725098,1.29385125637054,-1.09710097312927,0.29578828811646
79,4111383477,0.190469,-0.142321,0.243560,0.940290,-3.47115588188171,3.92896270751953,8.10621929168701,0.69656300544739,-1.23092722892761,0.16197472810745
80,4111400144,0.190481,-0.142172,0.243431,0.940343,-3.48460721969604,3.93954038619995,8.12138843536377,0.79540240764618,-1.51935184001923,0.20236593484879
81,4111416811,0.190519,-0.142011,0.243290,0.940397,-3.46074533462524,3.88886117935181,8.15552520751953,0.69620436429977,-1.57883727550507,0.18228559195995
82,4111433478,0.190534,-0.141883,0.243259,0.940421,-3.48061037063599,3.86641716957092,8.13707733154297,1.43086624145508,-1.19791233539581,0.26755025982857
83,4111450145,0.190543,-0.141783,0.243283,0.940428,-3.47731065750122,3.90749359130859,8.14585018157959,1.77239871025085,-0.91956633329391,0.27242946624756
84,4111466812,0.190553,-0.141727,0.243324,0.940424,-3.46731400489807,3.90372467041016,8.11775684356689,1.86224794387817,-0.62517386674881,0.16818575561047
85,4111483479,0.190509,-0.141707,0.243354,0.940428,-3.45921206474304,3.95663499832153,8.14409637451172,1.70853364467621,-0.36015939712524,0.37600725889206
86,4111500146,0.190466,-0.141735,0.243313,0.940443,-3.46385931968689,3.91687345504761,8.12150859832764,1.14032864570618,-0.11567336320877,0.30926057696342
87,4111516813,0.190405,-0.141742,0.243268,0.940466,-3.46171522140503,3.91508436203003,8.12796115875244,1.14326131343842,-0.27559906244278,0.38125786185265
88,4111533480,0.190377,-0.141730,0.243223,0.940485,-3.45890808105469,3.88174009323120,8.14186286926270,1.17512333393097,-0.41611030697823,0.27727028727531
89,4111550147,0.190343,-0.141701,0.243271,0.940484,-3.45520448684692,3.88843274116516,8.13696575164795,1.86072409152985,-0.40925890207291,0.31907016038895
90,4111566814,0.190346,-0.141662,0.243326,0.940475,-3.45619034767151,3.92875957489014,8.14060688018799,1.88943564891815,-0.42864766716957,0.28709274530411
91,4111583481,0.190321,-0.141661,0.243396,0.940462,-3.46022653579712,3.92795610427856,8.13073348999023,1.93448841571808,-0.13805882632732,0.37427836656570
92,4111600148,0.190258,-0.141695,0.243483,0.940447,-3.45707511901855,3.92009091377258,8.10768699645996,1.98826253414154,0.15112772583961,0.51094770431519
93,4111616815,0.190197,-0.141771,0.243553,0.940430,-3.47266888618469,3.94513130187988,8.13917541503906,1.81293070316315,0.42186674475670,0.45872339606285
94,4111633482,0.190126,-0.141884,0.243640,0.940404,-3.44962882995605,3.93309140205383,8.11644268035889,1.89767050743103,0.68095195293427,0.41337615251541
95,4111650149,0.190100,-0.141861,0.243652,0.940410,-3.50908660888672,3.94473481178284,8.13398170471191,1.54541909694672,-0.35334640741348,0.40747246146202
96,4111666816,0.190049,-0.141835,0.243666,0.940421,-3.44914817810059,3.89817786216736,8.16079616546631,1.57653868198395,-0.39591473340988,0.46305203437805
97,4111683483,0.189965,-0.141809,0.243744,0.940422,-3.46180367469788,3.94573640823364,8.16204452514648,2.05296039581299,-0.33557116985321,0.54959732294083
98,4111700150,0.189913,-0.141763,0.243755,0.940436,-3.48291730880737,3.92433238029480,8.17158699035645,1.58934497833252,-0.53508132696152,0.48876717686653
99,4111716817,0.189853,-0.141725,0.243819,0.940437,-3.45842432975769,3.92397069931030,8.11920070648193,1.93483448028564,-0.39200875163078,0.55574434995651
100,4111733484,0.189808,-0.141733,0.243908,0.940422,-3.45210528373718,3.92542886734009,8.11137485504150,2.05561137199402,-0.05141109228134,0.43148437142372
101,4111750151,0.189759,-0.141754,0.244004,0.940404,-3.44622397422791,3.92356944084167,8.11616802215576,2.09493970870972,0.04833116754889,0.43045985698700
102,4111766818,0.189761,-0.141683,0.243978,0.940421,-3.49470496177673,3.98048853874207,8.14151763916016,1.37916696071625,-0.79122108221054,0.25181126594543
103,4111783485,0.189748,-0.141645,0.243918,0.940445,-3.44320440292358,3.91945195198059,8.16915416717529,1.09274017810822,-0.60401791334152,0.26463040709496
104,4111800152,0.189739,-0.141617,0.243950,0.940443,-3.47970390319824,3.92627382278442,8.13507747650146,1.73323690891266,-0.40705621242523,0.27305698394775
105,4111816819,0.189718,-0.141605,0.244005,0.940434,-3.46198725700378,3.92579984664917,8.12583351135254,1.86265766620636,-0.25741398334503,0.31194984912872
106,4111833486,0.189697,-0.141615,0.244118,0.940408,-3.47493004798889,3.95167922973633,8.14492988586426,2.18923282623291,0.03784276545048,0.42870539426804
107,4111850153,0.189649,-0.141601,0.244167,0.940407,-3.48464107513428,3.95751190185547,8.15201663970947,1.79369568824768,-0.23634757101536,0.49167415499687
108,4111866820,0.189622,-0.141572,0.244141,0.940423,-3.43682193756104,3.94736599922180,8.12754249572754,1.31079387664795,-0.48321557044983,0.35155990719795
109,4111883487,0.189606,-0.141526,0.244096,0.940445,-3.46836090087891,3.91291165351868,8.13227272033691,1.22876930236816,-0.65789425373077,0.24786689877510
110,4111900154,0.189619,-0.141484,0.244036,0.940465,-3.44281458854675,3.90868520736694,8.12422657012939,1.14328694343567,-0.68298190832138,0.07421280443668
111,4111916821,0.189667,-0.141458,0.243948,0.940481,-3.44879841804504,3.94621658325195,8.09755039215088,0.97715014219284,-0.66854918003082,-0.19956775009632
112,4111933488,0.189742,-0.141380,0.243772,0.940524,-3.48575067520142,3.94588375091553,8.16134071350098,0.45921009778976,-1.18461942672729,-0.33881115913391
113,4111950155,0.189864,-0.141154,0.243490,0.940606,-3.49344944953918,3.91447329521179,8.15450859069824,-0.05029693990946,-2.41146755218506,-0.45470869541168
114,4111966822,0.190031,-0.140787,0.243224,0.940696,-3.47026395797729,3.89350438117981,8.15950202941895,0.22332993149757,-3.32193517684937,-0.38109776377678
115,4111983489,0.190174,-0.140331,0.242988,0.940796,-3.45368099212646,3.92606067657471,8.16514682769775,0.58804202079773,-3.94568157196045,-0.25225311517715
116,4112000156,0.190382,-0.139680,0.242857,0.940885,-3.46002149581909,3.94871807098389,8.14981460571289,1.56926453113556,-5.12223958969116,-0.18423858284950
117,4112016823,0.190502,-0.139200,0.242610,0.940996,-3.40777492523193,3.92267894744873,8.14709663391113,0.48441302776337,-4.05621242523193,-0.00784388836473
118,4112033490,0.190569,-0.138817,0.242430,0.941085,-3.41219377517700,3.90986490249634,8.14318656921387,0.71084207296371,-3.16355895996094,0.35273808240891
119,4112050157,0.190570,-0.138536,0.242193,0.941187,-3.36856746673584,3.94139814376831,8.16390132904053,0.14353355765343,-2.49834585189819,0.53328198194504
120,4112066824,0.190538,-0.138440,0.242092,0.941234,-3.37113213539124,3.88533496856689,8.14182853698730,0.86042028665543,-1.03150665760040,0.46767511963844
121,4112083491,0.190481,-0.138456,0.242093,0.941243,-3.40589165687561,3.89058351516724,8.16174697875977,1.41303992271423,-0.09599000215530,0.47882941365242
122,4112100158,0.190466,-0.138409,0.242063,0.941260,-3.43117094039917,3.92039847373962,8.19614410400391,1.33031082153320,-0.63748085498810,0.26893332600594
123,4112116825,0.190468,-0.138292,0.241998,0.941294,-3.41182684898376,3.89906454086304,8.17391109466553,1.17940080165863,-1.17838275432587,0.26747342944145
124,4112133492,0.190494,-0.138185,0.241994,0.941306,-3.40693807601929,3.91812276840210,8.16324329376221,1.60560870170593,-1.02991831302643,0.16941519081593
125,4112150159,0.190496,-0.138118,0.241983,0.941318,-3.39228916168213,3.92076635360718,8.17023277282715,1.51472222805023,-0.77285677194595,0.18949553370476
126,4112166826,0.190476,-0.138125,0.242014,0.941313,-3.38191699981689,3.89547777175903,8.15917491912842,1.67092132568359,-0.16473449766636,0.26772958040237
127,4112183493,0.190473,-0.138068,0.241973,0.941332,-3.40762186050415,3.92874884605408,8.17293167114258,1.27671611309052,-0.73144102096558,0.21760548651218
128,4112200160,0.190478,-0.137983,0.241893,0.941364,-3.37788128852844,3.90780210494995,8.17866230010986,1.02375245094299,-0.96785902976990,0.23459953069687
129,4112216827,0.190496,-0.137849,0.241903,0.941378,-3.40697741508484,3.89497780799866,8.18416023254395,1.72108387947083,-1.16729259490967,0.28675979375839
130,4112233494,0.190498,-0.137714,0.241991,0.941374,-3.38990592956543,3.88980269432068,8.17348098754883,2.25563335418701,-1.05932199954987,0.40313103795052
131,4112250161,0.190516,-0.137515,0.242083,0.941376,-3.41632604598999,3.93398499488831,8.16197490692139,2.35923671722412,-1.48316097259521,0.44235691428185
132,4112266828,0.190548,-0.137263,0.242056,0.941414,-3.38102197647095,3.91332912445068,8.15315246582031,1.61617398262024,-2.04218363761902,0.35359609127045
133,4112283495,0.190592,-0.137004,0.242041,0.941446,-3.39230775833130,3.95210957527161,8.17677688598633,1.73926889896393,-2.10690712928772,0.26646173000336
134,4112300162,0.190648,-0.136760,0.241951,0.941493,-3.38077187538147,3.91605877876282,8.20148944854736,1.21182644367218,-2.12355542182922,0.14375127851963
135,4112316829,0.190665,-0.136515,0.241923,0.941533,-3.36924719810486,3.90187764167786,8.21206760406494,1.60528862476349,-2.00238156318665,0.39932754635811
136,4112333496,0.190667,-0.136306,0.241964,0.941552,-3.36383438110352,3.91225028038025,8.16202259063721,1.99453783035278,-1.59451210498810,0.55153107643127
137,4112350163,0.190635,-0.136172,0.242043,0.941558,-3.36230087280273,3.93366599082947,8.17153263092041,2.11895155906677,-0.98760652542114,0.68615144491196
138,4112366830,0.190587,-0.136119,0.242082,0.941565,-3.35361289978027,3.95325350761414,8.19785213470459,1.77014482021332,-0.51916301250458,0.54871368408203
139,4112383497,0.190529,-0.136114,0.242130,0.941565,-3.36036276817322,3.90726041793823,8.15518093109131,1.76764750480652,-0.16568213701248,0.54661339521408
140,4112400164,0.190453,-0.136143,0.242248,0.941546,-3.35374665260315,3.88694381713867,8.13628959655762,2.19746708869934,0.17665079236031,0.60909563302994
141,4112416831,0.190377,-0.136178,0.242358,0.941528,-3.36318945884705,3.94065451622009,8.16747856140137,2.10898828506470,0.24316698312759,0.67048919200897
142,4112433498,0.190333,-0.136214,0.242422,0.941515,-3.37714624404907,3.93608283996582,8.19273281097412,1.81878340244293,0.13342936336994,0.43796432018280
143,4112450165,0.190291,-0.136184,0.242411,0.941531,-3.38561058044434,3.93776178359985,8.19443321228027,1.41707396507263,-0.46245652437210,0.41680833697319
144,4112466832,0.190251,-0.136155,0.242429,0.941538,-3.35490322113037,3.90968775749207,8.15920639038086,1.60061454772949,-0.39003658294678,0.46294957399368
145,4112483499,0.190208,-0.136115,0.242466,0.941543,-3.35837030410767,3.93088364601135,8.17872142791748,1.76316535472870,-0.47020432353020,0.43942424654961
146,4112500166,0.190184,-0.136067,0.242477,0.941552,-3.36966156959534,3.93555188179016,8.17157459259033,1.59862947463989,-0.55253636837006,0.38435700535774
147,4112516833,0.190179,-0.136034,0.242491,0.941555,-3.34697818756104,3.90944242477417,8.18044757843018,1.62518990039825,-0.49106588959694,0.20955030620098
148,4112533500,0.190144,-0.136042,0.242582,0.941537,-3.37076616287231,3.94169402122498,8.17547702789307,2.09753942489624,-0.07719027996063,0.33801081776619
149,4112550167,0.190115,-0.136029,0.242605,0.941539,-3.36874270439148,3.98026585578918,8.17733001708984,1.62114310264587,-0.27810910344124,0.39102911949158
150,4112566834,0.190114,-0.135926,0.242546,0.941569,-3.38544297218323,3.94492340087891,8.19844150543213,1.18086075782776,-1.04946112632751,0.31232124567032
151,4112583501,0.190097,-0.135795,0.242514,0.941600,-3.33895874023438,3.87441873550415,8.18128395080566,1.39705741405487,-1.18278789520264,0.46111819148064
152,4112600168,0.190078,-0.135705,0.242580,0.941599,-3.35028481483459,3.92436552047729,8.16497230529785,2.03039574623108,-0.76513463258743,0.43005004525185
153,4112616835,0.190060,-0.135661,0.242613,0.941601,-3.34978532791138,3.93377208709717,8.14754199981689,1.75549411773682,-0.50670236349106,0.34045672416687
154,4112633502,0.190027,-0.135562,0.242634,0.941616,-3.36655426025391,3.94334220886230,8.20109939575195,1.75187015533447,-0.91528898477554,0.42774492502213
155,4112650169,0.190012,-0.135471,0.242679,0.941621,-3.33559656143188,3.91826891899109,8.17134189605713,1.85155475139618,-0.76878428459167,0.50304621458054
156,4112666836,0.189940,-0.135425,0.242772,0.941618,-3.36610960960388,3.97585797309875,8.17674160003662,2.09478592872620,-0.34278118610382,0.74229449033737
157,4112683503,0.189855,-0.135431,0.242803,0.941626,-3.33678555488586,3.98658061027527,8.18957710266113,1.60294520854950,-0.08259455859661,0.69947004318237
158,4112700170,0.189766,-0.135486,0.242818,0.941633,-3.35504603385925,3.91647791862488,8.16211605072021,1.42382276058197,0.22956658899784,0.63062304258347
159,4112716837,0.189673,-0.135517,0.242946,0.941614,-3.34307265281677,3.91574501991272,8.18610668182373,2.21951961517334,0.26899737119675,0.79813009500504
160,4112733504,0.189582,-0.135524,0.243049,0.941605,-3.34262728691101,3.92594671249390,8.18872165679932,2.06674003601074,0.07014038413763,0.83160597085953
161,4112750171,0.189494,-0.135560,0.243176,0.941584,-3.33998107910156,3.94547820091248,8.15105247497559,2.25289320945740,0.24095146358013,0.65767014026642
162,4112766838,0.189422,-0.135596,0.243292,0.941564,-3.35150027275085,3.94502305984497,8.17850494384766,2.16355609893799,0.23006609082222,0.60657280683517
163,4112783505,0.189398,-0.135617,0.243362,0.941548,-3.36786913871765,3.95259976387024,8.17431640625000,1.89361083507538,0.02786661498249,0.36882287263870
164,4112800172,0.189351,-0.135629,0.243422,0.941540,-3.36427927017212,3.94757366180420,8.18198871612549,1.84983873367310,-0.05639275535941,0.42910233139992
165,4112816839,0.189315,-0.135624,0.243537,0.941518,-3.37064886093140,3.93479681015015,8.18336963653564,2.22537231445312,-0.06757271289825,0.49750110507011
166,4112833506,0.189239,-0.135627,0.243630,0.941509,-3.35540628433228,3.96777939796448,8.16970348358154,2.08724308013916,-0.07350204885006,0.56759029626846
167,4112850173,0.189176,-0.135659,0.243764,0.941482,-3.34255766868591,3.94093847274780,8.15005016326904,2.31888437271118,0.21387887001038,0.54683113098145
168,4112866840,0.189131,-0.135693,0.243932,0.941443,-3.33976173400879,3.92582988739014,8.13879776000977,2.56812143325806,0.25574281811714,0.45836487412453
169,4112883507,0.189102,-0.135750,0.244139,0.941387,-3.33588480949402,3.94273853302002,8.17408370971680,2.79607439041138,0.48571926355362,0.40373298525810
170,4112900174,0.189032,-0.135818,0.244319,0.941344,-3.35540342330933,3.97192406654358,8.15133953094482,2.68047142028809,0.42450490593910,0.34169903397560
171,4112916841,0.188999,-0.135889,0.244486,0.941297,-3.34731626510620,3.98329949378967,8.15394401550293,2.53098273277283,0.49003496766090,0.31684190034866
172,4112933508,0.188962,-0.135941,0.244666,0.941250,-3.38940405845642,3.98933291435242,8.17780494689941,2.64051604270935,0.38262814283371,0.37814590334892
173,4112950175,0.188932,-0.135938,0.244772,0.941229,-3.36966419219971,3.96809411048889,8.15378284454346,2.20375514030457,-0.11404695361853,0.36444309353828
174,4112966842,0.188894,-0.135938,0.244952,0.941190,-3.36790132522583,3.96162033081055,8.16106033325195,2.68998646736145,0.04675598442554,0.49738585948944
175,4112983509,0.188869,-0.135937,0.245085,0.941160,-3.36292839050293,3.99094104766846,8.15851116180420,2.37948393821716,-0.05281978845596,0.37637862563133
176,4113000176,0.188830,-0.135964,0.245207,0.941132,-3.35222101211548,3.99127531051636,8.14956283569336,2.26610898971558,0.12945938110352,0.40031367540359
177,4113016843,0.188791,-0.135990,0.245297,0.941113,-3.35728836059570,3.99457883834839,8.14386463165283,2.03280305862427,0.09124524146318,0.40831762552261
178,4113033510,0.188761,-0.135985,0.245336,0.941110,-3.36669588088989,4.00779533386230,8.14505386352539,1.73688697814941,-0.22966268658638,0.34400418400764
179,4113050177,0.188724,-0.135988,0.245344,0.941115,-3.36632895469666,3.98850250244141,8.16531944274902,1.51748847961426,-0.21511468291283,0.33792117238045
180,4113066844,0.188692,-0.135987,0.245368,0.941115,-3.36272192001343,3.97763347625732,8.16934680938721,1.62397325038910,-0.21156728267670,0.35435172915459
181,4113083511,0.188637,-0.135986,0.245421,0.941112,-3.36742353439331,3.98947358131409,8.15577793121338,1.79452788829803,-0.14095306396484,0.52182024717331
182,4113100178,0.188559,-0.135998,0.245489,0.941108,-3.36072254180908,3.98320007324219,8.15915393829346,1.89284241199493,-0.03294433280826,0.56716758012772
183,4113116845,0.188487,-0.136015,0.245549,0.941105,-3.34129333496094,3.99001216888428,8.13662052154541,1.81351983547211,0.01116713602096,0.59068006277084
184,4113133512,0.188428,-0.136072,0.245652,0.941082,-3.34888291358948,3.98353719711304,8.11580657958984,2.09150767326355,0.29969421029091,0.42009952664375
185,4113150179,0.188363,-0.136122,0.245725,0.941069,-3.35819053649902,4.00087118148804,8.16125869750977,1.87791037559509,0.23339572548866,0.47744628787041
186,4113166846,0.188320,-0.136166,0.245785,0.941055,-3.37221002578735,3.99073481559753,8.16680812835693,1.80315947532654,0.16929996013641,0.37584075331688
187,4113183513,0.188279,-0.136179,0.245866,0.941040,-3.37429714202881,3.99091100692749,8.14313411712646,1.97817111015320,0.00120379682630,0.46816170215607
188,4113200180,0.188234,-0.136208,0.245951,0.941023,-3.35438680648804,4.02114725112915,8.15441894531250,2.00418090820312,0.08213992416859,0.39474290609360
189,4113216847,0.188199,-0.136260,0.246021,0.941004,-3.36401033401489,3.99644422531128,8.12286663055420,1.89101111888885,0.20455582439899,0.27486264705658
190,4113233514,0.188124,-0.136317,0.246125,0.940983,-3.36888170242310,3.97520947456360,8.11311721801758,2.07885479927063,0.33766502141953,0.54131162166595
191,4113250181,0.188083,-0.136334,0.246190,0.940972,-3.38173866271973,4.02933502197266,8.14808940887451,1.88113725185394,-0.02177719399333,0.39608752727509
192,4113266848,0.188054,-0.136292,0.246241,0.940971,-3.36776423454285,3.99110341072083,8.14322376251221,1.85652339458466,-0.45030322670937,0.42830830812454
193,4113283515,0.188040,-0.136247,0.246261,0.940975,-3.36842226982117,3.99303460121155,8.14449691772461,1.67040896415710,-0.54695278406143,0.29418748617172
194,4113300182,0.188071,-0.136198,0.246270,0.940973,-3.37396717071533,4.01592016220093,8.17092132568359,1.62963378429413,-0.62686449289322,0.04740910977125
195,4113316849,0.188072,-0.136161,0.246329,0.940963,-3.38562297821045,3.99767541885376,8.13411045074463,1.91201353073120,-0.40512242913246,0.29799091815948
196,4113333516,0.188032,-0.136142,0.246416,0.940951,-3.37562155723572,4.01989746093750,8.15340900421143,2.07146549224854,-0.22503960132599,0.46712443232536
197,4113350183,0.187989,-0.136125,0.246479,0.940946,-3.35055232048035,4.00926923751831,8.12306785583496,1.88795030117035,-0.23547674715519,0.50743871927261
198,4113366850,0.187922,-0.136123,0.246541,0.940943,-3.34096145629883,4.01686906814575,8.11528301239014,1.84666252136230,-0.11372677236795,0.59582811594009
199,4113383517,0.187875,-0.136149,0.246594,0.940935,-3.34643077850342,3.99126410484314,8.12925148010254,1.78111970424652,0.03163168206811,0.41151916980743
200,4113400184,0.187845,-0.136157,0.246653,0.940924,-3.38404250144958,4.00503253936768,8.11887168884277,1.85447466373444,-0.10003679990768,0.35488954186440
201,4113416851,0.187779,-0.136181,0.246705,0.940920,-3.37446284294128,4.01161861419678,8.13174247741699,1.79981720447540,-0.01082776952535,0.43176606297493
202,4113433518,0.187745,-0.136179,0.246795,0.940903,-3.39502882957458,4.04024362564087,8.16559982299805,2.02906370162964,-0.06106708198786,0.52328026294708
203,4113450185,0.187700,-0.136185,0.246825,0.940904,-3.35733938217163,4.02875232696533,8.13309669494629,1.62452399730682,-0.11595509201288,0.46271908283234
204,4113466852,0.187637,-0.136210,0.246887,0.940897,-3.36917161941528,4.00608015060425,8.12478351593018,1.81235444545746,0.06827064603567,0.54791957139969
205,4113483519,0.187573,-0.136223,0.246919,0.940899,-3.35847687721252,4.00552701950073,8.13074874877930,1.64944505691528,-0.09533688426018,0.47693413496017
206,4113500186,0.187533,-0.136247,0.246974,0.940889,-3.35571074485779,3.99632358551025,8.13451004028320,1.79432320594788,0.02379419654608,0.39926353096962
207,4113516853,0.187486,-0.136298,0.247083,0.940863,-3.38009834289551,4.01660776138306,8.13795948028564,2.16141748428345,0.24889142811298,0.34420907497406
208,4113533520,0.187459,-0.136347,0.247090,0.940859,-3.38266372680664,4.06964778900146,8.12387847900391,1.48232209682465,0.05894762650132,0.15997692942619
209,4113550187,0.187438,-0.136407,0.247039,0.940867,-3.37004566192627,4.01700639724731,8.12331008911133,1.06916379928589,0.05210903659463,0.09595797955990
210,4113566854,0.187417,-0.136430,0.247059,0.940863,-3.37604355812073,3.98393607139587,8.14274501800537,1.56870102882385,-0.06971136480570,0.25652399659157
211,4113583521,0.187402,-0.136421,0.247082,0.940862,-3.35777640342712,4.01442003250122,8.14314270019531,1.65500307083130,-0.29506471753120,0.24191199243069
212,4113600188,0.187390,-0.136442,0.247213,0.940826,-3.36779785156250,4.01270532608032,8.10247898101807,2.38209629058838,0.04209447279572,0.20058585703373
213,4113616855,0.187345,-0.136465,0.247296,0.940810,-3.36946463584900,4.05554199218750,8.11670207977295,2.02093148231506,0.01869726926088,0.34884494543076
214,4113633522,0.187315,-0.136505,0.247384,0.940787,-3.36652612686157,4.03040838241577,8.12007141113281,2.01247930526733,0.16909503936768,0.33027574419975
215,4113650189,0.187258,-0.136597,0.247488,0.940758,-3.36095118522644,4.01976776123047,8.13381481170654,2.05789065361023,0.54467970132828,0.36772155761719
216,4113666856,0.187212,-0.136669,0.247572,0.940735,-3.39974284172058,4.02815818786621,8.14528083801270,1.94857573509216,0.38347330689430,0.34760272502899
217,4113683523,0.187166,-0.136747,0.247632,0.940716,-3.36051940917969,4.02126312255859,8.13844013214111,1.78332245349884,0.37613528966904,0.28748974204063
218,4113700190,0.187123,-0.136811,0.247742,0.940687,-3.38476800918579,4.00142765045166,8.11748027801514,2.13991546630859,0.35592693090439,0.34613007307053
219,4113716857,0.187088,-0.136867,0.247795,0.940672,-3.36526274681091,4.06176042556763,8.12153530120850,1.74408411979675,0.23171809315681,0.31591987609863
220,4113733524,0.187061,-0.136898,0.247818,0.940666,-3.36632943153381,4.04107284545898,8.10789871215820,1.59414732456207,-0.02135458774865,0.23942753672600
221,4113750191,0.187018,-0.136919,0.247832,0.940668,-3.37755441665649,4.01572561264038,8.11975669860840,1.52386617660522,-0.06868685781956,0.36700436472893
222,4113766858,0.186990,-0.136925,0.247855,0.940667,-3.37902379035950,4.04497003555298,8.12452888488770,1.62520253658295,-0.18503253161907,0.29345744848251
223,4113783525,0.186948,-0.136942,0.247907,0.940659,-3.39001297950745,4.01540327072144,8.13129234313965,1.77684259414673,-0.03804126009345,0.40530812740326
224,4113800192,0.186903,-0.136966,0.247965,0.940649,-3.36184811592102,4.02650022506714,8.10851860046387,1.83409965038300,0.01412540208548,0.38075831532478
225,4113816859,0.186866,-0.137008,0.248006,0.940640,-3.37505269050598,4.06145334243774,8.12310028076172,1.67777276039124,0.11229889094830,0.33899691700935
226,4113833526,0.186828,-0.137015,0.248026,0.940641,-3.38056755065918,4.00904130935669,8.10966682434082,1.57975292205811,-0.15537302196026,0.36796483397484
227,4113850193,0.186800,-0.137006,0.248038,0.940645,-3.38271713256836,4.02336502075195,8.11625289916992,1.55147647857666,-0.29202955961227,0.33749851584435
228,4113866860,0.186779,-0.136989,0.248079,0.940641,-3.37432622909546,4.01845741271973,8.11614894866943,1.77586925029755,-0.31075245141983,0.32003068923950
229,4113883527,0.186776,-0.136943,0.248114,0.940639,-3.37390756607056,4.04376697540283,8.11291694641113,1.73602867126465,-0.48529016971588,0.34296682476997
230,4113900194,0.186758,-0.136882,0.248120,0.940650,-3.40090608596802,4.05324554443359,8.11284732818604,1.59604263305664,-0.67871737480164,0.32146501541138
231,4113916861,0.186768,-0.136774,0.248024,0.940688,-3.38092446327209,4.05980730056763,8.12567234039307,0.95713371038437,-1.16027450561523,0.21360990405083
232,4113933528,0.186786,-0.136612,0.247968,0.940723,-3.39519643783569,4.01765108108521,8.10775566101074,1.29195547103882,-1.46652543544769,0.28360939025879
233,4113950195,0.186786,-0.136475,0.247876,0.940767,-3.35033822059631,4.04686832427979,8.10720634460449,1.01487767696381,-1.35928535461426,0.29130607843399
234,4113966862,0.186800,-0.136392,0.247792,0.940799,-3.37050437927246,4.03501367568970,8.09858703613281,1.00979351997375,-0.97335296869278,0.16853155195713
235,4113983529,0.186782,-0.136377,0.247759,0.940813,-3.34302902221680,4.03605318069458,8.09417438507080,1.22751426696777,-0.37842121720314,0.32373172044754
236,4114000196,0.186759,-0.136403,0.247737,0.940820,-3.36457514762878,4.02111530303955,8.14004898071289,1.28953540325165,-0.12074467539787,0.20984485745430
237,4114016863,0.186720,-0.136412,0.247756,0.940821,-3.37074875831604,4.00747489929199,8.11680698394775,1.56380903720856,-0.12818516790867,0.40050581097603
238,4114033530,0.186679,-0.136432,0.247789,0.940818,-3.37998008728027,4.06640005111694,8.12205123901367,1.64059579372406,-0.03545437753201,0.39570337533951
239,4114050197,0.186629,-0.136452,0.247724,0.940842,-3.37209129333496,4.04475069046021,8.11385440826416,0.99525827169418,-0.22259356081486,0.30868422985077
240,4114066864,0.186586,-0.136483,0.247725,0.940845,-3.35083532333374,3.99786686897278,8.12739372253418,1.40408813953400,-0.00105652387720,0.38061752915382
241,4114083531,0.186531,-0.136513,0.247746,0.940847,-3.36879658699036,4.04975748062134,8.13425445556641,1.54169249534607,0.02055419236422,0.44313815236092
242,4114100198,0.186469,-0.136531,0.247768,0.940851,-3.36268544197083,4.04043483734131,8.11927604675293,1.52877068519592,-0.02427443489432,0.56765431165695
243,4114116865,0.186421,-0.136573,0.247772,0.940853,-3.36256694793701,4.03322362899780,8.11722183227539,1.40956926345825,0.07842609286308,0.38703352212906
244,4114133532,0.186360,-0.136652,0.247817,0.940842,-3.37147426605225,4.01118803024292,8.11018180847168,1.66855216026306,0.37066704034805,0.36815693974495
245,4114150199,0.186313,-0.136712,0.247929,0.940813,-3.38428378105164,4.02289152145386,8.14100170135498,2.14102959632874,0.35059946775436,0.40576922893524
246,4114166866,0.186279,-0.136745,0.248071,0.940777,-3.39136791229248,4.05839776992798,8.12389469146729,2.33769655227661,0.27385100722313,0.51665943861008
247,4114183533,0.186235,-0.136747,0.248199,0.940752,-3.37451195716858,4.04615879058838,8.11480522155762,2.33454656600952,-0.02543981559575,0.47710055112839
248,4114200200,0.186201,-0.136718,0.248398,0.940710,-3.34501075744629,4.01197195053101,8.09846401214600,2.81839561462402,-0.08416973054409,0.61291193962097
249,4114216867,0.186137,-0.136657,0.248636,0.940669,-3.37416911125183,4.03230142593384,8.11508178710938,3.15766167640686,-0.26440629363060,0.73407274484634
250,4114233534,0.186092,-0.136517,0.248871,0.940636,-3.40873932838440,4.04950809478760,8.11782550811768,3.20217657089233,-0.78048944473267,0.85501599311829
251,4114250201,0.186032,-0.136298,0.249041,0.940635,-3.40171408653259,4.10069370269775,8.11577606201172,2.81944608688354,-1.39000761508942,1.03806996345520
252,4114266868,0.185951,-0.136032,0.249179,0.940653,-3.40610051155090,4.07805061340332,8.12952518463135,2.61398100852966,-1.70190644264221,1.27479541301727
253,4114283535,0.185843,-0.135748,0.249387,0.940660,-3.35100555419922,4.04809570312500,8.09887886047363,3.09407877922058,-1.68399047851562,1.50906217098236
254,4114300202,0.185769,-0.135478,0.249601,0.940657,-3.33320093154907,4.08439636230469,8.09006690979004,3.12446784973145,-1.59116983413696,1.33817410469055
255,4114316869,0.185716,-0.135257,0.249779,0.940652,-3.33185768127441,4.08062982559204,8.09600734710693,2.88078832626343,-1.38370680809021,1.03385663032532
256,4114333536,0.185682,-0.135047,0.249917,0.940652,-3.30070805549622,4.05047369003296,8.07492733001709,2.60926795005798,-1.39798593521118,0.86449259519577
257,4114350203,0.185663,-0.134896,0.250000,0.940655,-3.30440688133240,4.09735345840454,8.09764957427979,2.22607660293579,-1.15620207786560,0.52810817956924
258,4114366870,0.185651,-0.134804,0.250003,0.940670,-3.32579636573792,4.08524227142334,8.11229801177979,1.57765257358551,-0.85266596078873,0.43135625123978
259,4114383537,0.185633,-0.134747,0.250008,0.940680,-3.33890461921692,4.07752656936646,8.10422420501709,1.55033683776855,-0.60988324880600,0.39234817028046
260,4114400204,0.185610,-0.134743,0.250014,0.940684,-3.34182906150818,4.08182573318481,8.10688781738281,1.50719213485718,-0.26568692922592,0.30050101876259
261,4114416871,0.185556,-0.134796,0.250019,0.940686,-3.33128976821899,4.08746623992920,8.11601829528809,1.44167470932007,0.10026090592146,0.28875756263733
262,4114433538,0.185527,-0.134815,0.249993,0.940695,-3.34360504150391,4.09227228164673,8.11990833282471,1.27259266376495,-0.16774398088455,0.24767482280731
263,4114450205,0.185504,-0.134849,0.249959,0.940704,-3.32298231124878,4.08520555496216,8.08526802062988,1.16946303844452,-0.05240999162197,0.26744782924652
264,4114466872,0.185479,-0.134891,0.249928,0.940711,-3.32581853866577,4.09397315979004,8.09507656097412,1.17409896850586,0.01623845286667,0.26177456974983
265,4114483539,0.185455,-0.134994,0.249896,0.940710,-3.32552480697632,4.07327699661255,8.09661293029785,1.11401164531708,0.39749631285667,0.11466805636883
266,4114500206,0.185419,-0.135129,0.249918,0.940692,-3.32180666923523,4.07665109634399,8.09492301940918,1.46494388580322,0.69671660661697,0.13072720170021
267,4114516873,0.185380,-0.135296,0.249939,0.940670,-3.35087203979492,4.07504558563232,8.11441230773926,1.41442298889160,0.91150474548340,0.09663672745228
268,4114533540,0.185317,-0.135457,0.249998,0.940644,-3.35591125488281,4.08246040344238,8.09796714782715,1.70238649845123,0.89492046833038,0.15449580550194
269,4114550207,0.185258,-0.135559,0.250120,0.940608,-3.37489128112793,4.08347415924072,8.13615894317627,2.18108797073364,0.64328855276108,0.35955110192299
270,4114566874,0.185207,-0.135554,0.250248,0.940584,-3.41280865669250,4.07103919982910,8.11385250091553,2.31803894042969,-0.04165265336633,0.56071323156357
271,4114583541,0.185142,-0.135507,0.250442,0.940553,-3.37129759788513,4.08776760101318,8.09442520141602,2.80861163139343,-0.21913583576679,0.73721027374268
272,4114600208,0.185094,-0.135470,0.250628,0.940518,-3.35478281974792,4.08437252044678,8.05674171447754,2.76099777221680,-0.17846289277077,0.62861239910126
273,4114616875,0.185058,-0.135476,0.250714,0.940501,-3.32244348526001,4.12662172317505,8.07672500610352,2.04657006263733,-0.07018519937992,0.38878795504570
274,4114633542,0.185023,-0.135490,0.250765,0.940493,-3.33837604522705,4.08743953704834,8.07447624206543,1.79542458057404,-0.07083832472563,0.35171359777451
275,4114650209,0.185010,-0.135494,0.250814,0.940481,-3.34503316879272,4.07684707641602,8.08428955078125,1.78351485729218,-0.12932492792606,0.30979844927788
276,4114666876,0.184976,-0.135512,0.250877,0.940469,-3.36202979087830,4.10179710388184,8.11526584625244,1.89112639427185,-0.05242278799415,0.30573874711990
277,4114683543,0.184926,-0.135530,0.250951,0.940456,-3.37204861640930,4.11357641220093,8.11605739593506,1.99962162971497,-0.07325871288776,0.28331482410431
278,4114700210,0.184900,-0.135519,0.251014,0.940446,-3.35755801200867,4.11890077590942,8.10768032073975,1.91306364536285,-0.22852289676666,0.35852655768394
279,4114716877,0.184880,-0.135506,0.251083,0.940433,-3.35307097434998,4.08539295196533,8.08111095428467,1.96458351612091,-0.24276354908943,0.31310242414474
280,4114733544,0.184821,-0.135500,0.251212,0.940411,-3.35292363166809,4.10047197341919,8.08976173400879,2.34393358230591,-0.06537001580000,0.55646157264709
281,4114750211,0.184766,-0.135499,0.251346,0.940386,-3.35173654556274,4.11392593383789,8.08261775970459,2.36412882804871,-0.02140581235290,0.55068582296371
282,4114766878,0.184715,-0.135495,0.251414,0.940379,-3.34232282638550,4.12799835205078,8.09106731414795,1.92488396167755,-0.16066205501556,0.46507537364960
283,4114783545,0.184709,-0.135489,0.251411,0.940382,-3.35401177406311,4.11976051330566,8.10404968261719,1.46020555496216,-0.31355705857277,0.19324781000614
284,4114800212,0.184680,-0.135506,0.251396,0.940389,-3.34547400474548,4.11739683151245,8.08851146697998,1.36376106739044,-0.17861656844616,0.22583997249603
285,4114816879,0.184631,-0.135516,0.251400,0.940396,-3.35638666152954,4.12579870223999,8.09064006805420,1.44766807556152,-0.14476935565472,0.44309967756271
286,4114833546,0.184610,-0.135527,0.251409,0.940396,-3.37027716636658,4.11278200149536,8.09216403961182,1.52428865432739,-0.17666999995708,0.23206387460232
287,4114850213,0.184549,-0.135523,0.251449,0.940398,-3.36420011520386,4.09113073348999,8.08266544342041,1.69818615913391,-0.16118714213371,0.55962479114532
288,4114866880,0.184522,-0.135481,0.251460,0.940407,-3.38986444473267,4.13867282867432,8.08040142059326,1.52029299736023,-0.43355259299278,0.54955881834030
289,4114883547,0.184490,-0.135423,0.251406,0.940436,-3.35176777839661,4.10020065307617,8.09460163116455,1.12752234935760,-0.68857824802399,0.44459801912308
290,4114900214,0.184441,-0.135403,0.251399,0.940450,-3.35220265388489,4.10730361938477,8.09191036224365,1.42711400985718,-0.39089462161064,0.42665633559227
291,4114916881,0.184383,-0.135397,0.251372,0.940469,-3.34090590476990,4.10982656478882,8.10208702087402,1.29131531715393,-0.33795315027237,0.38616263866425
292,4114933548,0.184386,-0.135358,0.251399,0.940467,-3.34437942504883,4.08427190780640,8.09768009185791,1.60370063781738,-0.36918783187866,0.48066070675850
293,4114950215,0.184368,-0.135337,0.251444,0.940462,-3.34448289871216,4.11164855957031,8.08335494995117,1.75596821308136,-0.26833784580231,0.43063911795616
294,4114966882,0.184351,-0.135342,0.251431,0.940468,-3.35532188415527,4.11867761611938,8.07573318481445,1.36889624595642,-0.23931865394115,0.24095146358013
295,4114983549,0.184339,-0.135326,0.251356,0.940493,-3.35786032676697,4.12051296234131,8.08351039886475,0.98296403884888,-0.49744337797165,0.17594642937183
296,4115000216,0.184344,-0.135290,0.251275,0.940518,-3.37079954147339,4.11615943908691,8.09063625335693,0.97036266326904,-0.65327107906342,0.12662917375565
297,4115016883,0.184290,-0.135252,0.251203,0.940554,-3.34043478965759,4.13216400146484,8.09131050109863,1.00088036060333,-0.60178959369659,0.44093546271324
298,4115033550,0.184234,-0.135209,0.251152,0.940584,-3.36875224113464,4.11878442764282,8.11551475524902,1.16445565223694,-0.62302249670029,0.43107450008392
299,4115050217,0.184190,-0.135187,0.251123,0.940604,-3.34763598442078,4.09177160263062,8.11318874359131,1.26064431667328,-0.42201408743858,0.43571045994759
300,4115066884,0.184162,-0.135214,0.251132,0.940603,-3.34382414817810,4.10789918899536,8.09561443328857,1.49524378776550,-0.05434374511242,0.26270943880081
301,4115083551,0.184162,-0.135207,0.251076,0.940619,-3.36337137222290,4.14568853378296,8.08694839477539,1.08985877037048,-0.38586169481277,0.16932554543018
302,4115100218,0.184155,-0.135176,0.251006,0.940644,-3.33415007591248,4.10063171386719,8.06710147857666,1.01678586006165,-0.57131046056747,0.22294573485851
303,4115116885,0.184137,-0.135173,0.250961,0.940660,-3.34449601173401,4.10404157638550,8.08178710937500,1.16687607765198,-0.35536977648735,0.21724690496922
304,4115133552,0.184098,-0.135193,0.250943,0.940669,-3.34207677841187,4.12002658843994,8.10620212554932,1.31361138820648,-0.13344857096672,0.31460082530975
305,4115150219,0.184068,-0.135191,0.250933,0.940678,-3.34351301193237,4.11296558380127,8.09929466247559,1.36794865131378,-0.25020408630371,0.37099996209145
306,4115166886,0.184011,-0.135177,0.250947,0.940687,-3.36221361160278,4.10414600372314,8.09164905548096,1.54585456848145,-0.29105630517006,0.50805348157883
307,4115183553,0.183946,-0.135180,0.250947,0.940700,-3.36594653129578,4.10975790023804,8.09399223327637,1.38313686847687,-0.13029821217060,0.62044203281403
308,4115200220,0.183850,-0.135164,0.250958,0.940718,-3.35513210296631,4.11158084869385,8.11869049072266,1.46240806579590,-0.23155798017979,0.80403381586075
309,4115216887,0.183741,-0.135122,0.250988,0.940737,-3.34181642532349,4.10194921493530,8.10117053985596,1.59787368774414,-0.34001493453979,0.98037719726562
310,4115233554,0.183634,-0.135100,0.251039,0.940748,-3.32578229904175,4.10621595382690,8.06477451324463,1.71655023097992,-0.16805131733418,0.97129750251770
311,4115250221,0.183526,-0.135168,0.251039,0.940759,-3.32318472862244,4.09115457534790,8.05958366394043,1.29742395877838,0.30860736966133,0.67840355634689
312,4115266888,0.183432,-0.135207,0.251096,0.940756,-3.34206247329712,4.13169050216675,8.11182403564453,1.74302101135254,0.18434739112854,0.69210630655289
313,4115283555,0.183345,-0.135249,0.251109,0.940764,-3.32990932464600,4.08076143264771,8.09406471252441,1.39554643630981,0.18720322847366,0.72047245502472
314,4115300222,0.183245,-0.135351,0.251178,0.940750,-3.33117675781250,4.10834360122681,8.10661983489990,1.74258553981781,0.63835805654526,0.64203357696533
315,4115316889,0.183175,-0.135492,0.251216,0.940733,-3.34936618804932,4.10145092010498,8.06966590881348,1.46933650970459,0.88566154241562,0.49774438142776
316,4115333556,0.183081,-0.135678,0.251278,0.940708,-3.33041644096375,4.12056636810303,8.07057380676270,1.61347186565399,1.18422877788544,0.44243374466896
317,4115350223,0.183043,-0.135881,0.251294,0.940682,-3.34851074218750,4.13561201095581,8.08539772033691,1.28497636318207,1.20797181129456,0.15788950026035
318,4115366890,0.183008,-0.136019,0.251200,0.940694,-3.36981940269470,4.13061428070068,8.10963726043701,0.62614083290100,0.57674670219421,0.12379898130894
319,4115383557,0.182956,-0.136143,0.251144,0.940701,-3.35527586936951,4.08834314346313,8.09193420410156,0.91825366020203,0.51854187250137,0.18160682916641
320,4115400224,0.182899,-0.136279,0.251184,0.940682,-3.34448266029358,4.09944343566895,8.05601215362549,1.54330611228943,0.78378713130951,0.32596004009247
321,4115416891,0.182838,-0.136466,0.251218,0.940658,-3.33204221725464,4.11162614822388,8.08151912689209,1.46179354190826,1.09019172191620,0.19940766692162
322,4115433558,0.182765,-0.136661,0.251237,0.940638,-3.36058998107910,4.13056898117065,8.11701965332031,1.34337329864502,1.13929128646851,0.24337185919285
323,4115450225,0.182724,-0.136757,0.251165,0.940652,-3.38598251342773,4.10749006271362,8.08293724060059,0.84465557336807,0.29758113622665,0.16854436695576
324,4115466892,0.182675,-0.136851,0.251117,0.940660,-3.34040212631226,4.08104133605957,8.06448268890381,1.01943671703339,0.31380677223206,0.21156089007854
325,4115483559,0.182619,-0.136932,0.251127,0.940657,-3.36720585823059,4.13711214065552,8.09833431243896,1.40502297878265,0.35887232422829,0.37707015872002
326,4115500226,0.182507,-0.137015,0.251132,0.940665,-3.36770343780518,4.10863924026489,8.08810901641846,1.37107336521149,0.35380101203918,0.55034011602402
327,4115516893,0.182458,-0.136994,0.251168,0.940668,-3.39365077018738,4.09140300750732,8.09209346771240,1.57457911968231,-0.14702329039574,0.81156396865845
328,4115533560,0.182339,-0.137028,0.251233,0.940669,-3.36171150207520,4.09261894226074,8.10531616210938,1.77603578567505,0.19728180766106,0.85787171125412
329,4115550227,0.182273,-0.137032,0.251225,0.940683,-3.38719916343689,4.12324619293213,8.08752918243408,1.35539829730988,-0.18157482147217,0.54593461751938
330,4115566894,0.182196,-0.137016,0.251207,0.940705,-3.35306620597839,4.10082483291626,8.07021999359131,1.29015016555786,-0.30425962805748,0.64737379550934
331,4115583561,0.182138,-0.137010,0.251151,0.940732,-3.35518503189087,4.10134077072144,8.08688735961914,1.08944892883301,-0.38396638631821,0.37788975238800
332,4115600228,0.182129,-0.136998,0.251145,0.940737,-3.37839746475220,4.05788135528564,8.08991909027100,1.46531534194946,-0.37633377313614,0.18229839205742
333,4115616895,0.182125,-0.137018,0.251197,0.940721,-3.35660099983215,4.10759210586548,8.10615444183350,1.83826172351837,-0.08331170678139,0.12186522036791
334,4115633562,0.182122,-0.137027,0.251196,0.940721,-3.37583112716675,4.11662244796753,8.07381725311279,1.50493812561035,-0.26344585418701,0.04948373883963
335,4115650229,0.182139,-0.137022,0.251184,0.940722,-3.35418796539307,4.12232732772827,8.07772445678711,1.44073998928070,-0.37340113520622,0.00174166343641
336,4115666896,0.182168,-0.137037,0.251159,0.940720,-3.38753104209900,4.08587741851807,8.07834243774414,1.33337152004242,-0.25847697257996,-0.08603945374489
337,4115683563,0.182157,-0.137039,0.251163,0.940721,-3.36442470550537,4.11256408691406,8.06387710571289,1.53998911380768,-0.30055859684944,0.10850819200277
338,4115700230,0.182172,-0.137023,0.251179,0.940716,-3.35951566696167,4.10201740264893,8.06545257568359,1.61179435253143,-0.35193768143654,0.13976851105690
339,4115716897,0.182159,-0.137031,0.251221,0.940706,-3.37540602684021,4.10638761520386,8.08537578582764,1.77601039409637,-0.17939774692059,0.18153002858162
340,4115733564,0.182148,-0.137020,0.251237,0.940706,-3.37614917755127,4.11765480041504,8.08522987365723,1.59176528453827,-0.30943340063095,0.24419148266315
341,4115750231,0.182122,-0.137026,0.251209,0.940718,-3.36369538307190,4.09422874450684,8.06985569000244,1.30332779884338,-0.30468228459358,0.17456336319447
342,4115766898,0.182100,-0.137068,0.251218,0.940713,-3.35959291458130,4.11051559448242,8.09738540649414,1.53970742225647,-0.02003553509712,0.07668442279100
343,4115783565,0.182103,-0.137086,0.251237,0.940705,-3.36002540588379,4.08034467697144,8.07950210571289,1.60860562324524,-0.14998155832291,0.07819557189941
344,4115800232,0.182106,-0.137116,0.251306,0.940682,-3.36610674858093,4.10345077514648,8.08183288574219,1.93726766109467,0.02038770727813,0.11238852143288
345,4115816899,0.182085,-0.137143,0.251372,0.940664,-3.37468457221985,4.11844873428345,8.07831287384033,1.91075849533081,0.00152395549230,0.21722128987312
346,4115833566,0.182069,-0.137149,0.251412,0.940656,-3.35843944549561,4.10862064361572,8.10194301605225,1.74024212360382,-0.15843376517296,0.25414201617241
347,4115850233,0.182061,-0.137182,0.251452,0.940642,-3.36280083656311,4.09786081314087,8.06525993347168,1.73026597499847,0.00119099055883,0.14362321794033
348,4115866900,0.182030,-0.137204,0.251517,0.940627,-3.37285184860229,4.12545013427734,8.09235668182373,1.89448165893555,-0.01500263717026,0.29966858029366
349,4115883567,0.181999,-0.137244,0.251545,0.940620,-3.37412643432617,4.13396501541138,8.09891414642334,1.62124526500702,0.05770540237427,0.24959574639797
350,4115900234,0.181972,-0.137303,0.251575,0.940608,-3.37962079048157,4.10820484161377,8.10392284393311,1.62430632114410,0.16575258970261,0.17111845314503
351,4115916901,0.181952,-0.137351,0.251591,0.940601,-3.38493490219116,4.13131713867188,8.09233951568604,1.53295850753784,0.07595446705818,0.17273205518723
352,4115933568,0.181939,-0.137376,0.251605,0.940596,-3.37350654602051,4.09219312667847,8.04989910125732,1.56264364719391,-0.09789814054966,0.13631078600883
353,4115950235,0.181939,-0.137423,0.251628,0.940583,-3.37635183334351,4.11288166046143,8.07989215850830,1.63115763664246,0.02451135404408,-0.00375866401009
354,4115966902,0.181944,-0.137496,0.251640,0.940568,-3.36477804183960,4.11486625671387,8.06518840789795,1.50336313247681,0.20978081226349,-0.02820598706603
355,4115983569,0.181937,-0.137555,0.251681,0.940550,-3.36458730697632,4.11516046524048,8.08607864379883,1.72732055187225,0.15288220345974,0.04153099656105
356,4116000236,0.181919,-0.137622,0.251676,0.940545,-3.36730384826660,4.14548349380493,8.08651828765869,1.45060098171234,0.07530134171247,-0.08086569607258
357,4116016903,0.181894,-0.137690,0.251694,0.940535,-3.41333937644958,4.12020254135132,8.09357547760010,1.57961213588715,0.15800474584103,0.03859834372997
358,4116033570,0.181871,-0.137704,0.251724,0.940529,-3.39635515213013,4.12649869918823,8.08460712432861,1.63996839523315,-0.09820549190044,0.30545705556870
359,4116050237,0.181854,-0.137667,0.251759,0.940529,-3.40419340133667,4.11325216293335,8.08448410034180,1.75300991535187,-0.45297980308533,0.33689662814140
360,4116066904,0.181801,-0.137625,0.251810,0.940532,-3.37506437301636,4.10780382156372,8.06333351135254,1.82125484943390,-0.41102612018585,0.58583921194077
361,4116083571,0.181795,-0.137583,0.251867,0.940524,-3.35969781875610,4.13897085189819,8.08334922790527,1.86679422855377,-0.39395532011986,0.42718139290810
362,4116100238,0.181786,-0.137564,0.251878,0.940525,-3.37675929069519,4.08965206146240,8.04646015167236,1.54545748233795,-0.34985026717186,0.29117798805237
363,4116116905,0.181765,-0.137561,0.251910,0.940521,-3.35910558700562,4.09533405303955,8.07128810882568,1.71550035476685,-0.25513452291489,0.25174725055695
364,4116133572,0.181763,-0.137569,0.251977,0.940502,-3.36564111709595,4.13452911376953,8.06652164459229,1.95386445522308,-0.13867354393005,0.14597956836224
365,4116150239,0.181770,-0.137592,0.251984,0.940496,-3.38294315338135,4.13179302215576,8.07314300537109,1.56091463565826,-0.17578634619713,-0.03750339522958
366,4116166906,0.181796,-0.137597,0.251945,0.940500,-3.39958071708679,4.14531517028809,8.08185577392578,1.24116599559784,-0.34778845310211,-0.05897964537144
367,4116183573,0.181822,-0.137575,0.251914,0.940507,-3.39989590644836,4.11705160140991,8.08219432830811,1.30476224422455,-0.48801797628403,0.04032719880342
368,4116200240,0.181800,-0.137557,0.251896,0.940519,-3.38287162780762,4.13278436660767,8.07961559295654,1.41654884815216,-0.46588858962059,0.16731497645378
369,4116216907,0.181791,-0.137533,0.251926,0.940516,-3.37758207321167,4.13635540008545,8.04996490478516,1.70516562461853,-0.37895908951759,0.26912546157837
370,4116233574,0.181763,-0.137533,0.251937,0.940518,-3.35686445236206,4.11433601379395,8.04806327819824,1.53142166137695,-0.22576953470707,0.31534352898598
371,4116250241,0.181732,-0.137543,0.251947,0.940520,-3.36069917678833,4.10960149765015,8.06948566436768,1.54173076152802,-0.19367681443691,0.26141598820686
372,4116266908,0.181760,-0.137540,0.251926,0.940521,-3.37499046325684,4.10826635360718,8.08515071868896,1.33608639240265,-0.32628658413887,0.04505273699760
373,4116283575,0.181756,-0.137560,0.251967,0.940508,-3.36442971229553,4.08832597732544,8.08213996887207,1.76518893241882,-0.10384029150009,0.11290077120066
374,4116300242,0.181759,-0.137583,0.252010,0.940492,-3.38572525978088,4.14605236053467,8.08358001708984,1.77654802799225,-0.08049430698156,0.07490433007479
375,4116316909,0.181750,-0.137607,0.252031,0.940485,-3.39649200439453,4.15388917922974,8.07158470153809,1.61230659484863,-0.09509354829788,0.12426001578569
376,4116333576,0.181715,-0.137638,0.252019,0.940490,-3.36696815490723,4.11727094650269,8.08497524261475,1.35032701492310,-0.06919910758734,0.26346504688263
377,4116350243,0.181700,-0.137649,0.252000,0.940497,-3.39424848556519,4.12143468856812,8.07990360260010,1.35051918029785,-0.24672073125839,0.14031918346882
378,4116366910,0.181693,-0.137577,0.251951,0.940521,-3.37990021705627,4.09323501586914,8.09181880950928,1.22672021389008,-0.82874381542206,0.26427185535431
379,4116383577,0.181693,-0.137460,0.251946,0.940540,-3.38335728645325,4.09543800354004,8.06754493713379,1.60472512245178,-1.11184072494507,0.27039325237274
380,4116400244,0.181731,-0.137340,0.251911,0.940560,-3.36866760253906,4.13110733032227,8.08195877075195,1.41857218742371,-1.18849956989288,0.08518783748150
381,4116416911,0.181764,-0.137215,0.251862,0.940585,-3.37405180931091,4.11198997497559,8.08025932312012,1.31244599819183,-1.23028683662415,0.13746337592602
382,4116433578,0.181814,-0.137125,0.251773,0.940612,-3.37922310829163,4.14374113082886,8.08342647552490,1.02955365180969,-1.09438574314117,-0.09665592759848
383,4116450245,0.181866,-0.137060,0.251678,0.940637,-3.36527156829834,4.11385011672974,8.06574440002441,0.97814905643463,-0.95836967229843,-0.18564726412296
384,4116466912,0.181939,-0.136999,0.251564,0.940662,-3.37024664878845,4.10493898391724,8.08510208129883,0.86039447784424,-0.97800165414810,-0.32030597329140
385,4116483579,0.182020,-0.136915,0.251460,0.940686,-3.34774398803711,4.10693883895874,8.08313083648682,0.96590614318848,-1.13078153133392,-0.33677500486374
386,4116500246,0.182130,-0.136847,0.251369,0.940699,-3.33990192413330,4.12091445922852,8.06035041809082,1.04410171508789,-1.01082432270050,-0.47021710872650
387,4116516913,0.182197,-0.136820,0.251280,0.940714,-3.35832476615906,4.11188077926636,8.07933044433594,0.96074509620667,-0.66674339771271,-0.25914287567139
388,4116533580,0.182243,-0.136832,0.251270,0.940706,-3.38019514083862,4.14135026931763,8.10011005401611,1.44418489933014,-0.26685228943825,-0.14989191293716
389,4116550247,0.182212,-0.136850,0.251240,0.940718,-3.37148666381836,4.07844781875610,8.07501411437988,1.26846897602081,-0.21688191592693,0.18707516789436
390,4116566914,0.182198,-0.136828,0.251287,0.940711,-3.37596821784973,4.11343479156494,8.07677364349365,1.75979733467102,-0.25878429412842,0.44911867380142
391,4116583581,0.182152,-0.136849,0.251324,0.940707,-3.34958720207214,4.12472152709961,8.07324314117432,1.66549146175385,-0.02266083844006,0.42344197630882
392,4116600248,0.182056,-0.136878,0.251347,0.940715,-3.36064505577087,4.13554286956787,8.08692073822021,1.50856244564056,0.08347178995609,0.71716845035553
393,4116616915,0.181977,-0.136895,0.251349,0.940727,-3.37476682662964,4.13391256332397,8.08365154266357,1.36267232894897,-0.02065023779869,0.67900538444519
394,4116633582,0.181859,-0.136942,0.251401,0.940729,-3.36251473426819,4.07901668548584,8.06368541717529,1.65652668476105,0.27925518155098,0.86739957332611
395,4116650249,0.181744,-0.137005,0.251464,0.940726,-3.37301039695740,4.17244815826416,8.11591148376465,1.72580897808075,0.39574179053307,0.80227923393250
396,4116666916,0.181639,-0.137068,0.251488,0.940730,-3.37302803993225,4.08902263641357,8.07488918304443,1.46015429496765,0.32259196043015,0.72142004966736
397,4116683583,0.181549,-0.137144,0.251556,0.940718,-3.37037348747253,4.10966110229492,8.10839080810547,1.75646758079529,0.47954657673836,0.66199856996536
398,4116700250,0.181472,-0.137196,0.251588,0.940717,-3.36425828933716,4.11176395416260,8.09222316741943,1.59204709529877,0.18551278114319,0.49332621693611
399,4116716917,0.181409,-0.137228,0.251670,0.940703,-3.36097788810730,4.10009050369263,8.08709430694580,1.94816565513611,0.14405860006809,0.53935211896896
400,4116733584,0.181373,-0.137264,0.251726,0.940690,-3.36237168312073,4.10911226272583,8.03390121459961,1.74938595294952,0.14749073982239,0.45550909638405
401,4116750251,0.181332,-0.137332,0.251763,0.940678,-3.37139463424683,4.13985681533813,8.07971477508545,1.64564168453217,0.26355469226837,0.26232531666756
402,4116766918,0.181284,-0.137371,0.251742,0.940687,-3.37608575820923,4.10790729522705,8.09879207611084,1.31376492977142,-0.06640732288361,0.20139263570309
403,4116783585,0.181274,-0.137371,0.251757,0.940685,-3.37582635879517,4.11303710937500,8.09587574005127,1.58586144447327,-0.25273966789246,0.20039373636246
404,4116800252,0.181296,-0.137393,0.251743,0.940681,-3.37666511535645,4.13039541244507,8.09409999847412,1.38514769077301,-0.17622177302837,-0.02305783145130
405,4116816919,0.181273,-0.137421,0.251782,0.940671,-3.36875224113464,4.10623836517334,8.05536937713623,1.71201705932617,-0.01729497686028,0.23207667469978
406,4116833586,0.181240,-0.137465,0.251820,0.940660,-3.36069416999817,4.13779401779175,8.05066776275635,1.69516360759735,0.08304917067289,0.22375255823135
407,4116850253,0.181201,-0.137512,0.251893,0.940642,-3.38222122192383,4.15516042709351,8.07222366333008,1.89992427825928,0.19667991995811,0.35344243049622
408,4116866920,0.181173,-0.137540,0.251871,0.940649,-3.37409067153931,4.14489221572876,8.08174514770508,1.27917516231537,-0.09792375564575,0.23937630653381
409,4116883587,0.181121,-0.137579,0.251899,0.940646,-3.36982703208923,4.10564327239990,8.06280899047852,1.61700654029846,0.04016071185470,0.32348838448524
410,4116900254,0.181058,-0.137611,0.251957,0.940638,-3.39751267433167,4.13665103912354,8.08583641052246,1.79775512218475,0.09337107837200,0.48807549476624
411,4116916921,0.180987,-0.137635,0.252024,0.940630,-3.37969446182251,4.11353778839111,8.05948925018311,1.82373929023743,0.10804717242718,0.64861589670181
412,4116933588,0.180908,-0.137696,0.252090,0.940618,-3.37250614166260,4.15437412261963,8.04918670654297,1.81449294090271,0.29795250296593,0.51160079240799
413,4116950255,0.180824,-0.137793,0.252129,0.940610,-3.36957383155823,4.09450244903564,8.04721164703369,1.58385086059570,0.51216429471970,0.47062054276466
414,4116966922,0.180770,-0.137885,0.252189,0.940591,-3.38766670227051,4.14940023422241,8.08640670776367,1.73618233203888,0.51076841354370,0.38848060369492
415,4116983589,0.180737,-0.137956,0.252239,0.940573,-3.40084218978882,4.10168981552124,8.05381202697754,1.66597819328308,0.37809470295906,0.37561026215553
416,4117000256,0.180693,-0.137970,0.252262,0.940573,-3.38692426681519,4.13481903076172,8.07893466949463,1.58469617366791,-0.09317260235548,0.40370741486549
417,4117016923,0.180641,-0.138009,0.252286,0.940571,-3.37212967872620,4.13220024108887,8.07657718658447,1.54691731929779,0.09230817109346,0.42867979407310
418,4117033590,0.180579,-0.138047,0.252349,0.940561,-3.38597702980042,4.11878061294556,8.04339599609375,1.82341909408569,0.13907694816589,0.48026373982430
419,4117050257,0.180527,-0.138092,0.252355,0.940562,-3.36423468589783,4.14213991165161,8.07177734375000,1.44268655776978,0.08263938128948,0.35747644305229
420,4117066924,0.180489,-0.138124,0.252372,0.940560,-3.37761116027832,4.11003494262695,8.05042076110840,1.51695048809052,0.02517728507519,0.36261180043221
421,4117083591,0.180468,-0.138164,0.252421,0.940545,-3.36980819702148,4.14779138565063,8.09126186370850,1.74418663978577,0.10507610440254,0.26799848675728
422,4117100258,0.180435,-0.138194,0.252434,0.940544,-3.40234684944153,4.14129352569580,8.06181621551514,1.53872120380402,-0.05115496739745,0.23212787508965
423,4117116925,0.180416,-0.138190,0.252423,0.940551,-3.39039278030396,4.15101671218872,8.08097171783447,1.39956760406494,-0.30445176362991,0.24716256558895
424,4117133592,0.180396,-0.138204,0.252415,0.940555,-3.38867378234863,4.11359500885010,8.04906368255615,1.38459706306458,-0.16317211091518,0.25311753153801
425,4117150259,0.180342,-0.138245,0.252445,0.940551,-3.37008976936340,4.14051580429077,8.07010841369629,1.63904631137848,0.05381228774786,0.32188761234283
426,4117166926,0.180312,-0.138304,0.252434,0.940551,-3.38313865661621,4.15174627304077,8.05757617950439,1.31126785278320,0.14304693043232,0.23234559595585
427,4117183593,0.180269,-0.138338,0.252476,0.940543,-3.40181326866150,4.12545537948608,8.07007217407227,1.69846785068512,0.05884518101811,0.36550605297089
428,4117200260,0.180231,-0.138386,0.252467,0.940546,-3.36473417282104,4.15643739700317,8.06426048278809,1.33876299858093,0.06962811946869,0.26261979341507
429,4117216927,0.180166,-0.138423,0.252478,0.940550,-3.40498995780945,4.11512660980225,8.05123043060303,1.49954664707184,0.01480413973331,0.38950511813164
430,4117233594,0.180138,-0.138448,0.252445,0.940561,-3.39478135108948,4.14485788345337,8.07890319824219,1.21342730522156,-0.14210566878319,0.22651872038841
431,4117250261,0.180099,-0.138452,0.252460,0.940563,-3.38363599777222,4.09220409393311,8.04943275451660,1.52319991588593,-0.15804956853390,0.43476274609566
432,4117266928,0.180050,-0.138482,0.252493,0.940559,-3.39627242088318,4.15815639495850,8.06313514709473,1.63480746746063,0.02980037964880,0.39307814836502
433,4117283595,0.180004,-0.138500,0.252472,0.940571,-3.38367414474487,4.09846115112305,8.05743694305420,1.29359507560730,-0.16052119433880,0.33420732617378
434,4117300262,0.180009,-0.138480,0.252473,0.940573,-3.38718128204346,4.17458963394165,8.06557083129883,1.45957803726196,-0.34042477607727,0.29076814651489
435,4117316929,0.179967,-0.138478,0.252404,0.940600,-3.38886141777039,4.11105918884277,8.07178688049316,0.98844522237778,-0.37048128247261,0.30881232023239
436,4117333596,0.179934,-0.138477,0.252416,0.940603,-3.39512944221497,4.13827943801880,8.04907608032227,1.55722653865814,-0.25535219907761,0.30509847402573
437,4117350263,0.179935,-0.138495,0.252402,0.940604,-3.38212394714355,4.12566518783569,8.05712413787842,1.33086156845093,-0.13593301177025,0.18772830069065
438,4117366930,0.179900,-0.138510,0.252385,0.940613,-3.38563704490662,4.13474321365356,8.07111263275146,1.29248082637787,-0.13431939482689,0.36202269792557
439,4117383597,0.179856,-0.138530,0.252334,0.940632,-3.37610888481140,4.13683128356934,8.05481624603271,1.09395670890808,-0.19712172448635,0.29503268003464
440,4117400264,0.179836,-0.138493,0.252268,0.940659,-3.39944434165955,4.13204002380371,8.06612968444824,1.05921316146851,-0.61586374044418,0.25802233815193
441,4117416931,0.179805,-0.138458,0.252228,0.940681,-3.37575531005859,4.11335277557373,8.06171417236328,1.21605241298676,-0.54194545745850,0.36562126874924
442,4117433598,0.179769,-0.138403,0.252246,0.940691,-3.38923239707947,4.15754842758179,8.05504894256592,1.64537274837494,-0.59726893901825,0.42217415571213
443,4117450265,0.179751,-0.138368,0.252165,0.940721,-3.36772775650024,4.12911367416382,8.06588077545166,0.94838702678680,-0.61815601587296,0.24700886011124
444,4117466932,0.179728,-0.138338,0.252127,0.940740,-3.39583897590637,4.11851453781128,8.05744743347168,1.20863759517670,-0.47706854343414,0.37334349751472
445,4117483599,0.179700,-0.138279,0.252087,0.940765,-3.39128780364990,4.15127372741699,8.06834220886230,1.22939670085907,-0.68465942144394,0.42254549264908
446,4117500266,0.179648,-0.138234,0.252059,0.940789,-3.36169219017029,4.10675001144409,8.09027957916260,1.29087996482849,-0.57622802257538,0.49563133716583
447,4117516933,0.179620,-0.138252,0.252046,0.940795,-3.37480020523071,4.12246799468994,8.07840824127197,1.35719120502472,-0.14556336402893,0.25921329855919
448,4117533600,0.179601,-0.138290,0.252025,0.940799,-3.38028383255005,4.12069892883301,8.06416988372803,1.28333711624146,-0.04265154898167,0.16739180684090
449,4117550267,0.179571,-0.138299,0.252027,0.940803,-3.38633298873901,4.13663339614868,8.07741069793701,1.47461271286011,-0.19167904555798,0.28780990839005
450,4117566934,0.179553,-0.138297,0.251998,0.940814,-3.38666605949402,4.12739896774292,8.06619071960449,1.27781760692596,-0.32893750071526,0.20623345673084
451,4117583601,0.179545,-0.138305,0.252016,0.940810,-3.38168954849243,4.14030647277832,8.06050109863281,1.55859684944153,-0.14832955598831,0.26520669460297
452,4117600268,0.179523,-0.138324,0.251984,0.940820,-3.38519001007080,4.14925718307495,8.07456588745117,1.21215939521790,-0.15662805736065,0.26354187726974
453,4117616935,0.179513,-0.138331,0.251962,0.940827,-3.36664032936096,4.11943721771240,8.06850814819336,1.28158247470856,-0.21123430132866,0.25718989968300
454,4117633602,0.179494,-0.138383,0.251954,0.940825,-3.38493108749390,4.10708665847778,8.07939720153809,1.36639904975891,0.06322495639324,0.13106018304825
455,4117650269,0.179454,-0.138420,0.251961,0.940825,-3.38444495201111,4.10143089294434,8.06317043304443,1.47374200820923,0.00080680008978,0.26737099885941
456,4117666936,0.179397,-0.138445,0.251987,0.940825,-3.39248609542847,4.13890838623047,8.06599140167236,1.61644303798676,-0.03809248656034,0.39476850628853
457,4117683603,0.179364,-0.138455,0.252039,0.940816,-3.38255214691162,4.13916110992432,8.06472682952881,1.78146564960480,-0.07754884660244,0.39829024672508
458,4117700270,0.179313,-0.138460,0.252015,0.940832,-3.38855552673340,4.15679979324341,8.07678985595703,1.27250289916992,-0.22971388697624,0.40334877371788
459,4117716937,0.179278,-0.138456,0.251985,0.940847,-3.38075351715088,4.12708950042725,8.06519985198975,1.23322594165802,-0.29286202788353,0.37233179807663
460,4117733604,0.179253,-0.138464,0.251971,0.940854,-3.35413289070129,4.11210966110229,8.05170822143555,1.33570230007172,-0.19306212663651,0.32296335697174
461,4117750271,0.179240,-0.138488,0.251991,0.940848,-3.38738489151001,4.11433219909668,8.09112358093262,1.58102059364319,-0.06141284480691,0.21211154758930
462,4117766938,0.179204,-0.138499,0.252016,0.940847,-3.38585400581360,4.15209388732910,8.07122039794922,1.60541677474976,-0.12572634220123,0.35390344262123
463,4117783605,0.179173,-0.138520,0.252011,0.940851,-3.37689924240112,4.09689331054688,8.06894111633301,1.40597081184387,-0.11910545080900,0.27289053797722
464,4117800272,0.179149,-0.138541,0.252060,0.940839,-3.36744832992554,4.13121986389160,8.06512355804443,1.76614940166473,-0.01714130118489,0.31571495532990
465,4117816939,0.179088,-0.138586,0.252051,0.940846,-3.37714886665344,4.16438770294189,8.07954788208008,1.38033235073090,0.00589092075825,0.27665555477142
466,4117833606,0.179051,-0.138626,0.252048,0.940848,-3.40253925323486,4.13287448883057,8.07361507415771,1.35752439498901,0.05830731242895,0.35647755861282
467,4117850273,0.179027,-0.138623,0.252071,0.940847,-3.39323687553406,4.13836002349854,8.08246326446533,1.58744943141937,-0.19557215273380,0.39164376258850
468,4117866940,0.178988,-0.138653,0.252087,0.940846,-3.36931753158569,4.10562467575073,8.05666446685791,1.53208768367767,-0.01427267584950,0.32560142874718
469,4117883607,0.178928,-0.138681,0.252093,0.940851,-3.37102007865906,4.13599395751953,8.05168056488037,1.47877478599548,-0.05611102655530,0.37084627151489
470,4117900274,0.178897,-0.138745,0.252127,0.940839,-3.36519527435303,4.11192512512207,8.03397083282471,1.61043679714203,0.24963416159153,0.27044448256493
471,4117916941,0.178870,-0.138803,0.252104,0.940842,-3.38164806365967,4.12638282775879,8.06239604949951,1.25993990898132,0.08578974008560,0.13929466903210
472,4117933608,0.178877,-0.138843,0.252067,0.940844,-3.38310599327087,4.15243387222290,8.07606315612793,1.16974484920502,-0.05225631222129,0.05516975373030
473,4117950275,0.178851,-0.138862,0.252078,0.940844,-3.39464211463928,4.11526632308960,8.06970310211182,1.53897750377655,-0.13264176249504,0.22167789936066
474,4117966942,0.178827,-0.138879,0.252100,0.940840,-3.38898944854736,4.13182640075684,8.06045627593994,1.57433569431305,-0.07284890860319,0.32211810350418
475,4117983609,0.178819,-0.138918,0.252139,0.940825,-3.38897347450256,4.13804531097412,8.05345344543457,1.66261005401611,0.10423088818789,0.26573178172112
476,4118000276,0.178785,-0.138957,0.252176,0.940816,-3.38882517814636,4.13203525543213,8.07663536071777,1.66474866867065,0.08388160169125,0.30272930860519
477,4118016943,0.178748,-0.138981,0.252175,0.940820,-3.40720629692078,4.15272045135498,8.05335521697998,1.41480708122253,-0.08145479112864,0.32175955176353
478,4118033610,0.178698,-0.138990,0.252163,0.940831,-3.39020109176636,4.10210371017456,8.07362937927246,1.34263038635254,-0.17547899484634,0.42806503176689
479,4118050277,0.178660,-0.139014,0.252148,0.940839,-3.39070868492126,4.13480043411255,8.08245372772217,1.34063279628754,-0.12269123643637,0.26224845647812
480,4118066944,0.178626,-0.139002,0.252112,0.940856,-3.41372799873352,4.13324260711670,8.06968212127686,1.24344539642334,-0.40215140581131,0.29372644424438
481,4118083611,0.178576,-0.139011,0.252142,0.940857,-3.36728286743164,4.11566162109375,8.07421779632568,1.65547692775726,-0.14357839524746,0.38977408409119
482,4118100278,0.178521,-0.139032,0.252169,0.940857,-3.39155721664429,4.12892293930054,8.07034873962402,1.62480568885803,-0.06786725670099,0.38750734925270
483,4118116945,0.178485,-0.139055,0.252223,0.940846,-3.37557148933411,4.15262937545776,8.06235218048096,1.77577960491180,0.03512781858444,0.41752544045448
484,4118133612,0.178453,-0.139056,0.252232,0.940849,-3.39681696891785,4.13814163208008,8.07692909240723,1.51008629798889,-0.22338755428791,0.34478533267975
485,4118150279,0.178417,-0.139073,0.252224,0.940856,-3.38905668258667,4.11017131805420,8.03731822967529,1.36149430274963,-0.11507145315409,0.36220198869705
486,4118166946,0.178445,-0.139088,0.252212,0.940851,-3.39295816421509,4.19262838363647,8.07454681396484,1.32270383834839,-0.12635384500027,0.14498069882393
487,4118183613,0.178425,-0.139070,0.252114,0.940884,-3.40353465080261,4.11919069290161,8.06176185607910,0.81818479299545,-0.53432565927505,0.20254521071911
488,4118200280,0.178368,-0.139075,0.252151,0.940884,-3.39008140563965,4.09923410415649,8.03905677795410,1.70707380771637,-0.15479676425457,0.44057688117027
489,4118216947,0.178352,-0.139088,0.252167,0.940881,-3.37073612213135,4.16044139862061,8.07639408111572,1.55764913558960,-0.13804604113102,0.24211686849594
490,4118233614,0.178322,-0.139100,0.252160,0.940887,-3.38743591308594,4.14466762542725,8.05543994903564,1.42304170131683,-0.21042752265930,0.23194861412048
491,4118250281,0.178283,-0.139116,0.252131,0.940899,-3.38004684448242,4.14448499679565,8.06109523773193,1.24591696262360,-0.18481482565403,0.29213842749596
492,4118266948,0.178256,-0.139147,0.252083,0.940913,-3.39276528358459,4.14488077163696,8.04973030090332,1.08468496799469,-0.09655346721411,0.24912191927433
493,4118283615,0.178240,-0.139167,0.252067,0.940917,-3.39115476608276,4.12004899978638,8.06246566772461,1.34498679637909,-0.16303123533726,0.17528051137924
494,4118300282,0.178206,-0.139203,0.252068,0.940918,-3.37427258491516,4.12281370162964,8.08120536804199,1.42153036594391,-0.00032656194526,0.27598965167999
495,4118316949,0.178167,-0.139201,0.252046,0.940932,-3.40226316452026,4.10947036743164,8.07485580444336,1.30104839801788,-0.27622658014297,0.36370036005974
496,4118333616,0.178124,-0.139202,0.252134,0.940916,-3.38202333450317,4.13340473175049,8.06143188476562,2.05909466743469,-0.10098448395729,0.43336692452431
497,4118350283,0.178105,-0.139214,0.252121,0.940921,-3.41236734390259,4.17348480224609,8.04901885986328,1.34725356101990,-0.17780975997448,0.27483704686165
498,4118366950,0.178052,-0.139222,0.252108,0.940934,-3.37136363983154,4.10151147842407,8.03022003173828,1.33763599395752,-0.19094908237457,0.42629775404930
499,4118383617,0.178006,-0.139266,0.252135,0.940929,-3.37625265121460,4.13532543182373,8.05944919586182,1.59701597690582,0.08673740923405,0.31216758489609
500,4118400284,0.177974,-0.139266,0.252143,0.940933,-3.39289212226868,4.13544082641602,8.05034828186035,1.47923576831818,-0.18354699015617,0.42077821493149
501,4118416951,0.177918,-0.139284,0.252140,0.940941,-3.39260625839233,4.12935781478882,8.05903053283691,1.41679215431213,-0.12763449549675,0.38763543963432
502,4118433618,0.177911,-0.139283,0.252144,0.940942,-3.39111495018005,4.11179113388062,8.07018756866455,1.42767751216888,-0.18428978323936,0.36139521002769
503,4118450285,0.177909,-0.139299,0.252162,0.940935,-3.39911341667175,4.13030862808228,8.04714870452881,1.58209633827209,-0.13120745122433,0.15297183394432
504,4118466952,0.177896,-0.139285,0.252156,0.940941,-3.39452028274536,4.14211511611938,8.07237434387207,1.46450853347778,-0.38737285137177,0.21360990405083
505,4118483619,0.177879,-0.139265,0.252120,0.940957,-3.41371417045593,4.13924312591553,8.04177379608154,1.23769533634186,-0.44528323411942,0.24658623337746
506,4118500286,0.177846,-0.139260,0.252134,0.940960,-3.37446975708008,4.10109949111938,8.06126117706299,1.54732716083527,-0.24722017347813,0.37694209814072
507,4118516953,0.177816,-0.139260,0.252149,0.940962,-3.36499023437500,4.16236162185669,8.05169677734375,1.57633376121521,-0.23629637062550,0.31011858582497
508,4118533620,0.177783,-0.139293,0.252119,0.940971,-3.39267444610596,4.13472127914429,8.05973529815674,1.26087486743927,-0.12493234872818,0.13715600967407
509,4118550287,0.177798,-0.139312,0.252115,0.940967,-3.39419460296631,4.10781526565552,8.07265949249268,1.38368773460388,-0.09505512565374,0.18295150995255
510,4118566954,0.177794,-0.139309,0.252127,0.940965,-3.40444898605347,4.12817668914795,8.07876682281494,1.50989425182343,-0.20801995694637,0.30312630534172
511,4118583621,0.177748,-0.139298,0.252159,0.940966,-3.39851045608521,4.14774560928345,8.04730987548828,1.66666972637177,-0.24012546241283,0.48895928263664
512,4118600288,0.177715,-0.139286,0.252201,0.940963,-3.38208127021790,4.15073060989380,8.03960990905762,1.74035716056824,-0.23706474900246,0.42390295863152
513,4118616955,0.177674,-0.139263,0.252152,0.940987,-3.37157487869263,4.13466215133667,8.04391384124756,1.14669334888458,-0.48034697771072,0.35150870680809
514,4118633622,0.177636,-0.139264,0.252130,0.941000,-3.38842940330505,4.13242101669312,8.05651283264160,1.30761790275574,-0.27397266030312,0.32438480854034
515,4118650289,0.177609,-0.139286,0.252138,0.941000,-3.38733673095703,4.12184095382690,8.05489349365234,1.46922123432159,-0.06603593379259,0.32814988493919
516,4118666956,0.177610,-0.139273,0.252136,0.941002,-3.39492583274841,4.15529632568359,8.07847213745117,1.46555876731873,-0.35055464506149,0.19110916554928
517,4118683623,0.177575,-0.139269,0.252122,0.941013,-3.37806463241577,4.14163446426392,8.06806182861328,1.37141919136047,-0.29689604043961,0.31803289055824
518,4118700290,0.177542,-0.139268,0.252112,0.941022,-3.38920474052429,4.12425518035889,8.03597354888916,1.41268122196198,-0.29995673894882,0.27415835857391
519,4118716957,0.177513,-0.139288,0.252123,0.941022,-3.37686085700989,4.13698291778564,8.05791664123535,1.51002240180969,-0.08639804273844,0.29462286829948
520,4118733624,0.177504,-0.139307,0.252127,0.941020,-3.38999676704407,4.15165662765503,8.06215381622314,1.43559181690216,-0.08618032932281,0.27102077007294
521,4118750291,0.177492,-0.139279,0.252106,0.941032,-3.41348838806152,4.12831640243530,8.06919097900391,1.34100389480591,-0.46111178398132,0.28823250532150
522,4118766958,0.177474,-0.139257,0.252071,0.941048,-3.39064216613770,4.12771940231323,8.04906749725342,1.24753069877625,-0.45980557799339,0.26870283484459
523,4118783625,0.177467,-0.139240,0.252047,0.941058,-3.37829566001892,4.14481496810913,8.07417678833008,1.34984052181244,-0.43855988979340,0.16134719550610
524,4118800292,0.177467,-0.139237,0.252035,0.941062,-3.37989568710327,4.10799074172974,8.03693866729736,1.35521912574768,-0.26350986957550,0.25213143229485
525,4118816959,0.177440,-0.139267,0.252063,0.941055,-3.38103961944580,4.12862586975098,8.05494403839111,1.60464835166931,0.02129695937037,0.31866040825844
526,4118833626,0.177424,-0.139316,0.252046,0.941055,-3.36807703971863,4.14956808090210,8.04134559631348,1.30092036724091,0.03967406973243,0.13884644210339
527,4118850293,0.177419,-0.139336,0.252050,0.941052,-3.40546870231628,4.11203241348267,8.04398536682129,1.45336699485779,-0.09623331576586,0.21154807507992
528,4118866960,0.177440,-0.139361,0.252013,0.941054,-3.39868855476379,4.15271711349487,8.06914710998535,1.20938050746918,-0.16816657781601,-0.00843298155814
529,4118883627,0.177440,-0.139358,0.251986,0.941062,-3.39825272560120,4.14257717132568,8.06879425048828,1.29994702339172,-0.33457231521606,0.13542714715004
530,4118900294,0.177406,-0.139341,0.252019,0.941062,-3.39402580261230,4.14049863815308,8.04624366760254,1.70777809619904,-0.32127931714058,0.36331620812416
531,4118916961,0.177381,-0.139331,0.252043,0.941062,-3.38441348075867,4.13699674606323,8.05902290344238,1.62910854816437,-0.27298659086227,0.34922918677330
532,4118933628,0.177341,-0.139332,0.252035,0.941071,-3.39134407043457,4.14546966552734,8.04350376129150,1.39010369777679,-0.23342771828175,0.37965708971024
533,4118950295,0.177327,-0.139335,0.252014,0.941079,-3.37393903732300,4.11569499969482,8.05821418762207,1.29336452484131,-0.24327583611012,0.26895898580551
534,4118966962,0.177302,-0.139326,0.252005,0.941087,-3.37483668327332,4.12377071380615,8.07245731353760,1.40543293952942,-0.31510666012764,0.32033807039261
535,4118983629,0.177310,-0.139317,0.251984,0.941093,-3.39017343521118,4.11940622329712,8.06882286071777,1.33634245395660,-0.35469105839729,0.14832311868668
536,4119000296,0.177267,-0.139331,0.252001,0.941094,-3.39866900444031,4.13425350189209,8.05935955047607,1.58442711830139,-0.16360750794411,0.27851247787476
537,4119016963,0.177247,-0.139337,0.252025,0.941091,-3.40133118629456,4.14437913894653,8.05039501190186,1.59793782234192,-0.14158059656620,0.34204477071762
538,4119033630,0.177215,-0.139354,0.252020,0.941096,-3.39442896842957,4.15606546401978,8.06086444854736,1.41870033740997,-0.15706348419189,0.26082694530487
539,4119050297,0.177192,-0.139351,0.251997,0.941107,-3.39359307289124,4.13829994201660,8.05734539031982,1.26196336746216,-0.25481435656548,0.37263917922974
540,4119066964,0.177167,-0.139333,0.252004,0.941112,-3.39988541603088,4.13232517242432,8.06013774871826,1.53381645679474,-0.36881646513939,0.31484407186508
541,4119083631,0.177146,-0.139315,0.251983,0.941124,-3.38589763641357,4.12482213973999,8.06422901153564,1.31761968135834,-0.38409444689751,0.32053011655807
542,4119100298,0.177120,-0.139292,0.251966,0.941137,-3.38938307762146,4.14689350128174,8.07534980773926,1.36176323890686,-0.42293611168861,0.34431153535843
543,4119116965,0.177078,-0.139278,0.251959,0.941149,-3.36778926849365,4.13357400894165,8.05588245391846,1.43153214454651,-0.35147666931152,0.36823377013206
544,4119133632,0.177042,-0.139294,0.251951,0.941156,-3.38894414901733,4.14812898635864,8.05892848968506,1.39626348018646,-0.16406853497028,0.28350695967674
545,4119150299,0.177015,-0.139308,0.251945,0.941160,-3.39358878135681,4.12471961975098,8.06281471252441,1.40465164184570,-0.16636088490486,0.27063655853271
546,4119166966,0.176992,-0.139312,0.251964,0.941159,-3.39225983619690,4.13408374786377,8.09369564056396,1.56781744956970,-0.16724453866482,0.34007260203362
547,4119183633,0.176959,-0.139314,0.251928,0.941174,-3.38231539726257,4.11156225204468,8.06116390228271,1.24163973331451,-0.33303555846214,0.21327693760395
548,4119200300,0.176951,-0.139310,0.251927,0.941177,-3.37809443473816,4.13157606124878,8.05445671081543,1.45638930797577,-0.27991479635239,0.23293469846249
549,4119216967,0.176943,-0.139297,0.251891,0.941190,-3.38802099227905,4.14688825607300,8.07614326477051,1.24571216106415,-0.41552123427391,0.18030060827732
550,4119233634,0.176921,-0.139263,0.251869,0.941205,-3.38778543472290,4.11134672164917,8.06922912597656,1.34347569942474,-0.51553875207901,0.31981295347214
551,4119250301,0.176885,-0.139234,0.251917,0.941203,-3.37870693206787,4.12343978881836,8.05814456939697,1.78462851047516,-0.32998755574226,0.50223928689957
552,4119266968,0.176841,-0.139225,0.251925,0.941211,-3.40551161766052,4.16015815734863,8.04994487762451,1.50501489639282,-0.26600709557533,0.44033351540565
553,4119283635,0.176803,-0.139228,0.251883,0.941229,-3.38745093345642,4.12695074081421,8.06469821929932,1.15116286277771,-0.27986359596252,0.33099293708801
554,4119300302,0.176781,-0.139240,0.251861,0.941237,-3.38317847251892,4.12336778640747,8.05774402618408,1.26650965213776,-0.16563092172146,0.31179621815681
555,4119316969,0.176738,-0.139232,0.251902,0.941235,-3.38382792472839,4.13094329833984,8.05613613128662,1.72557890415192,-0.21020984649658,0.46784153580666
556,4119333636,0.176720,-0.139214,0.251907,0.941240,-3.37467479705811,4.13398218154907,8.06277751922607,1.50125002861023,-0.34585469961166,0.33669173717499
557,4119350303,0.176682,-0.139213,0.251911,0.941246,-3.39229679107666,4.13478279113770,8.08300018310547,1.46664726734161,-0.22544936835766,0.39667668938637
558,4119366970,0.176671,-0.139217,0.251933,0.941242,-3.38499093055725,4.14415073394775,8.06754589080811,1.61797988414764,-0.19343350827694,0.23453548550606
559,4119383637,0.176621,-0.139227,0.251934,0.941249,-3.40301942825317,4.14060449600220,8.03584480285645,1.44652843475342,-0.17328913509846,0.37955462932587
560,4119400304,0.176593,-0.139221,0.251908,0.941262,-3.38805341720581,4.15550708770752,8.06141376495361,1.27790713310242,-0.31670743227005,0.32528129220009
561,4119416971,0.176532,-0.139215,0.251878,0.941283,-3.38143253326416,4.12831830978394,8.07593059539795,1.23609459400177,-0.31219962239265,0.46374353766441
562,4119433638,0.176547,-0.139198,0.251902,0.941276,-3.34686446189880,4.11990547180176,8.06003570556641,1.56684398651123,-0.22652509808540,0.37712138891220
563,4119450305,0.176530,-0.139224,0.251913,0.941272,-3.36825013160706,4.14273452758789,8.04942703247070,1.51396667957306,-0.06467846035957,0.21622237563133
564,4119466972,0.176546,-0.139261,0.251892,0.941270,-3.39785265922546,4.11935472488403,8.08266735076904,1.26539540290833,-0.02517088316381,0.09087385982275
565,4119483639,0.176516,-0.139294,0.251885,0.941272,-3.40595507621765,4.13974285125732,8.06441402435303,1.36755168437958,-0.02750163525343,0.26553967595100
566,4119500306,0.176478,-0.139282,0.251884,0.941281,-3.40185427665710,4.14368581771851,8.07232475280762,1.49429607391357,-0.36322009563446,0.29796534776688
567,4119516973,0.176440,-0.139248,0.251865,0.941299,-3.38245224952698,4.14347314834595,8.06767845153809,1.34754800796509,-0.48532855510712,0.42139291763306
568,4119533640,0.176364,-0.139217,0.251874,0.941315,-3.37719607353210,4.13798284530640,8.07075119018555,1.52563333511353,-0.41223001480103,0.61014580726624
569,4119550307,0.176309,-0.139210,0.251872,0.941327,-3.36579346656799,4.11360788345337,8.05670928955078,1.46581482887268,-0.32071584463120,0.37882465124130
570,4119566974,0.176280,-0.139217,0.251887,0.941327,-3.39577436447144,4.12073755264282,8.05762386322021,1.55484437942505,-0.17403188347816,0.30406114459038
571,4119583641,0.176257,-0.139212,0.251867,0.941338,-3.37176203727722,4.13988876342773,8.04983520507812,1.33323073387146,-0.32490351796150,0.26848512887955
572,4119600308,0.176224,-0.139216,0.251853,0.941347,-3.37602925300598,4.11573743820190,8.04592800140381,1.35493743419647,-0.23306919634342,0.32211813330650
573,4119616975,0.176208,-0.139230,0.251843,0.941351,-3.37262344360352,4.14044237136841,8.06056022644043,1.39464986324310,-0.18746574223042,0.19066092371941
574,4119633642,0.176201,-0.139257,0.251837,0.941350,-3.38749074935913,4.14375305175781,8.05596256256104,1.39864552021027,-0.09493988752365,0.15034654736519
575,4119650309,0.176193,-0.139270,0.251828,0.941351,-3.40289711952209,4.13425445556641,8.07780075073242,1.38800323009491,-0.17081747949123,0.20591326057911
576,4119666976,0.176169,-0.139263,0.251802,0.941364,-3.39130091667175,4.14310646057129,8.09575939178467,1.28991961479187,-0.34490701556206,0.25762534141541
577,4119683643,0.176140,-0.139226,0.251755,0.941387,-3.38998413085938,4.13440322875977,8.08518314361572,1.16873300075531,-0.56426697969437,0.35465902090073
578,4119700310,0.176095,-0.139211,0.251726,0.941406,-3.36420083045959,4.13199996948242,8.05159950256348,1.25111639499664,-0.35640710592270,0.44151175022125
579,4119716977,0.176068,-0.139221,0.251710,0.941414,-3.36262536048889,4.13652753829956,8.06237602233887,1.36213433742523,-0.23112258315086,0.21796403825283
580,4119733644,0.176057,-0.139230,0.251688,0.941420,-3.37290692329407,4.12926816940308,8.05503463745117,1.34263074398041,-0.28018373250961,0.10187451541424
581,4119750311,0.176061,-0.139249,0.251648,0.941428,-3.37954545021057,4.12446165084839,8.07285881042480,1.19489634037018,-0.22591041028500,0.04506553709507
582,4119766978,0.176066,-0.139245,0.251645,0.941428,-3.38960742950439,4.12860870361328,8.09582138061523,1.46480309963226,-0.30176243185997,0.14386653900146
583,4119783645,0.176053,-0.139235,0.251642,0.941433,-3.36780643463135,4.15068197250366,8.08415603637695,1.45985972881317,-0.33448264002800,0.23452268540859
584,4119800312,0.176047,-0.139236,0.251635,0.941436,-3.39266848564148,4.13642024993896,8.06621074676514,1.40698242187500,-0.24730981886387,0.23570086061954
585,4119816979,0.175989,-0.139239,0.251654,0.941441,-3.38698172569275,4.11007118225098,8.06628513336182,1.55951881408691,-0.17118887603283,0.47722858190536
586,4119833646,0.175954,-0.139246,0.251709,0.941431,-3.37020802497864,4.12633848190308,8.03937816619873,1.80254483222961,-0.07191405445337,0.44138357043266
587,4119850313,0.175967,-0.139264,0.251748,0.941416,-3.37807726860046,4.14090776443481,8.06249237060547,1.63238716125488,0.01426627393812,0.32127290964127
588,4119866980,0.175930,-0.139300,0.251779,0.941409,-3.37934756278992,4.13642024993896,8.07937812805176,1.62458777427673,0.06143205612898,0.33597457408905
589,4119883647,0.175888,-0.139318,0.251763,0.941419,-3.37410402297974,4.14309978485107,8.07459831237793,1.31877231597900,-0.13848146796227,0.33984211087227
590,4119900314,0.175851,-0.139344,0.251760,0.941423,-3.39095878601074,4.12889242172241,8.05991554260254,1.42468082904816,-0.10371223092079,0.25374501943588
591,4119916981,0.175831,-0.139370,0.251742,0.941427,-3.37347102165222,4.14434480667114,8.06148242950439,1.27334821224213,-0.05244840681553,0.30514970421791
592,4119933648,0.175802,-0.139396,0.251747,0.941428,-3.40309238433838,4.15337419509888,8.08436584472656,1.44926905632019,-0.04258751869202,0.31721329689026
593,4119950315,0.175779,-0.139406,0.251766,0.941425,-3.38189291954041,4.09834337234497,8.06150817871094,1.52792549133301,-0.09737307578325,0.39658698439598
594,4119966982,0.175737,-0.139404,0.251811,0.941421,-3.38954138755798,4.13922977447510,8.07117366790771,1.75412428379059,-0.16721892356873,0.44418829679489
595,4119983649,0.175717,-0.139416,0.251767,0.941435,-3.38516569137573,4.13674592971802,8.06943225860596,1.15118849277496,-0.24687442183495,0.19204403460026
596,4120000316,0.175695,-0.139410,0.251765,0.941441,-3.39230346679688,4.10746622085571,8.08750820159912,1.47321677207947,-0.31638726592064,0.24489581584930
597,4120016983,0.175665,-0.139392,0.251769,0.941448,-3.37750172615051,4.12179470062256,8.08273124694824,1.51455569267273,-0.37185153365135,0.33229911327362
598,4120033650,0.175630,-0.139379,0.251773,0.941456,-3.40637016296387,4.14249181747437,8.05697441101074,1.52148401737213,-0.36425739526749,0.29493021965027
599,4120050317,0.175594,-0.139393,0.251748,0.941467,-3.37347888946533,4.14651966094971,8.06272506713867,1.30255949497223,-0.22445049881935,0.23106497526169
600,4120066984,0.175608,-0.139361,0.251727,0.941474,-3.38993620872498,4.11064577102661,8.05730628967285,1.31210017204285,-0.44852322340012,0.27686050534248
601,4120083651,0.175568,-0.139384,0.251745,0.941474,-3.36168742179871,4.12459897994995,8.06480598449707,1.61668646335602,-0.14199040830135,0.18096652626991
602,4120100318,0.175550,-0.139408,0.251738,0.941475,-3.38138341903687,4.16106510162354,8.07077789306641,1.39785146713257,-0.10889878869057,0.19021271169186
603,4120116985,0.175541,-0.139423,0.251688,0.941488,-3.39314198493958,4.13392591476440,8.06625175476074,1.14264643192291,-0.27451050281525,0.07831082493067
604,4120133652,0.175561,-0.139416,0.251682,0.941487,-3.38081264495850,4.11574554443359,8.07210540771484,1.39937555789948,-0.28181013464928,0.18950837850571
605,4120150319,0.175531,-0.139406,0.251648,0.941503,-3.38150906562805,4.14614200592041,8.08391189575195,1.24119150638580,-0.37422078847885,0.29441800713539
606,4120166986,0.175534,-0.139359,0.251664,0.941505,-3.39744639396667,4.13035058975220,8.06427955627441,1.56435978412628,-0.47166427969933,0.41209557652473
607,4120183653,0.175493,-0.139360,0.251711,0.941500,-3.36854958534241,4.12496185302734,8.05956840515137,1.75020551681519,-0.13684225082397,0.45228189229965
608,4120200320,0.175483,-0.139383,0.251685,0.941506,-3.38601136207581,4.16985988616943,8.07100963592529,1.24165236949921,-0.11312489211559,0.21405813097954
609,4120216987,0.175452,-0.139410,0.251649,0.941517,-3.37430381774902,4.10209465026855,8.05853843688965,1.18717432022095,-0.13022136688232,0.23175650835037
610,4120233654,0.175417,-0.139404,0.251650,0.941524,-3.39718055725098,4.14428710937500,8.07977199554443,1.44828307628632,-0.24939726293087,0.40765178203583
611,4120250321,0.175380,-0.139379,0.251645,0.941536,-3.37930083274841,4.14310979843140,8.04588890075684,1.44428741931915,-0.41691708564758,0.39849516749382
612,4120266988,0.175376,-0.139350,0.251607,0.941551,-3.37512397766113,4.13611030578613,8.08066463470459,1.19303953647614,-0.45661678910255,0.31334576010704
613,4120283655,0.175321,-0.139382,0.251569,0.941567,-3.39072728157043,4.13799571990967,8.08706188201904,1.19548547267914,-0.13955718278885,0.24232177436352
614,4120300322,0.175263,-0.139410,0.251554,0.941578,-3.38743925094604,4.13117170333862,8.08841896057129,1.33869910240173,-0.09522162377834,0.33400240540504
615,4120316989,0.175231,-0.139420,0.251573,0.941577,-3.37487959861755,4.12578392028809,8.05955123901367,1.54630267620087,-0.11225405335426,0.38865989446640
616,4120333656,0.175195,-0.139413,0.251592,0.941580,-3.38178157806396,4.12677240371704,8.06183433532715,1.57742202281952,-0.24034315347672,0.42018914222717
617,4120350323,0.175163,-0.139408,0.251558,0.941595,-3.35195374488831,4.14390754699707,8.06874847412109,1.22145688533783,-0.32419914007187,0.31125834584236
618,4120366990,0.175128,-0.139426,0.251543,0.941603,-3.37089967727661,4.12487888336182,8.08101940155029,1.37923085689545,-0.19881215691566,0.20040653645992
619,4120383657,0.175126,-0.139433,0.251507,0.941612,-3.38708949089050,4.11594676971436,8.06340599060059,1.21128857135773,-0.27065581083298,0.13887205719948
620,4120400324,0.175111,-0.139458,0.251494,0.941615,-3.40173745155334,4.12761688232422,8.04939270019531,1.36315906047821,-0.12535494565964,0.15896521508694
621,4120416991,0.175076,-0.139456,0.251509,0.941618,-3.41258358955383,4.13685226440430,8.08045768737793,1.59929537773132,-0.27985078096390,0.27335155010223
622,4120433658,0.175026,-0.139442,0.251518,0.941626,-3.38280439376831,4.14403676986694,8.06980514526367,1.52117669582367,-0.30468228459358,0.45559871196747
623,4120450325,0.174993,-0.139411,0.251507,0.941640,-3.37950921058655,4.14264202117920,8.07459068298340,1.39480364322662,-0.45468309521675,0.40698578953743
624,4120466992,0.174936,-0.139381,0.251447,0.941671,-3.35985183715820,4.10788154602051,8.04480934143066,1.04163002967834,-0.49289718270302,0.51206183433533
625,4120483659,0.174899,-0.139392,0.251462,0.941673,-3.37868642807007,4.13730525970459,8.07429122924805,1.54896652698517,-0.15469431877136,0.32789379358292
626,4120500326,0.174882,-0.139400,0.251455,0.941676,-3.39583420753479,4.12865066528320,8.06895923614502,1.41193854808807,-0.21163134276867,0.23221755027771
627,4120516993,0.174822,-0.139411,0.251479,0.941680,-3.37702226638794,4.13013410568237,8.06063079833984,1.62685477733612,-0.16769276559353,0.37722387909889
628,4120533660,0.174803,-0.139420,0.251469,0.941684,-3.37773323059082,4.11297988891602,8.05577945709229,1.36502885818481,-0.18108819425106,0.28722083568573
629,4120550327,0.174801,-0.139449,0.251485,0.941676,-3.36499071121216,4.13563680648804,8.07656383514404,1.53669786453247,-0.01442635152489,0.19292764365673
630,4120566994,0.174773,-0.139481,0.251457,0.941684,-3.40373778343201,4.15667200088501,8.07717132568359,1.27743327617645,-0.13195022940636,0.12797383964062
631,4120583661,0.174728,-0.139478,0.251470,0.941689,-3.39355874061584,4.09508419036865,8.04076766967773,1.51903796195984,-0.21375717222691,0.44723612070084
632,4120600328,0.174715,-0.139475,0.251492,0.941686,-3.36934685707092,4.16473913192749,8.06389427185059,1.58122563362122,-0.19727542996407,0.35207217931747
633,4120616995,0.174691,-0.139494,0.251464,0.941695,-3.37236404418945,4.14484024047852,8.06055259704590,1.18680286407471,-0.08432341367006,0.38024613261223
634,4120633662,0.174642,-0.139479,0.251465,0.941707,-3.37347388267517,4.09968852996826,8.05339050292969,1.45626127719879,-0.32049807906151,0.47232374548912
635,4120650329,0.174626,-0.139495,0.251479,0.941704,-3.37336397171021,4.13033390045166,8.04772663116455,1.57361876964569,-0.17029245197773,0.15029533207417
636,4120666996,0.174618,-0.139503,0.251441,0.941714,-3.38766312599182,4.14663457870483,8.05898475646973,1.22277593612671,-0.29200398921967,0.11534679681063
637,4120683663,0.174587,-0.139528,0.251413,0.941723,-3.37540340423584,4.11962938308716,8.07294273376465,1.27195215225220,-0.15080116689205,0.18665254116058
638,4120700330,0.174574,-0.139551,0.251451,0.941712,-3.37942600250244,4.13735485076904,8.06538772583008,1.69143712520599,-0.03905296325684,0.24561299383640
639,4120716997,0.174553,-0.139560,0.251463,0.941711,-3.37668085098267,4.14632081985474,8.07847499847412,1.52450621128082,-0.15497604012489,0.29692804813385
640,4120733664,0.174548,-0.139570,0.251471,0.941709,-3.38704156875610,4.13708209991455,8.06512260437012,1.48557496070862,-0.14971262216568,0.24215526878834
641,4120750331,0.174533,-0.139540,0.251474,0.941715,-3.38737463951111,4.14088726043701,8.06640434265137,1.46997690200806,-0.39848878979683,0.41228762269020
642,4120766998,0.174485,-0.139545,0.251481,0.941721,-3.36643958091736,4.13137722015381,8.06980991363525,1.48088788986206,-0.17216216027737,0.42884626984596
643,4120783665,0.174454,-0.139568,0.251491,0.941721,-3.38057351112366,4.13964223861694,8.07726955413818,1.51602852344513,-0.09588754922152,0.24899388849735
644,4120800332,0.174424,-0.139584,0.251501,0.941722,-3.38009214401245,4.10964727401733,8.05211353302002,1.49614036083221,-0.10385309159756,0.33810046315193
645,4120816999,0.174409,-0.139610,0.251520,0.941716,-3.37437772750854,4.13395023345947,8.08336448669434,1.57929182052612,-0.06440953165293,0.18843261897564
646,4120833666,0.174368,-0.139637,0.251545,0.941713,-3.38006472587585,4.14113664627075,8.06696510314941,1.62428069114685,-0.05867229402065,0.27879425883293
647,4120850333,0.174364,-0.139644,0.251578,0.941704,-3.39504957199097,4.12693166732788,8.06782817840576,1.68853008747101,-0.16364595293999,0.20075234770775
648,4120867000,0.174340,-0.139654,0.251610,0.941698,-3.37898015975952,4.15021562576294,8.07156181335449,1.68920886516571,-0.15402837097645,0.25624227523804
649,4120883667,0.174321,-0.139660,0.251596,0.941704,-3.39284586906433,4.12822389602661,8.05672931671143,1.38508367538452,-0.26569974422455,0.18826614320278
650,4120900334,0.174293,-0.139647,0.251614,0.941707,-3.37707495689392,4.12582588195801,8.05307769775391,1.58391499519348,-0.29363039135933,0.35765573382378
651,4120917001,0.174246,-0.139659,0.251648,0.941704,-3.40229678153992,4.13887405395508,8.07273578643799,1.69379353523254,-0.12693014740944,0.36249655485153
652,4120933668,0.174206,-0.139660,0.251663,0.941707,-3.39141154289246,4.12692689895630,8.06260776519775,1.56675446033478,-0.22879183292389,0.33867672085762
653,4120950335,0.174173,-0.139669,0.251708,0.941700,-3.38839888572693,4.12541246414185,8.08152675628662,1.73949933052063,-0.09492707997561,0.39492222666740
654,4120967002,0.174137,-0.139689,0.251723,0.941700,-3.37728476524353,4.14929246902466,8.06273746490479,1.54233264923096,-0.08720483630896,0.31635522842407
655,4120983669,0.174099,-0.139706,0.251721,0.941705,-3.38878989219666,4.14363431930542,8.05789184570312,1.43770480155945,-0.15369540452957,0.29139566421509
656,4121000336,0.174080,-0.139713,0.251692,0.941715,-3.38980937004089,4.15386676788330,8.06035804748535,1.27197790145874,-0.27426719665527,0.17525491118431
657,4121017003,0.174046,-0.139721,0.251648,0.941732,-3.38513875007629,4.13241100311279,8.09064197540283,1.14282584190369,-0.24916674196720,0.30721151828766
658,4121033670,0.174045,-0.139717,0.251653,0.941732,-3.36971712112427,4.11599397659302,8.08131694793701,1.45900189876556,-0.22642266750336,0.29590350389481
659,4121050337,0.174003,-0.139730,0.251662,0.941735,-3.38083362579346,4.12801265716553,8.04151439666748,1.49078726768494,-0.13146360218525,0.37618654966354
660,4121067004,0.173986,-0.139774,0.251667,0.941730,-3.38416600227356,4.15385055541992,8.06963062286377,1.48161804676056,0.02376858703792,0.12908801436424
661,4121083671,0.173957,-0.139802,0.251632,0.941741,-3.38796949386597,4.15327310562134,8.08984947204590,1.18597042560577,-0.11592948436737,0.23337009549141
662,4121100338,0.173906,-0.139797,0.251601,0.941759,-3.38271737098694,4.09836244583130,8.05990123748779,1.24487972259521,-0.31518349051476,0.39197677373886
663,4121117005,0.173849,-0.139784,0.251624,0.941766,-3.38075852394104,4.10081720352173,8.05697059631348,1.60350883007050,-0.27481785416603,0.50795108079910
664,4121133672,0.173837,-0.139797,0.251684,0.941750,-3.38137626647949,4.16578245162964,8.06816196441650,1.83228135108948,-0.03556963428855,0.33643558621407
665,4121150339,0.173797,-0.139818,0.251643,0.941765,-3.39938259124756,4.15724945068359,8.08167457580566,1.14840948581696,-0.16189147531986,0.29727378487587
666,4121167006,0.173766,-0.139842,0.251669,0.941760,-3.37937998771667,4.10835933685303,8.04053497314453,1.59099686145782,-0.01972818188369,0.34419625997543
667,4121183673,0.173740,-0.139859,0.251659,0.941765,-3.36879706382751,4.14307689666748,8.05695915222168,1.36776936054230,-0.13796921074390,0.28162440657616
668,4121200340,0.173694,-0.139863,0.251670,0.941770,-3.38104414939880,4.15759181976318,8.05612754821777,1.51555466651917,-0.18847744166851,0.40993124246597
669,4121217007,0.173653,-0.139856,0.251630,0.941790,-3.38420176506042,4.14046621322632,8.09534549713135,1.20601236820221,-0.37621852755547,0.30006557703018
670,4121233674,0.173645,-0.139856,0.251641,0.941788,-3.38392543792725,4.10850048065186,8.08738327026367,1.56594765186310,-0.27209010720253,0.15778702497482
671,4121250341,0.173643,-0.139860,0.251641,0.941788,-3.40290355682373,4.16556072235107,8.08406448364258,1.49771547317505,-0.27612411975861,0.09972304850817
672,4121267008,0.173630,-0.139839,0.251632,0.941796,-3.37874770164490,4.11887264251709,8.02196502685547,1.44847488403320,-0.44229927659035,0.20746286213398
673,4121283675,0.173614,-0.139825,0.251631,0.941801,-3.38799405097961,4.13882827758789,8.04772186279297,1.43906223773956,-0.30889555811882,0.34561777114868
674,4121300342,0.173586,-0.139837,0.251588,0.941816,-3.36795711517334,4.14940595626831,8.06203842163086,1.15354478359222,-0.22753684222698,0.26046836376190
675,4121317009,0.173566,-0.139850,0.251550,0.941828,-3.38180446624756,4.13278198242188,8.05569171905518,1.22341620922089,-0.27138578891754,0.12834525108337
676,4121333676,0.173574,-0.139852,0.251534,0.941830,-3.38410902023315,4.12830591201782,8.06110000610352,1.37593996524811,-0.29512873291969,0.08482927083969
677,4121350343,0.173577,-0.139842,0.251530,0.941832,-3.39068889617920,4.12880182266235,8.05510234832764,1.46852970123291,-0.35460144281387,0.14481420814991
678,4121367010,0.173572,-0.139841,0.251522,0.941835,-3.38692903518677,4.13641166687012,8.07574176788330,1.38864386081696,-0.24879537522793,0.25149112939835
679,4121383677,0.173524,-0.139823,0.251551,0.941839,-3.39233851432800,4.15513134002686,8.04196262359619,1.64852321147919,-0.29301571846008,0.50120210647583
680,4121400344,0.173464,-0.139814,0.251541,0.941855,-3.35777425765991,4.15578174591064,8.06933212280273,1.35059583187103,-0.26718524098396,0.54049199819565
681,4121417011,0.173401,-0.139824,0.251518,0.941870,-3.39452624320984,4.12225055694580,8.05476474761963,1.25757074356079,-0.16565653681755,0.48648759722710
682,4121433678,0.173335,-0.139812,0.251530,0.941881,-3.38236451148987,4.11802339553833,8.06292247772217,1.55857133865356,-0.32144582271576,0.46197628974915
683,4121450345,0.173292,-0.139775,0.251543,0.941891,-3.38087987899780,4.12345075607300,8.07536697387695,1.54972207546234,-0.43359100818634,0.51298397779465
684,4121467012,0.173243,-0.139757,0.251572,0.941895,-3.37527894973755,4.13328313827515,8.06303215026855,1.65867841243744,-0.30545061826706,0.48043018579483
685,4121483679,0.173205,-0.139760,0.251588,0.941898,-3.36554741859436,4.13322687149048,8.05355453491211,1.55722653865814,-0.19274196028709,0.37084627151489
686,4121500346,0.173171,-0.139790,0.251579,0.941902,-3.38291335105896,4.14811515808105,8.07243347167969,1.39056468009949,-0.09422270953655,0.20985764265060
687,4121517013,0.173141,-0.139821,0.251572,0.941904,-3.39678525924683,4.13798093795776,8.04887771606445,1.40104031562805,-0.06791847944260,0.20730921626091
688,4121533680,0.173103,-0.139854,0.251543,0.941914,-3.39448666572571,4.13769769668579,8.06750106811523,1.25421547889709,-0.11563494056463,0.19064813852310
689,4121550347,0.173079,-0.139880,0.251539,0.941916,-3.39021420478821,4.13097047805786,8.06247425079346,1.36828172206879,-0.03469880297780,0.32026118040085
690,4121567014,0.173040,-0.139910,0.251571,0.941910,-3.37544178962708,4.13562583923340,8.05374050140381,1.64419448375702,0.01062927022576,0.34993353486061
691,4121583681,0.173000,-0.139944,0.251578,0.941910,-3.37797975540161,4.13490390777588,8.06241703033447,1.44468426704407,0.02056699804962,0.35601654648781
692,4121600348,0.172989,-0.139959,0.251576,0.941911,-3.36831378936768,4.11603212356567,8.07367897033691,1.41676652431488,-0.13497251272202,0.24298766255379
693,4121617015,0.172967,-0.139986,0.251570,0.941913,-3.37388896942139,4.11730003356934,8.02730083465576,1.46599400043488,-0.16949841380119,0.05071314051747
694,4121633682,0.172984,-0.140021,0.251540,0.941912,-3.39304828643799,4.15701055526733,8.07047367095947,1.23463475704193,-0.08174934238195,0.01523955632001
695,4121650349,0.172980,-0.140057,0.251524,0.941912,-3.39960217475891,4.14136409759521,8.07770633697510,1.35094201564789,-0.06962172687054,0.05978004261851
696,4121667016,0.172978,-0.140087,0.251533,0.941905,-3.39940738677979,4.13204479217529,8.07474994659424,1.52667057514191,-0.07877826690674,0.08257535099983
697,4121683683,0.172946,-0.140111,0.251551,0.941903,-3.37565946578979,4.11447954177856,8.05781173706055,1.55266737937927,-0.05860826745629,0.29582670331001
698,4121700350,0.172903,-0.140142,0.251586,0.941897,-3.38522815704346,4.16376018524170,8.06048870086670,1.65633499622345,0.03251532092690,0.36311125755310
699,4121717017,0.172835,-0.140168,0.251567,0.941910,-3.38031411170959,4.13189792633057,8.04067420959473,1.29518306255341,-0.09438920021057,0.40962389111519
700,4121733684,0.172784,-0.140182,0.251571,0.941916,-3.38982319831848,4.13537168502808,8.06123638153076,1.46348404884338,-0.13672697544098,0.39175906777382
701,4121750351,0.172778,-0.140185,0.251576,0.941916,-3.37938022613525,4.13034009933472,8.05326938629150,1.42815148830414,-0.14908513426781,0.36265024542809
702,4121767018,0.172724,-0.140204,0.251612,0.941913,-3.38738584518433,4.13655853271484,8.07232475280762,1.69349873065948,-0.07185003161430,0.39206638932228
703,4121783685,0.172678,-0.140210,0.251611,0.941921,-3.37706685066223,4.13483524322510,8.06517410278320,1.40567624568939,-0.16930635273457,0.44532799720764
704,4121800352,0.172637,-0.140224,0.251631,0.941921,-3.39000201225281,4.14759588241577,8.07627868652344,1.56507670879364,-0.09820549190044,0.38357579708099
705,4121817019,0.172586,-0.140226,0.251606,0.941937,-3.39069247245789,4.14720344543457,8.05870437622070,1.23156118392944,-0.20388349890709,0.49896100163460
706,4121833686,0.172535,-0.140213,0.251627,0.941942,-3.39268064498901,4.13699865341187,8.07153892517090,1.59211111068726,-0.27474102377892,0.48260730504990
707,4121850353,0.172492,-0.140211,0.251613,0.941955,-3.37413954734802,4.12983083724976,8.05538749694824,1.35382306575775,-0.27057895064354,0.38794273138046
708,4121867020,0.172453,-0.140216,0.251632,0.941956,-3.38411092758179,4.13380479812622,8.06442451477051,1.57726848125458,-0.18286828696728,0.35360896587372
709,4121883687,0.172449,-0.140227,0.251647,0.941951,-3.37590169906616,4.13260459899902,8.07041549682617,1.52176570892334,-0.11166496574879,0.29513514041901
710,4121900354,0.172387,-0.140246,0.251660,0.941956,-3.39035511016846,4.10990047454834,8.04005908966064,1.52421164512634,-0.09700169414282,0.41100695729256
711,4121917021,0.172325,-0.140276,0.251649,0.941966,-3.37841510772705,4.15776252746582,8.07233238220215,1.38615930080414,-0.10508249700069,0.29431551694870
712,4121933688,0.172276,-0.140285,0.251611,0.941984,-3.39738678932190,4.13511323928833,8.06277561187744,1.20935487747192,-0.27279448509216,0.27765443921089
713,4121950355,0.172276,-0.140268,0.251625,0.941982,-3.38686776161194,4.10217332839966,8.06216621398926,1.56771492958069,-0.33747929334641,0.25200334191322
714,4121967022,0.172218,-0.140292,0.251638,0.941986,-3.37339043617249,4.14651298522949,8.06673908233643,1.56629323959351,-0.12146181613207,0.28336608409882
715,4121983689,0.172192,-0.140288,0.251630,0.941994,-3.39477777481079,4.14287137985229,8.07246303558350,1.40527927875519,-0.28585693240166,0.30543145537376
716,4122000356,0.172146,-0.140290,0.251630,0.942001,-3.38963389396667,4.12405776977539,8.07120990753174,1.45258581638336,-0.22325952351093,0.38177010416985
717,4122017023,0.172120,-0.140298,0.251664,0.941996,-3.39075613021851,4.15823793411255,8.08543205261230,1.69306337833405,-0.15962474048138,0.28889843821526
718,4122033690,0.172100,-0.140305,0.251644,0.942004,-3.39215016365051,4.14623022079468,8.05678844451904,1.31353425979614,-0.22681964933872,0.24951890110970
719,4122050357,0.172085,-0.140301,0.251644,0.942007,-3.37526535987854,4.12291526794434,8.06235218048096,1.46522569656372,-0.27816030383110,0.26538598537445
720,4122067024,0.172041,-0.140305,0.251647,0.942014,-3.38128423690796,4.15587139129639,8.04693889617920,1.46003901958466,-0.20285896956921,0.39177182316780
721,4122083691,0.172012,-0.140324,0.251648,0.942016,-3.39778256416321,4.12613630294800,8.05692005157471,1.45681190490723,-0.12806990742683,0.25437253713608
722,4122100358,0.172002,-0.140321,0.251685,0.942008,-3.36944222450256,4.15040397644043,8.05208778381348,1.65034162998199,-0.12951701879501,0.43121543526649
723,4122117025,0.171949,-0.140344,0.251700,0.942011,-3.37920260429382,4.12580442428589,8.07813835144043,1.53098642826080,-0.06933998316526,0.37897831201553
724,4122133692,0.171892,-0.140358,0.251738,0.942009,-3.38932991027832,4.15953207015991,8.06298255920410,1.67394375801086,-0.04613488167524,0.50600451231003
725,4122150359,0.171864,-0.140361,0.251746,0.942011,-3.39576911926270,4.16161966323853,8.07367515563965,1.46409869194031,-0.16760309040546,0.40585884451866
726,4122167026,0.171810,-0.140385,0.251706,0.942028,-3.39730095863342,4.12258768081665,8.06568050384521,1.11881387233734,-0.09414587914944,0.43354615569115
727,4122183693,0.171757,-0.140417,0.251757,0.942020,-3.39250946044922,4.12184906005859,8.05896186828613,1.71642243862152,0.11552608758211,0.51728689670563
728,4122200360,0.171705,-0.140408,0.251758,0.942030,-3.37732958793640,4.13302135467529,8.05785083770752,1.43228769302368,-0.25325196981430,0.51249724626541
729,4122217027,0.171677,-0.140385,0.251748,0.942042,-3.37200188636780,4.13151025772095,8.05066204071045,1.39007806777954,-0.39719536900520,0.39315494894981
730,4122233694,0.171649,-0.140387,0.251718,0.942054,-3.38146042823792,4.12924766540527,8.07919883728027,1.24443149566650,-0.27248710393906,0.28186774253845
731,4122250361,0.171625,-0.140394,0.251679,0.942068,-3.38774847984314,4.13358974456787,8.08193588256836,1.23904001712799,-0.33303555846214,0.11971376836300
732,4122267028,0.171613,-0.140379,0.251691,0.942069,-3.39593815803528,4.15191507339478,8.04287338256836,1.58948564529419,-0.36717724800110,0.20911486446857
733,4122283695,0.171627,-0.140366,0.251712,0.942063,-3.36629867553711,4.14586448669434,8.04332160949707,1.59075367450714,-0.27119371294975,0.24717536568642
734,4122300362,0.171607,-0.140352,0.251674,0.942079,-3.37147378921509,4.14552974700928,8.05712032318115,1.20515429973602,-0.39106109738350,0.29154935479164
735,4122317029,0.171587,-0.140342,0.251664,0.942087,-3.36389923095703,4.13473653793335,8.08257770538330,1.40339660644531,-0.33217748999596,0.27354362607002
736,4122333696,0.171568,-0.140352,0.251633,0.942097,-3.37797904014587,4.11519670486450,8.08249855041504,1.25727629661560,-0.25097244977951,0.18899610638618
737,4122350363,0.171572,-0.140361,0.251619,0.942099,-3.36636543273926,4.12772893905640,8.06950569152832,1.37253320217133,-0.23793557286263,0.10593410581350
738,4122367030,0.171550,-0.140384,0.251628,0.942097,-3.40478825569153,4.15063190460205,8.07563209533691,1.51004791259766,-0.09082902967930,0.22818352282047
739,4122383697,0.171501,-0.140401,0.251657,0.942096,-3.39129042625427,4.15355920791626,8.05109214782715,1.62757182121277,-0.08195424079895,0.40113326907158
740,4122400364,0.171446,-0.140390,0.251705,0.942094,-3.38759326934814,4.16504001617432,8.05494594573975,1.77726519107819,-0.22523164749146,0.51213866472244
741,4122417031,0.171399,-0.140375,0.251676,0.942113,-3.37385773658752,4.13531208038330,8.05972003936768,1.25639247894287,-0.36110702157021,0.43403276801109
742,4122433698,0.171348,-0.140381,0.251674,0.942122,-3.39176154136658,4.14193868637085,8.06473827362061,1.43807613849640,-0.21365472674370,0.37712135910988
743,4122450365,0.171318,-0.140393,0.251645,0.942133,-3.38342189788818,4.11679935455322,8.04964447021484,1.22668182849884,-0.18604426085949,0.31586864590645
744,4122467032,0.171292,-0.140363,0.251675,0.942134,-3.39868140220642,4.14535093307495,8.07019138336182,1.64614129066467,-0.34494546055794,0.48979169130325
745,4122483699,0.171265,-0.140348,0.251682,0.942139,-3.38078546524048,4.13072299957275,8.06295776367188,1.50253069400787,-0.31656658649445,0.37458574771881
746,4122500366,0.171250,-0.140357,0.251705,0.942135,-3.38160586357117,4.13366508483887,8.07400417327881,1.60099864006042,-0.15229952335358,0.27337712049484
747,4122517033,0.171242,-0.140360,0.251721,0.942131,-3.39095044136047,4.13025569915771,8.05180644989014,1.58048272132874,-0.21457681059837,0.21483930945396
748,4122533700,0.171233,-0.140373,0.251734,0.942128,-3.39457321166992,4.14165067672729,8.05131721496582,1.55429375171661,-0.16281351447105,0.17650991678238
749,4122550367,0.171229,-0.140396,0.251744,0.942122,-3.40497279167175,4.15696239471436,8.07313156127930,1.52546691894531,-0.10757975280285,0.12548942863941
750,4122567034,0.171189,-0.140412,0.251722,0.942133,-3.38799571990967,4.14218187332153,8.04288864135742,1.31144726276398,-0.20428049564362,0.25598612427711
751,4122583701,0.171152,-0.140392,0.251689,0.942152,-3.37329936027527,4.14152431488037,8.04567146301270,1.26238584518433,-0.44130039215088,0.32694610953331
752,4122600368,0.171132,-0.140378,0.251668,0.942163,-3.37341761589050,4.11349582672119,8.05609893798828,1.33278238773346,-0.37997075915337,0.27396622300148
753,4122617035,0.171122,-0.140379,0.251691,0.942159,-3.37232613563538,4.13826131820679,8.04995441436768,1.63496088981628,-0.22973947227001,0.20997290313244
754,4122633702,0.171110,-0.140403,0.251686,0.942159,-3.36704921722412,4.13837242126465,8.04885673522949,1.42603838443756,-0.12653315067291,0.13775791227818
755,4122650369,0.171103,-0.140418,0.251684,0.942158,-3.37679052352905,4.14280986785889,8.07017612457275,1.46846568584442,-0.19149973988533,0.11579501628876
756,4122667036,0.171074,-0.140455,0.251704,0.942152,-3.38686990737915,4.13140773773193,8.03983974456787,1.55887866020203,0.02793064899743,0.26351627707481
757,4122683703,0.171033,-0.140479,0.251721,0.942152,-3.38521170616150,4.16683197021484,8.05992889404297,1.57799851894379,-0.09449165314436,0.25403958559036
758,4122700370,0.170968,-0.140506,0.251703,0.942164,-3.39311003684998,4.12433433532715,8.04538345336914,1.31963038444519,-0.10519776493311,0.35796311497688
759,4122717037,0.170960,-0.140501,0.251730,0.942160,-3.38271498680115,4.12458133697510,8.05890846252441,1.61124372482300,-0.20178325474262,0.34265950322151
760,4122733704,0.170923,-0.140529,0.251746,0.942158,-3.37093329429626,4.14743614196777,8.06342315673828,1.55243706703186,-0.04687764123082,0.28678536415100
761,4122750371,0.170917,-0.140540,0.251758,0.942154,-3.37616300582886,4.13358783721924,8.04473972320557,1.52276468276978,-0.14557617902756,0.22970750927925
762,4122767038,0.170914,-0.140556,0.251779,0.942146,-3.37633728981018,4.15516471862793,8.05757808685303,1.61153829097748,-0.14379610121250,0.13559363782406
763,4122783705,0.170898,-0.140577,0.251752,0.942154,-3.38130664825439,4.15453433990479,8.05603408813477,1.24794030189514,-0.14520481228828,0.21077972650528
764,4122800372,0.170894,-0.140577,0.251730,0.942160,-3.40673732757568,4.13480901718140,8.06123828887939,1.30056178569794,-0.27457454800606,0.21651697158813
765,4122817039,0.170855,-0.140564,0.251737,0.942167,-3.38907551765442,4.12640714645386,8.05214309692383,1.50679516792297,-0.29929077625275,0.41016176342964
766,4122833706,0.170822,-0.140537,0.251788,0.942163,-3.38450217247009,4.16676330566406,8.08636569976807,1.82824718952179,-0.34390810132027,0.43111291527748
767,4122850373,0.170814,-0.140513,0.251768,0.942174,-3.37802171707153,4.15422058105469,8.06067466735840,1.31391859054565,-0.40540423989296,0.32902073860168
768,4122867040,0.170793,-0.140472,0.251785,0.942179,-3.36979961395264,4.13014078140259,8.03974914550781,1.58318519592285,-0.46268704533577,0.43181735277176
