sep=,
DeviceTag:,A
FirmwareVersion:,3.0.0
AppVersion:,2023.6.0
StartTime: ,2024-03-14_11:59:11_000 EDT
© Movella Technologies B. V. 2005-2024

PacketCounter,SampleTimeFine,Quat_W,Quat_X,Quat_Y,Quat_Z,Acc_X,Acc_Y,Acc_Z,Gyr_X,Gyr_Y,Gyr_Z
0,3813460852,0.821356,-0.103057,0.284223,-0.483706,0.00000000000000,0.00000000000000,0.00000000000000,0.00000000000000,0.00000000000000,0.00000000000000
1,3813477519,0.821341,-0.103106,0.284251,-0.483704,-3.64917731285095,-4.44917345046997,8.17709445953369,0.56140476465225,0.64627242088318,0.91156882047653
2,3813494186,0.821326,-0.103116,0.284261,-0.483721,-3.63273334503174,-4.47304248809814,8.09942150115967,0.88732630014420,0.68250161409378,0.86413401365280
3,3813510853,0.821286,-0.103156,0.284314,-0.483749,-3.65215396881104,-4.42930316925049,8.14195346832275,0.50480067729950,0.80003833770752,0.85218566656113
4,3813527520,0.821239,-0.103235,0.284402,-0.483761,-3.64479517936707,-4.47169733047485,8.13534450531006,-0.00854823831469,0.71017611026764,1.15896189212799
5,3813544187,0.821233,-0.103241,0.284404,-0.483769,-3.66309046745300,-4.44853925704956,8.12112808227539,0.84580820798874,0.54193913936615,1.11711072921753
6,3813560854,0.821217,-0.103347,0.284471,-0.483734,-3.63565325737000,-4.42913007736206,8.14066219329834,0.00822167657316,0.59614837169647,1.11320471763611
7,3813577521,0.821204,-0.103368,0.284494,-0.483737,-3.64546322822571,-4.48057317733765,8.13176155090332,0.70251792669296,0.64620840549469,1.04794371128082
8,3813594188,0.821239,-0.103407,0.284516,-0.483657,-3.64594602584839,-4.47547674179077,8.12532043457031,0.65236830711365,0.63423448801041,1.26720118522644
9,3813610855,0.821244,-0.103420,0.284534,-0.483635,-3.65213942527771,-4.47793865203857,8.13229274749756,0.77658987045288,0.65352076292038,1.15081703662872
10,3813627522,0.821260,-0.103405,0.284542,-0.483607,-3.64422750473022,-4.47149229049683,8.12915897369385,0.97607439756393,0.67371648550034,1.24942600727081
11,3813644189,0.821270,-0.103389,0.284523,-0.483604,-3.67181873321533,-4.45074701309204,8.13267993927002,1.15106022357941,0.60627812147141,0.98999482393265
12,3813660856,0.821303,-0.103447,0.284528,-0.483533,-3.64737224578857,-4.46246814727783,8.14333724975586,0.64599072933197,0.51658260822296,1.09590339660645
13,3813677523,0.821287,-0.103554,0.284560,-0.483517,-3.64509105682373,-4.44700050354004,8.15115737915039,0.10497364401817,0.35536336898804,1.07388925552368
14,3813694190,0.821295,-0.103639,0.284589,-0.483469,-3.63467574119568,-4.48968410491943,8.11673736572266,0.30619981884956,0.46738055348396,1.14210867881775
15,3813710857,0.821261,-0.103565,0.284571,-0.483553,-3.64658117294312,-4.45568227767944,8.14359855651855,1.34827804565430,0.63127619028091,1.04572784900665
16,3813727524,0.821261,-0.103679,0.284631,-0.483493,-3.63701105117798,-4.48427724838257,8.14452934265137,0.03566568344831,0.58647966384888,1.08679819107056
17,3813744191,0.821227,-0.103525,0.284571,-0.483619,-3.65212106704712,-4.46761083602905,8.13031005859375,1.98243594169617,0.64117550849915,1.02836275100708
18,3813760858,0.821212,-0.103554,0.284592,-0.483627,-3.64486169815063,-4.41978597640991,8.16219234466553,0.65567231178284,0.60152709484100,1.02534043788910
19,3813777525,0.821207,-0.103629,0.284656,-0.483582,-3.63911390304565,-4.46691370010376,8.12217617034912,0.20292940735817,0.69217038154602,1.19503724575043
20,3813794192,0.821222,-0.103607,0.284683,-0.483544,-3.61981415748596,-4.45574998855591,8.11950683593750,0.92012351751328,0.77445131540298,1.36345374584198
21,3813810859,0.821212,-0.103750,0.284794,-0.483465,-3.64331507682800,-4.46765947341919,8.13388824462891,-0.30904924869537,0.83315551280975,1.06726837158203
22,3813827526,0.821175,-0.103868,0.284892,-0.483445,-3.67760825157166,-4.51371574401855,8.13711643218994,-0.18720963597298,0.73863184452057,1.03212785720825
23,3813844193,0.821145,-0.103900,0.284896,-0.483488,-3.67676210403442,-4.46381187438965,8.13273429870605,0.85246753692627,0.66776150465012,0.54184955358505
24,3813860860,0.821083,-0.104072,0.285000,-0.483494,-3.66808676719666,-4.45733213424683,8.12527370452881,-0.39964136481285,0.75161749124527,0.53689342737198
25,3813877527,0.821046,-0.104229,0.285093,-0.483468,-3.64963006973267,-4.49520158767700,8.12342929840088,-0.29588431119919,0.71276295185089,0.74280667304993
26,3813894194,0.821052,-0.104271,0.285115,-0.483436,-3.62883305549622,-4.47006130218506,8.10434627532959,0.67175710201263,0.67133444547653,0.97227084636688
27,3813910861,0.821022,-0.104355,0.285169,-0.483438,-3.63975071907043,-4.48037815093994,8.09518241882324,0.18391199409962,0.59562337398529,0.98238784074783
28,3813927528,0.821005,-0.104492,0.285245,-0.483393,-3.62994289398193,-4.48694276809692,8.13857841491699,-0.20826327800751,0.55592370033264,1.07605350017548
29,3813944195,0.820998,-0.104608,0.285289,-0.483352,-3.66650509834290,-4.46881723403931,8.13953876495361,0.10282218456268,0.50328958034515,0.96375477313995
30,3813960862,0.821003,-0.104764,0.285346,-0.483277,-3.64894771575928,-4.47389221191406,8.11597442626953,-0.07246472686529,0.58699178695679,0.78281372785568
31,3813977529,0.820984,-0.104943,0.285434,-0.483218,-3.64749884605408,-4.50446701049805,8.11932849884033,-0.41800567507744,0.59212714433670,0.86097085475922
32,3813994196,0.820955,-0.105062,0.285481,-0.483214,-3.65097117424011,-4.50435113906860,8.12802791595459,0.05186571553349,0.49633565545082,0.84235042333603
33,3814010863,0.820906,-0.105156,0.285522,-0.483253,-3.65770554542542,-4.48041963577271,8.12537574768066,0.16566294431686,0.46849468350410,0.82399898767471
34,3814027530,0.820864,-0.105314,0.285582,-0.483254,-3.63260412216187,-4.49784231185913,8.10779094696045,-0.17351962625980,0.51094770431519,0.62702447175980
35,3814044197,0.820870,-0.105323,0.285549,-0.483261,-3.63385009765625,-4.50836229324341,8.09434127807617,1.17376589775085,0.57821947336197,0.62754952907562
36,3814060864,0.820798,-0.105337,0.285579,-0.483363,-3.63326287269592,-4.46670007705688,8.10581684112549,0.67229491472244,0.65435326099396,0.75273156166077
37,3814077531,0.820776,-0.105469,0.285649,-0.483330,-3.63481926918030,-4.53071641921997,8.11905765533447,-0.06146407127380,0.65649181604385,0.80872088670731
38,3814094198,0.820789,-0.105379,0.285579,-0.483369,-3.64289546012878,-4.53232574462891,8.14566612243652,1.87169933319092,0.63685983419418,0.77620571851730
39,3814110865,0.820791,-0.105357,0.285529,-0.483399,-3.65830445289612,-4.45191669464111,8.11757278442383,1.34990453720093,0.48991975188255,0.75043928623199
40,3814127532,0.820773,-0.105478,0.285580,-0.483375,-3.65445494651794,-4.48217058181763,8.14568614959717,0.16025865077972,0.66443181037903,0.64012539386749
41,3814144199,0.820736,-0.105518,0.285588,-0.483424,-3.63077449798584,-4.53201389312744,8.09871292114258,0.79043340682983,0.66924703121185,0.49187901616096
42,3814160866,0.820671,-0.105459,0.285561,-0.483562,-3.63817644119263,-4.50966739654541,8.11499214172363,1.37900054454803,0.62553900480270,0.60118132829666
43,3814177533,0.820653,-0.105441,0.285555,-0.483600,-3.64663743972778,-4.49267482757568,8.13386154174805,1.18092465400696,0.76223391294479,0.67928719520569
44,3814194200,0.820595,-0.105429,0.285582,-0.483686,-3.64360308647156,-4.51432180404663,8.11813735961914,0.83252805471420,0.72060054540634,0.86887246370316
45,3814210867,0.820585,-0.105394,0.285562,-0.483721,-3.64321208000183,-4.48449754714966,8.11835765838623,1.34120905399323,0.74526554346085,0.70710265636444
46,3814227534,0.820599,-0.105499,0.285591,-0.483658,-3.65792655944824,-4.50682735443115,8.13047218322754,0.33556476235390,0.58335483074188,0.83252799510956
47,3814244201,0.820580,-0.105479,0.285552,-0.483717,-3.65645384788513,-4.52081537246704,8.11579132080078,1.22403097152710,0.46499860286713,0.78976756334305
48,3814260868,0.820593,-0.105460,0.285502,-0.483729,-3.64917731285095,-4.47252178192139,8.12843799591064,1.39680147171021,0.55039125680923,0.68817478418350
49,3814277535,0.820586,-0.105559,0.285529,-0.483704,-3.63194727897644,-4.50089025497437,8.10105037689209,0.29225367307663,0.49002215266228,0.86551707983017
50,3814294202,0.820555,-0.105516,0.285485,-0.483791,-3.64191246032715,-4.51388645172119,8.09622669219971,1.33880138397217,0.45959424972534,0.79581212997437
51,3814310869,0.820553,-0.105489,0.285429,-0.483833,-3.65087366104126,-4.48846912384033,8.12077426910400,1.35464298725128,0.40734434127808,0.83304023742676
52,3814327536,0.820516,-0.105518,0.285416,-0.483898,-3.63730025291443,-4.49467039108276,8.13057613372803,0.76100450754166,0.36243247985840,0.83739435672760
53,3814344203,0.820479,-0.105585,0.285418,-0.483945,-3.63842678070068,-4.51196575164795,8.13342666625977,0.47178587317467,0.33237597346306,0.83137536048889
54,3814360870,0.820514,-0.105668,0.285382,-0.483889,-3.64083790779114,-4.49661636352539,8.09809207916260,0.71728360652924,0.26279908418655,0.84046792984009
55,3814377537,0.820510,-0.105692,0.285361,-0.483903,-3.61919260025024,-4.50813674926758,8.10095119476318,0.85789746046066,0.37593042850494,0.97891747951508
56,3814394204,0.820540,-0.105609,0.285275,-0.483921,-3.63686442375183,-4.48416042327881,8.13364887237549,1.80893552303314,0.42687407135963,1.00657916069031
57,3814410871,0.820526,-0.105611,0.285267,-0.483948,-3.62944102287292,-4.48029947280884,8.12887668609619,0.88124328851700,0.45940214395523,1.09209990501404
58,3814427538,0.820582,-0.105690,0.285283,-0.483827,-3.61707234382629,-4.55559539794922,8.09347152709961,0.52830034494400,0.57380133867264,1.14689826965332
59,3814444205,0.820607,-0.105592,0.285213,-0.483847,-3.63522052764893,-4.53754568099976,8.08905887603760,1.86333692073822,0.59924757480621,0.98416805267334
60,3814460872,0.820596,-0.105542,0.285201,-0.483884,-3.63280415534973,-4.48291587829590,8.12775039672852,1.33834052085876,0.76783037185669,0.85584843158722
61,3814477539,0.820602,-0.105544,0.285212,-0.483866,-3.63279676437378,-4.52515172958374,8.12372398376465,1.00198161602020,0.79836058616638,0.87089574337006
62,3814494206,0.820583,-0.105429,0.285157,-0.483957,-3.64045453071594,-4.50658941268921,8.12887573242188,1.87201952934265,0.71483767032623,0.76981532573700
63,3814510873,0.820564,-0.105418,0.285147,-0.483997,-3.62886214256287,-4.48758506774902,8.13968944549561,1.03362607955933,0.56534910202026,0.91361773014069
64,3814527540,0.820548,-0.105389,0.285121,-0.484045,-3.61661386489868,-4.50180912017822,8.12193393707275,1.22502982616425,0.57442879676819,0.85741066932678
65,3814544207,0.820562,-0.105316,0.285082,-0.484061,-3.61985111236572,-4.47476863861084,8.10384559631348,1.55421698093414,0.64449232816696,1.04229593276978
66,3814560874,0.820611,-0.105422,0.285108,-0.483939,-3.62891936302185,-4.49724817276001,8.09983062744141,0.34751310944557,0.57258474826813,1.05962312221527
67,3814577541,0.820697,-0.105228,0.284952,-0.483928,-3.64137005805969,-4.49899768829346,8.14490604400635,2.87398862838745,0.52782654762268,1.04755961894989
68,3814594208,0.820678,-0.105173,0.284936,-0.483981,-3.64254355430603,-4.48331832885742,8.14544677734375,1.25192332267761,0.60151427984238,1.08343005180359
69,3814610875,0.820713,-0.105039,0.284847,-0.484003,-3.62865495681763,-4.50494956970215,8.12063694000244,2.07921338081360,0.51568609476089,1.19187426567078
70,3814627542,0.820735,-0.104782,0.284728,-0.484092,-3.61113238334656,-4.46031570434570,8.09859561920166,2.86621475219727,0.68549829721451,1.26985204219818
71,3814644209,0.820725,-0.104712,0.284718,-0.484130,-3.63257336616516,-4.47991371154785,8.11799144744873,1.23865568637848,0.59685271978378,1.34215664863586
72,3814660876,0.820734,-0.104616,0.284654,-0.484172,-3.67346048355103,-4.52476119995117,8.13264560699463,1.68746721744537,0.46757259964943,1.18097603321075
73,3814677543,0.820796,-0.104567,0.284549,-0.484141,-3.64882254600525,-4.42650175094604,8.15883350372314,1.77034974098206,0.29235610365868,0.97087478637695
74,3814694210,0.820809,-0.104737,0.284588,-0.484058,-3.63269114494324,-4.46000003814697,8.15586471557617,-0.16993385553360,0.32971227169037,0.95062810182571
75,3814710877,0.820812,-0.104722,0.284568,-0.484068,-3.61172604560852,-4.53733158111572,8.08165836334229,1.13991892337799,0.57848846912384,0.95028239488602
76,3814727544,0.820840,-0.104507,0.284453,-0.484134,-3.63424563407898,-4.49519681930542,8.10761928558350,2.66859984397888,0.64368551969528,1.13209402561188
77,3814744211,0.820895,-0.104478,0.284407,-0.484075,-3.63264274597168,-4.47733116149902,8.14639949798584,1.32840263843536,0.47266954183578,1.26481902599335
78,3814760878,0.820903,-0.104403,0.284348,-0.484112,-3.62898325920105,-4.45572996139526,8.16104888916016,1.58201932907104,0.46050345897675,1.08579897880554
79,3814777545,0.820900,-0.104392,0.284316,-0.484138,-3.63186025619507,-4.43948364257812,8.16293239593506,1.07440149784088,0.38818606734276,1.06518089771271
80,3814794212,0.820908,-0.104387,0.284288,-0.484142,-3.62706017494202,-4.49779748916626,8.12691116333008,1.12365484237671,0.51147282123566,0.92251813411713
81,3814810879,0.820960,-0.104349,0.284216,-0.484104,-3.64508962631226,-4.47834253311157,8.12238025665283,1.60339331626892,0.49251940846443,0.90767556428909
82,3814827546,0.820944,-0.104315,0.284184,-0.484158,-3.61703753471375,-4.45183372497559,8.15247249603271,1.31444382667542,0.58181810379028,0.76717728376389
83,3814844213,0.820965,-0.104342,0.284197,-0.484109,-3.64564585685730,-4.50588798522949,8.13533973693848,0.89950531721115,0.78940904140472,0.83635723590851
84,3814860880,0.820959,-0.104276,0.284133,-0.484170,-3.62270545959473,-4.49269723892212,8.13383865356445,1.68650662899017,0.57834756374359,0.65142047405243
85,3814877547,0.820995,-0.104191,0.284055,-0.484174,-3.63453030586243,-4.42385625839233,8.13498210906982,1.95195662975311,0.66514903306961,0.71848750114441
86,3814894214,0.820999,-0.104191,0.284064,-0.484162,-3.63675546646118,-4.44947624206543,8.13124275207520,0.97525477409363,0.74867200851440,0.93756568431854
87,3814910881,0.821013,-0.104105,0.284041,-0.484170,-3.62489533424377,-4.50777006149292,8.13994598388672,1.59532535076141,0.81568765640259,1.04972362518311
88,3814927548,0.821011,-0.103984,0.284006,-0.484220,-3.64526581764221,-4.47322034835815,8.14312458038330,1.76912045478821,0.77662825584412,1.09868240356445
89,3814944215,0.821012,-0.103908,0.283980,-0.484249,-3.63098120689392,-4.47341537475586,8.14202785491943,1.51971673965454,0.73576319217682,0.99953567981720
90,3814960882,0.820985,-0.103814,0.283946,-0.484336,-3.65295791625977,-4.45364236831665,8.15710353851318,1.59503078460693,0.68078547716141,0.91767734289169
91,3814977549,0.821014,-0.103799,0.283929,-0.484300,-3.64620685577393,-4.45818138122559,8.13671398162842,1.17740297317505,0.65106195211411,1.02101182937622
92,3814994216,0.821097,-0.103837,0.283876,-0.484182,-3.66004180908203,-4.44762754440308,8.16048049926758,1.12123417854309,0.39717608690262,1.01837360858917
93,3815010883,0.821086,-0.103850,0.283881,-0.484195,-3.62805771827698,-4.44766139984131,8.15420150756836,0.80499440431595,0.55153113603592,1.04215514659882
94,3815027550,0.821083,-0.103887,0.283908,-0.484177,-3.64844202995300,-4.49894809722900,8.11674213409424,0.59649413824081,0.61784231662750,1.08225178718567
95,3815044217,0.821115,-0.103792,0.283827,-0.484190,-3.62817311286926,-4.46008586883545,8.15373420715332,1.90456044673920,0.53540790081024,0.97446084022522
96,3815060884,0.821125,-0.103825,0.283828,-0.484166,-3.65049481391907,-4.41952371597290,8.15132331848145,0.73837566375732,0.49823102355003,1.07094383239746
97,3815077551,0.821178,-0.103778,0.283741,-0.484137,-3.64090895652771,-4.46018218994141,8.15583610534668,1.62640619277954,0.32315537333488,1.08770716190338
98,3815094218,0.821215,-0.103712,0.283674,-0.484127,-3.63229846954346,-4.43157672882080,8.16271400451660,1.58429896831512,0.41944631934166,1.19507563114166
99,3815110885,0.821209,-0.103761,0.283679,-0.484123,-3.63411927223206,-4.51548099517822,8.11703872680664,0.57207244634628,0.40619179606438,1.08829641342163
100,3815127552,0.821306,-0.103585,0.283490,-0.484108,-3.62840008735657,-4.47587680816650,8.13160991668701,2.89879441261292,0.27030363678932,0.99852395057678
101,3815144219,0.821328,-0.103188,0.283255,-0.484293,-3.62238264083862,-4.46688461303711,8.11572742462158,4.33761262893677,0.68499886989594,0.67685401439667
102,3815160886,0.821336,-0.102824,0.283050,-0.484477,-3.64987778663635,-4.44560194015503,8.15664672851562,3.97264456748962,0.69015979766846,0.74193578958511
103,3815177553,0.821378,-0.102668,0.282927,-0.484509,-3.63265728950500,-4.43200254440308,8.16280460357666,2.51033926010132,0.59075695276260,0.81047558784485
104,3815194220,0.821405,-0.102641,0.282878,-0.484499,-3.64843511581421,-4.40587282180786,8.17465209960938,1.37189304828644,0.49455565214157,0.93596494197845
105,3815210887,0.821415,-0.102737,0.282908,-0.484444,-3.62820768356323,-4.45618057250977,8.14117050170898,0.29466131329536,0.51275336742401,1.00164854526520
106,3815227554,0.821450,-0.102619,0.282834,-0.484452,-3.61262750625610,-4.45852565765381,8.11721229553223,1.98760938644409,0.62264472246170,1.08002352714539
107,3815244221,0.821479,-0.102397,0.282726,-0.484514,-3.60810542106628,-4.41939067840576,8.14386367797852,2.83095884323120,0.88438087701797,0.83763778209686
108,3815260888,0.821477,-0.102437,0.282698,-0.484524,-3.62236309051514,-4.46358203887939,8.13505363464355,0.89325577020645,0.41231325268745,0.71777027845383
109,3815277555,0.821535,-0.102176,0.282491,-0.484602,-3.67739152908325,-4.39239215850830,8.21710395812988,3.55509400367737,0.53990292549133,0.60205215215683
110,3815294222,0.821537,-0.102129,0.282464,-0.484625,-3.59734892845154,-4.36880397796631,8.21094512939453,1.38007628917694,0.66931110620499,0.89635485410690
111,3815310889,0.821533,-0.102003,0.282409,-0.484689,-3.64574337005615,-4.45837593078613,8.16720867156982,1.87803840637207,0.67395979166031,1.03484272956848
112,3815327556,0.821534,-0.101781,0.282275,-0.484813,-3.63994288444519,-4.42556095123291,8.17227172851562,2.84094786643982,0.62521880865097,0.76799684762955
113,3815344223,0.821531,-0.101773,0.282271,-0.484821,-3.64812135696411,-4.39216041564941,8.18404293060303,1.03891527652740,0.64579862356186,0.93625950813293
114,3815360890,0.821520,-0.101835,0.282301,-0.484810,-3.63089966773987,-4.46463108062744,8.13705158233643,0.42249432206154,0.54228490591049,1.04506218433380
115,3815377557,0.821576,-0.101813,0.282200,-0.484779,-3.61523985862732,-4.40108251571655,8.17143344879150,1.63123440742493,0.27225014567375,0.81000161170959
116,3815394224,0.821560,-0.101856,0.282237,-0.484775,-3.65066909790039,-4.41592836380005,8.17584609985352,0.51832419633865,0.66052591800690,1.01462137699127
117,3815410891,0.821560,-0.101699,0.282181,-0.484841,-3.59350275993347,-4.39590835571289,8.15546798706055,2.28429412841797,1.01186811923981,0.63616818189621
118,3815427558,0.821548,-0.101555,0.282162,-0.484902,-3.63404059410095,-4.41288089752197,8.18221378326416,1.89526307582855,1.01601743698120,0.97191232442856
119,3815444225,0.821509,-0.101585,0.282216,-0.484931,-3.64527249336243,-4.44863319396973,8.16924381256104,0.52366441488266,0.78616899251938,0.94302117824554
120,3815460892,0.821497,-0.101666,0.282241,-0.484919,-3.68045234680176,-4.41848659515381,8.17855072021484,0.46941670775414,0.61359053850174,0.68408954143524
121,3815477559,0.821491,-0.101809,0.282269,-0.484884,-3.63696312904358,-4.41176271438599,8.19921016693115,0.18366867303848,0.51900297403336,0.48684617877007
122,3815494226,0.821477,-0.101912,0.282288,-0.484874,-3.63100743293762,-4.44503355026245,8.18054294586182,0.41359382867813,0.55783176422119,0.53545910120010
123,3815510893,0.821519,-0.101918,0.282235,-0.484832,-3.60656285285950,-4.41879796981812,8.14180469512939,1.29889690876007,0.49070090055466,0.78482431173325
124,3815527560,0.821505,-0.101948,0.282280,-0.484824,-3.61304879188538,-4.42194223403931,8.16456031799316,0.62290090322495,0.80752998590469,0.94759303331375
125,3815544227,0.821513,-0.101904,0.282233,-0.484847,-3.63077855110168,-4.40337276458740,8.14368247985840,1.39258813858032,0.48255613446236,0.98351490497589
126,3815560894,0.821501,-0.102053,0.282261,-0.484819,-3.62942433357239,-4.38942623138428,8.16824722290039,-0.12950421869755,0.19200561940670,1.03024530410767
127,3815577561,0.821501,-0.102274,0.282294,-0.484753,-3.64531230926514,-4.40987825393677,8.17173957824707,-0.41531628370285,0.15937501192093,0.72182989120483
128,3815594228,0.821467,-0.102377,0.282296,-0.484789,-3.62640643119812,-4.45464897155762,8.16965198516846,0.30575159192085,0.25578123331070,0.71919178962708
129,3815610895,0.821478,-0.102348,0.282220,-0.484820,-3.64061141014099,-4.43634939193726,8.16968154907227,1.44596505165100,0.29463571310043,0.84922754764557
130,3815627562,0.821471,-0.102314,0.282174,-0.484867,-3.61171460151672,-4.42234659194946,8.18057250976562,1.38258624076843,0.51295828819275,0.76917499303818
131,3815644229,0.821447,-0.102384,0.282177,-0.484890,-3.62363409996033,-4.44460344314575,8.17043685913086,0.53134828805923,0.41215959191322,0.76176011562347
132,3815660896,0.821381,-0.102544,0.282232,-0.484937,-3.64669799804688,-4.42011356353760,8.19739341735840,-0.19760836660862,0.42178991436958,0.49460682272911
133,3815677563,0.821299,-0.102789,0.282333,-0.484965,-3.61755228042603,-4.40903043746948,8.17766857147217,-0.87114548683167,0.43312358856201,0.38251286745071
134,3815694230,0.821243,-0.103122,0.282468,-0.484911,-3.59897279739380,-4.43203973770142,8.16136837005615,-1.54263341426849,0.31910860538483,0.61826491355896
135,3815710897,0.821193,-0.103370,0.282527,-0.484908,-3.59572267532349,-4.43440389633179,8.18393230438232,-0.65640860795975,0.25620380043983,0.34984382987022
136,3815727564,0.821091,-0.103729,0.282700,-0.484903,-3.62752676010132,-4.45684576034546,8.17611408233643,-1.76980543136597,0.55069863796234,0.19504070281982
137,3815744231,0.821028,-0.103988,0.282798,-0.484896,-3.64007759094238,-4.44865036010742,8.15123558044434,-0.72001779079437,0.62571817636490,0.02065664157271
138,3815760898,0.820948,-0.104277,0.282915,-0.484901,-3.60343861579895,-4.51949548721313,8.10949134826660,-1.24122345447540,0.32917442917824,0.51503300666809
139,3815777565,0.820918,-0.104256,0.282855,-0.484992,-3.60222721099854,-4.46288681030273,8.16616725921631,1.40794301033020,0.44585308432579,0.43437862396240
140,3815794232,0.820850,-0.104400,0.282922,-0.485038,-3.62502956390381,-4.41579008102417,8.17201614379883,-0.07820197194815,0.64427465200424,0.35952541232109
141,3815810899,0.820783,-0.104730,0.283087,-0.484984,-3.59527039527893,-4.46287775039673,8.17933273315430,-1.50409948825836,0.66923427581787,0.32242551445961
142,3815827566,0.820670,-0.105118,0.283304,-0.484965,-3.60958242416382,-4.46128416061401,8.14184379577637,-2.07079315185547,0.77279925346375,0.11972657591105
143,3815844233,0.820546,-0.105678,0.283602,-0.484879,-3.61827278137207,-4.46920442581177,8.13607788085938,-3.37880802154541,0.70870339870453,0.01650738343596
144,3815860900,0.820443,-0.106203,0.283863,-0.484784,-3.59583806991577,-4.51265621185303,8.10106468200684,-3.08866763114929,0.52909439802170,0.26464325189590
145,3815877567,0.820373,-0.106589,0.284046,-0.484711,-3.62552523612976,-4.50828742980957,8.12167644500732,-1.94776248931885,0.54539680480957,0.38209024071693
146,3815894234,0.820288,-0.106847,0.284183,-0.484719,-3.60183644294739,-4.51058769226074,8.12215995788574,-1.10981750488281,0.57989722490311,0.50175279378891
147,3815910901,0.820239,-0.107105,0.284321,-0.484662,-3.61870193481445,-4.53745746612549,8.13314533233643,-1.04983258247375,0.66872203350067,0.61653608083725
148,3815927568,0.820173,-0.107436,0.284497,-0.484599,-3.59741687774658,-4.48472213745117,8.13198661804199,-1.56454539299011,0.71960169076920,0.39387211203575
149,3815944235,0.820103,-0.107928,0.284663,-0.484510,-3.58995175361633,-4.53544616699219,8.11119174957275,-2.74029636383057,-0.17560705542564,0.73042297363281
150,3815960902,0.820054,-0.108321,0.284841,-0.484400,-3.58046126365662,-4.56619691848755,8.04833889007568,-2.06588840484619,0.37867096066475,0.72700369358063
151,3815977569,0.819890,-0.108430,0.284973,-0.484575,-3.63508081436157,-4.39204120635986,8.24767112731934,0.08837661147118,1.41175925731659,-0.56935113668442
152,3815994236,0.819778,-0.109125,0.285314,-0.484408,-3.70480823516846,-4.61272859573364,8.04583168029785,-4.55187034606934,0.27938333153725,0.54055607318878
153,3816010903,0.819744,-0.109185,0.285305,-0.484458,-3.45058727264404,-4.78699827194214,8.03652954101562,0.53798192739487,0.25496160984039,0.87760633230209
154,3816027570,0.819881,-0.108590,0.284916,-0.484589,-3.66935110092163,-4.47332572937012,8.11992740631104,6.16692399978638,0.48673096299171,1.14725697040558
155,3816044237,0.819867,-0.108727,0.284923,-0.484577,-3.61549782752991,-4.41355752944946,8.17054939270020,0.05871710926294,0.14613324403763,0.90647178888321
156,3816060904,0.819876,-0.108908,0.284977,-0.484491,-3.59844541549683,-4.64854383468628,8.08977413177490,-0.42703410983086,0.21553085744381,1.23551821708679
157,3816077571,0.819951,-0.108713,0.284766,-0.484531,-3.59074831008911,-4.57286930084229,8.10656166076660,3.00529170036316,0.10904606431723,0.99326050281525
158,3816094238,0.819983,-0.108676,0.284695,-0.484528,-3.59339451789856,-4.53187036514282,8.12687110900879,1.38139533996582,0.23589293658733,1.22494006156921
159,3816110905,0.820014,-0.108533,0.284574,-0.484579,-3.60247611999512,-4.53841686248779,8.11774826049805,2.25181746482849,0.34819182753563,1.08175241947174
160,3816127572,0.820040,-0.108452,0.284473,-0.484611,-3.59639573097229,-4.51226377487183,8.11782646179199,1.79455387592316,0.24976225197315,1.06758844852448
161,3816144239,0.820037,-0.108517,0.284486,-0.484594,-3.59767365455627,-4.55055761337280,8.10817337036133,0.47365564107895,0.43185570836067,1.04981327056885
162,3816160906,0.820055,-0.108407,0.284402,-0.484638,-3.57612133026123,-4.55202770233154,8.12073516845703,1.91433167457581,0.46517789363861,1.03576481342316
163,3816177573,0.820041,-0.108357,0.284430,-0.484656,-3.57958149909973,-4.51498746871948,8.13142204284668,1.13208127021790,0.94549274444580,1.05092740058899
164,3816194240,0.820041,-0.108243,0.284424,-0.484684,-3.58030176162720,-4.50675439834595,8.10075187683105,1.63284814357758,0.94695281982422,1.13836932182312
165,3816210907,0.820055,-0.108205,0.284448,-0.484655,-3.58953094482422,-4.50413513183594,8.14019966125488,1.00761640071869,0.78735995292664,1.38176667690277
166,3816227574,0.820048,-0.108230,0.284461,-0.484654,-3.62008571624756,-4.54906606674194,8.13456344604492,0.73125535249710,0.58615946769714,1.01650404930115
167,3816244241,0.820033,-0.108261,0.284437,-0.484687,-3.63308167457581,-4.56679964065552,8.10345649719238,0.87095981836319,0.39250180125237,0.76232361793518
168,3816260908,0.819998,-0.108253,0.284433,-0.484751,-3.61576819419861,-4.56362819671631,8.10433387756348,1.07664263248444,0.69457793235779,0.61567813158035
169,3816277575,0.819983,-0.108125,0.284396,-0.484825,-3.58428287506104,-4.52452516555786,8.10480690002441,1.89773452281952,0.88152515888214,0.83191329240799
170,3816294242,0.819994,-0.107966,0.284344,-0.484873,-3.55293416976929,-4.51033926010132,8.10306739807129,2.09201979637146,0.83055579662323,1.11379396915436
171,3816310909,0.820012,-0.107828,0.284324,-0.484884,-3.56632041931152,-4.52272891998291,8.11765575408936,1.79368305206299,0.89782762527466,1.33255183696747
172,3816327576,0.820032,-0.107639,0.284281,-0.484917,-3.59279751777649,-4.51046180725098,8.14543724060059,2.20723843574524,0.94957804679871,1.29249382019043
173,3816344243,0.820030,-0.107578,0.284306,-0.484920,-3.61435627937317,-4.50013399124146,8.15294265747070,1.18570148944855,0.92895972728729,1.19440984725952
174,3816360910,0.820020,-0.107530,0.284336,-0.484930,-3.63060450553894,-4.55396127700806,8.14166259765625,1.10374081134796,0.93681019544601,1.10094916820526
175,3816377577,0.820022,-0.107411,0.284290,-0.484980,-3.61292386054993,-4.52477264404297,8.14756202697754,1.83673799037933,0.74693042039871,0.99904900789261
176,3816394244,0.820020,-0.107388,0.284266,-0.485002,-3.62446975708008,-4.51512956619263,8.15339279174805,1.16649210453033,0.54288679361343,0.97289842367172
177,3816410911,0.820004,-0.107438,0.284284,-0.485009,-3.60164475440979,-4.52829790115356,8.14250183105469,0.57941049337387,0.55141586065292,0.90256583690643
178,3816427578,0.819997,-0.107416,0.284245,-0.485047,-3.59445285797119,-4.53697252273560,8.10763072967529,1.24112749099731,0.47471860051155,0.84932994842529
179,3816444245,0.820010,-0.107354,0.284199,-0.485067,-3.59124112129211,-4.49110460281372,8.10506439208984,1.47055292129517,0.51452064514160,1.09268903732300
180,3816460912,0.820001,-0.107328,0.284230,-0.485070,-3.56717944145203,-4.52554416656494,8.11363601684570,0.95890116691589,0.85510563850403,1.10407388210297
181,3816477579,0.820018,-0.107247,0.284233,-0.485057,-3.60766935348511,-4.53631019592285,8.11890792846680,1.35731947422028,0.82705974578857,1.36417090892792
182,3816494246,0.820035,-0.107139,0.284243,-0.485047,-3.60964512825012,-4.54017639160156,8.15171051025391,1.48014509677887,0.95622456073761,1.40809667110443
183,3816510913,0.820035,-0.107059,0.284252,-0.485059,-3.64267015457153,-4.52735996246338,8.14074707031250,1.36331260204315,0.90369284152985,1.17115342617035
184,3816527580,0.820027,-0.107003,0.284249,-0.485086,-3.61882972717285,-4.50218772888184,8.11735439300537,1.28824186325073,0.77985543012619,1.00912749767303
185,3816544247,0.820006,-0.106982,0.284272,-0.485112,-3.60378623008728,-4.49798440933228,8.10113906860352,0.99767869710922,0.83726638555527,0.91646081209183
186,3816560914,0.820003,-0.106926,0.284282,-0.485125,-3.58653712272644,-4.53541707992554,8.11140823364258,1.21606540679932,0.83450007438660,1.11317896842957
187,3816577581,0.820002,-0.106863,0.284278,-0.485142,-3.61518549919128,-4.50690889358521,8.13017368316650,1.31819581985474,0.78108477592468,1.10027003288269
188,3816594248,0.820001,-0.106840,0.284310,-0.485130,-3.59987401962280,-4.51855611801147,8.14612197875977,0.91731876134872,0.83174687623978,1.20629417896271
189,3816610915,0.819989,-0.106751,0.284345,-0.485149,-3.59678626060486,-4.51037836074829,8.14042282104492,1.33206522464752,1.10348486900330,1.12727892398834
190,3816627582,0.819967,-0.106678,0.284394,-0.485174,-3.61756062507629,-4.51749134063721,8.12786960601807,1.19789302349091,1.15862870216370,1.04291057586670
191,3816644249,0.819940,-0.106671,0.284453,-0.485188,-3.63017940521240,-4.53684854507446,8.11062717437744,0.76393717527390,1.00337743759155,0.96462547779083
192,3816660916,0.819923,-0.106628,0.284475,-0.485212,-3.63744616508484,-4.52285718917847,8.11087512969971,1.12023544311523,0.89444673061371,0.98984128236771
193,3816677583,0.819891,-0.106599,0.284518,-0.485247,-3.60777950286865,-4.49245071411133,8.14494609832764,0.98254162073135,1.00085473060608,0.85528492927551
194,3816694250,0.819906,-0.106627,0.284549,-0.485197,-3.63611531257629,-4.53206110000610,8.11554145812988,0.79376316070557,0.86369860172272,0.88938826322556
195,3816710917,0.819932,-0.106592,0.284533,-0.485171,-3.59583687782288,-4.49764585494995,8.10795021057129,1.32552111148834,0.76873952150345,0.94033181667328
196,3816727584,0.819899,-0.106619,0.284606,-0.485179,-3.62790417671204,-4.51258087158203,8.14192295074463,0.45795506238937,0.89444673061371,1.04644513130188
197,3816744251,0.819900,-0.106533,0.284583,-0.485208,-3.61758923530579,-4.52366733551025,8.10531044006348,1.55726492404938,0.77560377120972,1.02776074409485
198,3816760918,0.819860,-0.106517,0.284645,-0.485243,-3.62948560714722,-4.49090528488159,8.12016105651855,0.76931577920914,1.00049591064453,0.98138892650604
199,3816777585,0.819863,-0.106467,0.284643,-0.485250,-3.61661839485168,-4.50712156295776,8.11387252807617,1.21942079067230,0.73423933982849,1.13372075557709
200,3816794252,0.819868,-0.106422,0.284636,-0.485256,-3.62273979187012,-4.51038980484009,8.10599517822266,1.21052026748657,0.68277055025101,1.14025187492371
201,3816810919,0.819893,-0.106374,0.284626,-0.485230,-3.61655497550964,-4.50822877883911,8.12643432617188,1.29289042949677,0.73824751377106,1.16519832611084
202,3816827586,0.819916,-0.106343,0.284617,-0.485203,-3.61429500579834,-4.50373125076294,8.11787033081055,1.18622672557831,0.68407678604126,1.14410650730133
203,3816844253,0.819923,-0.106323,0.284623,-0.485193,-3.60567879676819,-4.51065158843994,8.11291122436523,1.06105732917786,0.72968024015427,1.05890583992004
204,3816860920,0.819895,-0.106240,0.284632,-0.485252,-3.61551833152771,-4.50034856796265,8.14769077301025,1.32452237606049,0.85324865579605,1.08901345729828
205,3816877587,0.819894,-0.106233,0.284649,-0.485246,-3.63046765327454,-4.52106332778931,8.11081504821777,0.85365849733353,0.65740114450455,1.20637083053589
206,3816894254,0.819918,-0.106160,0.284604,-0.485248,-3.61240863800049,-4.50720453262329,8.13843345642090,1.61171734333038,0.65049839019775,1.01970529556274
207,3816910921,0.819954,-0.106237,0.284629,-0.485156,-3.64167428016663,-4.50472068786621,8.13213443756104,0.54551213979721,0.68347489833832,0.91040349006653
208,3816927588,0.819936,-0.106235,0.284667,-0.485164,-3.59877204895020,-4.51345014572144,8.10700607299805,0.77710205316544,0.80594199895859,1.06369543075562
209,3816944255,0.819909,-0.106182,0.284705,-0.485199,-3.61087894439697,-4.48587942123413,8.11583518981934,1.10392010211945,1.01344323158264,0.98999494314194
210,3816960922,0.819901,-0.106163,0.284741,-0.485196,-3.62892413139343,-4.51168155670166,8.10802459716797,0.94450676441193,0.90852081775665,1.02781212329865
211,3816977589,0.819884,-0.106130,0.284737,-0.485233,-3.65696763992310,-4.50525951385498,8.15374660491943,1.13393807411194,0.67532992362976,0.95502066612244
212,3816994256,0.819870,-0.106087,0.284693,-0.485293,-3.66677665710449,-4.49429750442505,8.14768600463867,1.46164000034332,0.59990066289902,0.64846235513687
213,3817010923,0.819837,-0.106011,0.284662,-0.485382,-3.60604882240295,-4.48656797409058,8.14129161834717,1.55303883552551,0.73919522762299,0.67063015699387
214,3817027590,0.819821,-0.105898,0.284640,-0.485447,-3.58570361137390,-4.52961349487305,8.11215496063232,1.80517029762268,0.97033715248108,0.74153894186020
215,3817044257,0.819877,-0.105677,0.284545,-0.485457,-3.60965776443481,-4.50788640975952,8.10015964508057,2.82798790931702,1.02608323097229,0.92729508876801
216,3817060924,0.819899,-0.105530,0.284486,-0.485486,-3.61557388305664,-4.48957252502441,8.12442779541016,2.14272022247314,0.86432623863220,0.95908045768738
217,3817077591,0.819911,-0.105331,0.284376,-0.485574,-3.63513088226318,-4.49415683746338,8.13132762908936,2.58510255813599,0.66404765844345,0.92160904407501
218,3817094258,0.819922,-0.105170,0.284261,-0.485657,-3.62574911117554,-4.43173027038574,8.15184307098389,2.43077325820923,0.56013685464859,0.77715331315994
219,3817110925,0.819964,-0.105232,0.284267,-0.485570,-3.63588094711304,-4.49844360351562,8.11641216278076,0.71318566799164,0.62958580255508,0.90408992767334
220,3817127592,0.820019,-0.105169,0.284190,-0.485535,-3.62854790687561,-4.51583147048950,8.10805702209473,1.81606829166412,0.59591776132584,0.83166986703873
221,3817144259,0.820057,-0.105012,0.284108,-0.485554,-3.60856795310974,-4.49515771865845,8.12391090393066,2.28754687309265,0.75159186124802,1.01884746551514
222,3817160926,0.820107,-0.104883,0.284035,-0.485538,-3.62540221214294,-4.46470689773560,8.13857936859131,2.15906095504761,0.80487918853760,0.94854074716568
223,3817177593,0.820083,-0.104788,0.283990,-0.485627,-3.64131736755371,-4.46272039413452,8.13713550567627,1.67692708969116,0.64657968282700,0.83647221326828
224,3817194260,0.820084,-0.104780,0.284011,-0.485615,-3.61884379386902,-4.47606706619263,8.12458705902100,0.91363042593002,0.77365714311600,1.06589806079865
225,3817210927,0.820070,-0.104757,0.284018,-0.485639,-3.62903833389282,-4.49306678771973,8.12580013275146,1.05040240287781,0.72163784503937,0.96174412965775
226,3817227594,0.820095,-0.104749,0.284031,-0.485591,-3.63355970382690,-4.48859214782715,8.15379619598389,0.96468955278397,0.73334282636642,1.19268107414246
227,3817244261,0.820126,-0.104779,0.284038,-0.485528,-3.64724016189575,-4.48393392562866,8.13914871215820,0.82772564888000,0.66517466306686,1.01757979393005
228,3817260928,0.820110,-0.104732,0.284033,-0.485567,-3.62792611122131,-4.45305347442627,8.12877655029297,1.30222642421722,0.79886007308960,0.81676334142685
229,3817277595,0.820074,-0.104782,0.284075,-0.485594,-3.64058184623718,-4.47185659408569,8.13584327697754,0.47722858190536,0.68613857030869,0.82312816381454
230,3817294262,0.820068,-0.104840,0.284098,-0.485577,-3.61877489089966,-4.49525117874146,8.13164806365967,0.58536547422409,0.64556807279587,0.81809532642365
231,3817310929,0.820074,-0.104829,0.284098,-0.485570,-3.63531041145325,-4.47793722152710,8.12186241149902,1.06324720382690,0.71103417873383,0.93538856506348
232,3817327596,0.820098,-0.104865,0.284107,-0.485516,-3.62208914756775,-4.45308017730713,8.14817237854004,0.80107563734055,0.66699314117432,0.94063925743103
233,3817344263,0.820070,-0.104909,0.284145,-0.485531,-3.62152218818665,-4.45959043502808,8.12954139709473,0.48082724213600,0.62443763017654,0.99939477443695
234,3817360930,0.820047,-0.104952,0.284224,-0.485515,-3.60683727264404,-4.49255800247192,8.11954784393311,0.38696944713593,0.93559354543686,1.01465988159180
235,3817377597,0.820016,-0.104961,0.284278,-0.485534,-3.63750123977661,-4.50032615661621,8.12986660003662,0.68666374683380,0.90716344118118,0.91681939363480
236,3817394264,0.819990,-0.104980,0.284313,-0.485553,-3.62979531288147,-4.48405408859253,8.14983940124512,0.69811254739761,0.75957018136978,0.88165313005447
237,3817410931,0.819968,-0.104943,0.284323,-0.485592,-3.62195944786072,-4.47264862060547,8.15206623077393,1.16524982452393,0.84057044982910,0.84587222337723
238,3817427598,0.819946,-0.104895,0.284308,-0.485649,-3.64144539833069,-4.46201276779175,8.14844512939453,1.28840851783752,0.68275779485703,0.85113567113876
239,3817444265,0.819941,-0.105023,0.284370,-0.485594,-3.63482904434204,-4.46466207504272,8.14759826660156,-0.01770477928221,0.59349751472473,0.93212306499481
240,3817460932,0.819943,-0.105101,0.284402,-0.485554,-3.62217736244202,-4.51707744598389,8.09963798522949,0.35121417045593,0.53104090690613,1.05096602439880
241,3817477599,0.819932,-0.105081,0.284390,-0.485584,-3.63281631469727,-4.48049545288086,8.12604808807373,1.05555069446564,0.54643416404724,1.03188455104828
242,3817494266,0.819939,-0.105143,0.284399,-0.485553,-3.63410067558289,-4.47725534439087,8.12256717681885,0.56732136011124,0.48365738987923,0.96995294094086
243,3817510933,0.819976,-0.105288,0.284414,-0.485451,-3.62856864929199,-4.47898626327515,8.12489891052246,0.12988200783730,0.32252794504166,0.95957982540131
244,3817527600,0.819996,-0.105389,0.284442,-0.485379,-3.60964345932007,-4.50254964828491,8.11610221862793,0.21486492455006,0.41226199269295,1.16928374767303
245,3817544267,0.819976,-0.105383,0.284446,-0.485412,-3.60208892822266,-4.47875642776489,8.13147163391113,0.90547293424606,0.58267605304718,1.01384019851685
246,3817560934,0.819971,-0.105480,0.284513,-0.485361,-3.63213324546814,-4.50665807723999,8.11886501312256,0.04867693781853,0.60831439495087,1.19237363338470
247,3817577601,0.819957,-0.105450,0.284491,-0.485403,-3.63115906715393,-4.50973463058472,8.10600280761719,1.15266108512878,0.51877248287201,0.99519431591034
248,3817594268,0.819946,-0.105345,0.284424,-0.485483,-3.63160753250122,-4.46562623977661,8.12762165069580,1.85269486904144,0.59014225006104,0.81669938564301
249,3817610935,0.819963,-0.105361,0.284402,-0.485464,-3.64899086952209,-4.49067354202271,8.12548446655273,1.06945824623108,0.58875912427902,0.75951904058456
250,3817627602,0.819972,-0.105258,0.284316,-0.485521,-3.61581015586853,-4.49391841888428,8.13517379760742,1.94606590270996,0.51286870241165,0.81881242990494
251,3817644269,0.819943,-0.105241,0.284322,-0.485570,-3.62192511558533,-4.47321128845215,8.14278793334961,1.09416162967682,0.79204708337784,0.67522758245468
252,3817660936,0.819918,-0.105256,0.284330,-0.485606,-3.60997343063354,-4.50675058364868,8.09852695465088,0.86355775594711,0.64837265014648,0.75221937894821
253,3817677603,0.819920,-0.105127,0.284257,-0.485672,-3.60447621345520,-4.48416185379028,8.12705326080322,2.14054322242737,0.78394079208374,0.63962596654892
254,3817694270,0.819885,-0.105122,0.284264,-0.485729,-3.65702629089355,-4.49351215362549,8.11321353912354,1.03162825107574,0.77121114730835,0.59991347789764
255,3817710937,0.819909,-0.105126,0.284196,-0.485728,-3.64104938507080,-4.49674129486084,8.12612342834473,1.34419286251068,0.37617370486259,0.64081686735153
256,3817727604,0.819876,-0.105093,0.284129,-0.485830,-3.64019656181335,-4.46037626266479,8.16767692565918,1.42210662364960,0.35299420356750,0.58642834424973
257,3817744271,0.819878,-0.105091,0.284065,-0.485863,-3.63490509986877,-4.43844747543335,8.14871311187744,1.31601893901825,0.36572372913361,0.61147761344910
258,3817760938,0.819839,-0.105197,0.284092,-0.485891,-3.58733797073364,-4.46871709823608,8.12083911895752,0.17429441213608,0.36982175707817,0.76912373304367
259,3817777605,0.819817,-0.105301,0.284152,-0.485871,-3.59191584587097,-4.52674388885498,8.09277725219727,0.03187499940395,0.55055773258209,1.04622733592987
260,3817794272,0.819847,-0.105152,0.284033,-0.485921,-3.61006855964661,-4.45230007171631,8.15906238555908,2.29435992240906,0.40106925368309,1.04442179203033
261,3817810939,0.819859,-0.105176,0.284028,-0.485899,-3.62626004219055,-4.50494670867920,8.12376689910889,0.94226557016373,0.63776898384094,0.80099868774414
262,3817827606,0.819885,-0.105116,0.283939,-0.485920,-3.63584923744202,-4.44732809066772,8.18745708465576,1.68972098827362,0.33679416775703,0.91420686244965
263,3817844273,0.819896,-0.105251,0.283959,-0.485859,-3.62422156333923,-4.47857666015625,8.13234615325928,0.12329952418804,0.34337663650513,0.88790261745453
264,3817860940,0.819951,-0.105440,0.283960,-0.485726,-3.63473916053772,-4.48412752151489,8.14939689636230,0.00286862207577,0.19391374289989,0.81506007909775
265,3817877607,0.819926,-0.105549,0.283970,-0.485739,-3.62634706497192,-4.50036907196045,8.12950229644775,0.18751056492329,0.21957765519619,0.90636932849884
266,3817894274,0.819930,-0.105722,0.283997,-0.485677,-3.60506629943848,-4.48991489410400,8.15040588378906,-0.18458430469036,0.20568276941776,0.91282373666763
267,3817910941,0.819920,-0.105760,0.283982,-0.485697,-3.60118627548218,-4.49982976913452,8.14517784118652,0.65621018409729,0.24088746309280,1.12314260005951
268,3817927608,0.819927,-0.105711,0.283936,-0.485721,-3.61502790451050,-4.47689056396484,8.12454032897949,1.49739527702332,0.60734117031097,0.80810630321503
269,3817944275,0.819941,-0.105783,0.283982,-0.485656,-3.60916352272034,-4.48632097244263,8.11111259460449,0.39051687717438,0.69687032699585,1.04529273509979
270,3817960942,0.819983,-0.105746,0.283967,-0.485601,-3.60608386993408,-4.49275112152100,8.13914299011230,1.28649997711182,0.72131752967834,1.16568505764008
271,3817977609,0.819968,-0.105763,0.283983,-0.485614,-3.62802410125732,-4.49094724655151,8.16646099090576,0.71962732076645,0.56884527206421,1.07178902626038
272,3817994276,0.819985,-0.105850,0.284004,-0.485554,-3.64781856536865,-4.48803043365479,8.13809776306152,0.34479814767838,0.44197270274162,1.09837496280670
273,3818010943,0.819964,-0.106032,0.284061,-0.485516,-3.62602448463440,-4.48545598983765,8.14224147796631,-0.36858594417572,0.31835302710533,0.86280214786530
274,3818027610,0.819968,-0.106243,0.284157,-0.485406,-3.60617375373840,-4.50666904449463,8.12016296386719,-0.62534040212631,0.54053038358688,0.96865946054459
275,3818044277,0.819967,-0.106235,0.284156,-0.485411,-3.59513020515442,-4.50660896301270,8.11931037902832,1.01571011543274,0.66539233922958,0.94067770242691
276,3818060944,0.819958,-0.106168,0.284158,-0.485439,-3.60635375976562,-4.48938465118408,8.13303279876709,1.34498679637909,0.85538727045059,1.00058567523956
277,3818077611,0.819984,-0.106161,0.284175,-0.485387,-3.62402987480164,-4.50283861160278,8.14503002166748,1.05435967445374,0.89134752750397,0.95356082916260
278,3818094278,0.819972,-0.106110,0.284208,-0.485399,-3.61153626441956,-4.49318933486938,8.11238479614258,1.09161317348480,0.94190698862076,1.12738144397736
279,3818110945,0.819977,-0.106103,0.284232,-0.485379,-3.64534854888916,-4.48384237289429,8.11866188049316,0.95073062181473,0.84857434034348,0.98375821113586
280,3818127612,0.819938,-0.106240,0.284326,-0.485359,-3.64084553718567,-4.50829982757568,8.13287258148193,-0.28731685876846,0.64561939239502,0.96201306581497
281,3818144279,0.819970,-0.106312,0.284349,-0.485276,-3.62134432792664,-4.54402351379395,8.13308620452881,0.61211794614792,0.72074139118195,0.82626575231552
282,3818160946,0.819958,-0.106304,0.284347,-0.485299,-3.61433529853821,-4.49032974243164,8.14633846282959,1.00017583370209,0.63021332025528,0.91073650121689
283,3818177613,0.819967,-0.106347,0.284380,-0.485255,-3.60575032234192,-4.49316072463989,8.14484691619873,0.63044381141663,0.74228167533875,0.96751976013184
284,3818194280,0.819959,-0.106222,0.284339,-0.485320,-3.61708450317383,-4.50046777725220,8.10979843139648,1.84198868274689,0.77685886621475,0.98287457227707
285,3818210947,0.819961,-0.106245,0.284348,-0.485306,-3.62123107910156,-4.49101543426514,8.14336109161377,0.73806846141815,0.55173599720001,1.08527421951294
286,3818227614,0.819952,-0.106298,0.284377,-0.485293,-3.62447547912598,-4.50617122650146,8.13303756713867,0.43711912631989,0.50439089536667,1.14132750034332
287,3818244281,0.819959,-0.106370,0.284400,-0.485251,-3.62968516349792,-4.51098155975342,8.15750980377197,0.40350246429443,0.47339954972267,1.11031055450439
288,3818260948,0.819983,-0.106353,0.284379,-0.485227,-3.62634253501892,-4.51019001007080,8.13624382019043,1.16694021224976,0.59165334701538,1.04705989360809
289,3818277615,0.820031,-0.106274,0.284317,-0.485200,-3.62050914764404,-4.48777294158936,8.13352584838867,1.77204024791718,0.64335262775421,0.99332457780838
290,3818294282,0.820041,-0.106226,0.284284,-0.485213,-3.61336994171143,-4.47279214859009,8.11621475219727,1.35857462882996,0.57286649942398,1.03780102729797
291,3818310949,0.820078,-0.106264,0.284279,-0.485145,-3.61130118370056,-4.49733734130859,8.11990261077881,0.77780652046204,0.49263471364975,1.14016222953796
292,3818327616,0.820092,-0.106254,0.284254,-0.485139,-3.61108183860779,-4.51638793945312,8.12644863128662,1.08751535415649,0.48860067129135,1.06607747077942
293,3818344283,0.820110,-0.106255,0.284235,-0.485119,-3.61508250236511,-4.51649999618530,8.13329505920410,1.01175296306610,0.48069912195206,1.10174310207367
294,3818360950,0.820112,-0.106183,0.284187,-0.485159,-3.63921046257019,-4.49839305877686,8.14731311798096,1.56999421119690,0.57472336292267,0.93820589780807
295,3818377617,0.820111,-0.106214,0.284213,-0.485139,-3.61241197586060,-4.46807527542114,8.12027072906494,0.69775396585464,0.71171289682388,0.94533920288086
296,3818394284,0.820091,-0.106267,0.284277,-0.485123,-3.62759757041931,-4.54003858566284,8.12621688842773,0.27456814050674,0.68320590257645,1.22791123390198
297,3818410951,0.820077,-0.106105,0.284191,-0.485233,-3.59831643104553,-4.46683549880981,8.13635158538818,2.17586278915405,0.56739819049835,0.97335946559906
298,3818427618,0.820087,-0.106255,0.284274,-0.485135,-3.62977647781372,-4.48026418685913,8.14574432373047,-0.21672828495502,0.66130715608597,1.03458654880524
299,3818444285,0.820094,-0.106242,0.284292,-0.485115,-3.58413863182068,-4.52242326736450,8.10478973388672,0.95283085107803,0.75768768787384,1.12296330928802
300,3818460952,0.820088,-0.106189,0.284307,-0.485128,-3.61124229431152,-4.49354553222656,8.13424587249756,1.24341964721680,0.92835772037506,0.96718668937683
301,3818477619,0.820077,-0.106261,0.284361,-0.485099,-3.65291380882263,-4.51578664779663,8.12418460845947,0.31542038917542,0.69909858703613,0.97928875684738
302,3818494286,0.820090,-0.106305,0.284361,-0.485067,-3.65982437133789,-4.52144622802734,8.15065097808838,0.80443090200424,0.60825037956238,0.78455543518066
303,3818510953,0.820048,-0.106316,0.284358,-0.485138,-3.64221668243408,-4.50699901580811,8.12841320037842,0.99976605176926,0.69318211078644,0.44838875532150
304,3818527620,0.820011,-0.106358,0.284370,-0.485184,-3.60922956466675,-4.50348949432373,8.12681102752686,0.69863760471344,0.59536713361740,0.62304174900055
305,3818544287,0.820024,-0.106425,0.284412,-0.485122,-3.59079885482788,-4.49352979660034,8.09279346466064,0.47040280699730,0.74288350343704,0.95546901226044
306,3818560954,0.820032,-0.106473,0.284455,-0.485073,-3.60078430175781,-4.49151706695557,8.12717247009277,0.43836137652397,0.63897281885147,1.24138343334198
307,3818577621,0.820027,-0.106407,0.284432,-0.485111,-3.60825204849243,-4.48633813858032,8.14063358306885,1.38814413547516,0.64243054389954,1.05744588375092
308,3818594288,0.820015,-0.106430,0.284461,-0.485109,-3.63327407836914,-4.50406599044800,8.12898540496826,0.65122848749161,0.65921962261200,1.06328558921814
309,3818610955,0.820016,-0.106427,0.284460,-0.485108,-3.62889933586121,-4.50547742843628,8.13132286071777,0.93021476268768,0.56406849622726,1.09952759742737
310,3818627622,0.820029,-0.106420,0.284433,-0.485104,-3.62651348114014,-4.51659250259399,8.13585948944092,1.10416352748871,0.48685899376869,1.00637423992157
311,3818644289,0.820003,-0.106388,0.284436,-0.485153,-3.63082480430603,-4.51429939270020,8.13392353057861,1.08097124099731,0.68652284145355,0.94778513908386
312,3818660956,0.820000,-0.106317,0.284408,-0.485190,-3.61644792556763,-4.52181339263916,8.12186622619629,1.48434531688690,0.69598662853241,0.95308697223663
313,3818677623,0.819974,-0.106243,0.284355,-0.485281,-3.63424682617188,-4.49665212631226,8.12320423126221,1.60507094860077,0.55797260999680,0.71818006038666
314,3818694290,0.819960,-0.106288,0.284347,-0.485299,-3.61506462097168,-4.49117565155029,8.13364505767822,0.69991821050644,0.40893232822418,0.85629653930664
315,3818710957,0.819972,-0.106305,0.284328,-0.485287,-3.61688709259033,-4.49691390991211,8.12035751342773,0.99242812395096,0.52466338872910,0.85577160120010
316,3818727624,0.819951,-0.106343,0.284357,-0.485297,-3.59103226661682,-4.50147676467896,8.11086177825928,0.51183140277863,0.53954434394836,1.10727548599243
317,3818744291,0.819931,-0.106339,0.284392,-0.485311,-3.62620043754578,-4.53544855117798,8.12923622131348,0.69775396585464,0.66998976469040,1.25543200969696
318,3818760958,0.819957,-0.106240,0.284332,-0.485323,-3.64081549644470,-4.48800468444824,8.13183116912842,1.84580469131470,0.68137466907501,0.95125561952591
319,3818777625,0.819962,-0.106355,0.284361,-0.485274,-3.63248586654663,-4.48661804199219,8.13023662567139,0.22242067754269,0.48268407583237,0.84031420946121
320,3818794292,0.819937,-0.106428,0.284394,-0.485280,-3.60305452346802,-4.52483606338501,8.10724163055420,0.38648283481598,0.56847381591797,0.83435928821564
321,3818810959,0.819928,-0.106387,0.284354,-0.485328,-3.58714509010315,-4.47580099105835,8.10500335693359,1.37793779373169,0.55610299110413,0.78493964672089
322,3818827626,0.819935,-0.106426,0.284377,-0.485293,-3.61533689498901,-4.48735618591309,8.12473964691162,0.71702754497528,0.72962892055511,0.88074386119843
323,3818844293,0.819931,-0.106465,0.284420,-0.485266,-3.60884737968445,-4.50495243072510,8.11552333831787,0.54735618829727,0.72902703285217,1.05721545219421
324,3818860960,0.819976,-0.106429,0.284404,-0.485208,-3.58693885803223,-4.51006555557251,8.10665893554688,1.32785189151764,0.76228511333466,1.07811522483826
325,3818877627,0.819980,-0.106350,0.284386,-0.485230,-3.61398100852966,-4.49386739730835,8.14173603057861,1.54253745079041,0.83923834562302,0.93178987503052
326,3818894294,0.819993,-0.106382,0.284388,-0.485199,-3.65975499153137,-4.49157619476318,8.14352226257324,0.77976584434509,0.55520641803741,0.99607789516449
327,3818910961,0.819998,-0.106384,0.284365,-0.485204,-3.63861441612244,-4.49881601333618,8.14780616760254,1.12393665313721,0.57979470491409,0.75976240634918
328,3818927628,0.819970,-0.106457,0.284383,-0.485224,-3.62047290802002,-4.51560401916504,8.13427829742432,0.41976651549339,0.45498397946358,0.82015699148178
329,3818944295,0.819961,-0.106473,0.284376,-0.485239,-3.60981941223145,-4.53595304489136,8.13521957397461,0.92174994945526,0.56273663043976,0.80609565973282
330,3818960962,0.819949,-0.106483,0.284368,-0.485263,-3.61236763000488,-4.49079513549805,8.11517143249512,0.96876204013824,0.58955311775208,0.76999467611313
331,3818977629,0.819927,-0.106557,0.284410,-0.485259,-3.60959362983704,-4.49560213088989,8.11992740631104,0.30331838130951,0.56636077165604,0.97438389062881
332,3818994296,0.819915,-0.106542,0.284399,-0.485289,-3.61724901199341,-4.53056669235229,8.10942173004150,1.02147293090820,0.53348690271378,1.01822018623352
333,3819010963,0.819915,-0.106465,0.284367,-0.485324,-3.61049938201904,-4.49490308761597,8.13590335845947,1.50785803794861,0.66052585840225,1.03261435031891
334,3819027630,0.819897,-0.106495,0.284407,-0.485325,-3.60902690887451,-4.49782848358154,8.12146854400635,0.59260106086731,0.72519797086716,0.99465644359589
335,3819044297,0.819905,-0.106509,0.284411,-0.485306,-3.62581729888916,-4.51791954040527,8.12532329559326,0.82781523466110,0.56400448083878,1.09398233890533
336,3819060964,0.819914,-0.106474,0.284384,-0.485314,-3.62499570846558,-4.47477531433105,8.13873767852783,1.26557469367981,0.56910139322281,1.01801526546478
337,3819077631,0.819902,-0.106625,0.284452,-0.485261,-3.62350964546204,-4.50888109207153,8.15622329711914,-0.21216918528080,0.51705634593964,0.93806511163712
338,3819094298,0.819943,-0.106675,0.284438,-0.485189,-3.62641716003418,-4.54063892364502,8.08929347991943,0.81691700220108,0.49091857671738,0.95899069309235
339,3819110965,0.819946,-0.106711,0.284436,-0.485177,-3.60749840736389,-4.49495792388916,8.11887359619141,0.74568814039230,0.49031671881676,0.97182267904282
340,3819127632,0.819959,-0.106651,0.284391,-0.485195,-3.60883831977844,-4.53055953979492,8.13631057739258,1.56186223030090,0.63798666000366,0.84130030870438
341,3819144299,0.819937,-0.106587,0.284346,-0.485273,-3.60936474800110,-4.47979688644409,8.12791442871094,1.51700162887573,0.58338046073914,0.74731451272964
342,3819160966,0.819931,-0.106695,0.284392,-0.485233,-3.60842251777649,-4.53965616226196,8.12101078033447,0.18587134778500,0.59570014476776,0.83886706829071
343,3819177633,0.819939,-0.106695,0.284349,-0.485244,-3.62238883972168,-4.53549814224243,8.11938762664795,1.11874997615814,0.36724767088890,0.93009960651398
344,3819194300,0.819965,-0.106706,0.284329,-0.485209,-3.60366225242615,-4.47361803054810,8.12407016754150,1.01942384243011,0.51728689670563,0.99270981550217
345,3819210967,0.819982,-0.106808,0.284381,-0.485128,-3.60313439369202,-4.51754522323608,8.11248874664307,0.17540857195854,0.62683242559433,1.07227575778961
346,3819227634,0.820009,-0.106690,0.284327,-0.485139,-3.58767080307007,-4.50721359252930,8.13605880737305,1.91737973690033,0.75791817903519,1.03486835956573
347,3819244301,0.819958,-0.106622,0.284345,-0.485231,-3.61267757415771,-4.49622726440430,8.12681102752686,1.17000091075897,0.81728851795197,0.99244087934494
348,3819260968,0.819901,-0.106610,0.284366,-0.485317,-3.65389227867126,-4.53982877731323,8.14833641052246,0.90397471189499,0.74105226993561,0.72318738698959
349,3819277635,0.819884,-0.106567,0.284308,-0.485388,-3.66603708267212,-4.53016662597656,8.15077114105225,1.52536451816559,0.53268021345139,0.54961019754410
350,3819294302,0.819901,-0.106616,0.284293,-0.485359,-3.64162874221802,-4.48638153076172,8.12928581237793,0.98410403728485,0.67946648597717,0.43891203403473
351,3819310969,0.819841,-0.106706,0.284398,-0.485378,-3.59730982780457,-4.50296831130981,8.08657360076904,0.00548111787066,0.93559354543686,0.76543563604355
352,3819327636,0.819898,-0.106659,0.284375,-0.485306,-3.58055400848389,-4.52846860885620,8.09968852996826,1.38845157623291,0.72029316425323,1.21835768222809
353,3819344303,0.819923,-0.106493,0.284297,-0.485346,-3.59524011611938,-4.47339391708374,8.12113952636719,2.17252016067505,0.63095599412918,1.27415490150452
354,3819360970,0.819935,-0.106476,0.284291,-0.485333,-3.61042022705078,-4.46805906295776,8.14913177490234,1.02444398403168,0.57555580139160,1.18611145019531
355,3819377637,0.819956,-0.106524,0.284319,-0.485270,-3.61833500862122,-4.53165102005005,8.14805793762207,0.58480197191238,0.65148460865021,1.10723710060120
356,3819394304,0.819978,-0.106558,0.284321,-0.485225,-3.63607358932495,-4.51626062393188,8.13960456848145,0.77870291471481,0.55697375535965,1.03664839267731
357,3819410971,0.819974,-0.106560,0.284321,-0.485231,-3.63010478019714,-4.49316644668579,8.14747428894043,0.91187614202499,0.58119058609009,1.01600468158722
358,3819427638,0.819995,-0.106691,0.284375,-0.485136,-3.63146638870239,-4.50688123703003,8.12465190887451,0.08917060494423,0.64651578664780,0.87574934959412
359,3819444305,0.819974,-0.106737,0.284399,-0.485146,-3.60770463943481,-4.53243589401245,8.12232303619385,0.64932024478912,0.68827718496323,0.71605420112610
360,3819460972,0.819968,-0.106789,0.284415,-0.485136,-3.61544370651245,-4.51619243621826,8.11573219299316,0.68861025571823,0.67183393239975,0.69388645887375
361,3819477639,0.819941,-0.106696,0.284395,-0.485214,-3.60455322265625,-4.48177862167358,8.10735797882080,1.60375177860260,0.84209430217743,0.77948397397995
362,3819494306,0.819933,-0.106679,0.284448,-0.485200,-3.57767033576965,-4.49279069900513,8.09203910827637,0.93601620197296,1.09708166122437,0.89536875486374
363,3819510973,0.819923,-0.106645,0.284496,-0.485197,-3.62293386459351,-4.54955577850342,8.10589313507080,0.90955829620361,0.94761872291565,1.20936787128448
364,3819527640,0.819917,-0.106561,0.284486,-0.485231,-3.65031433105469,-4.49639987945557,8.15823745727539,1.47006630897522,0.82000327110291,1.03899180889130
365,3819544307,0.819884,-0.106643,0.284547,-0.485232,-3.65950608253479,-4.48009395599365,8.15862083435059,0.25999447703362,0.74512463808060,0.76875233650208
366,3819560974,0.819849,-0.106796,0.284636,-0.485207,-3.62294816970825,-4.52849292755127,8.10067939758301,-0.26998987793922,0.66890126466751,0.75860977172852
367,3819577641,0.819826,-0.106775,0.284627,-0.485255,-3.61112284660339,-4.52786827087402,8.11226177215576,1.09423863887787,0.62187635898590,0.85568195581436
368,3819594308,0.819832,-0.106726,0.284607,-0.485268,-3.59744977951050,-4.48288345336914,8.11586284637451,1.33780264854431,0.67675161361694,0.98350203037262
369,3819610975,0.819842,-0.106733,0.284625,-0.485237,-3.60295391082764,-4.50624132156372,8.13325405120850,0.82563805580139,0.69018542766571,1.13332343101501
370,3819627642,0.819874,-0.106721,0.284644,-0.485175,-3.61312747001648,-4.51315355300903,8.11645221710205,0.91838169097900,0.72126638889313,1.35844624042511
371,3819644309,0.819889,-0.106701,0.284673,-0.485138,-3.61949324607849,-4.49249267578125,8.13579845428467,0.89693105220795,0.78351813554764,1.31580126285553
372,3819660976,0.819907,-0.106735,0.284718,-0.485074,-3.64123558998108,-4.51533079147339,8.10266208648682,0.56944715976715,0.76022338867188,1.21682095527649
373,3819677643,0.819889,-0.106763,0.284745,-0.485082,-3.65155601501465,-4.51335430145264,8.14193630218506,0.64917951822281,0.64956367015839,0.97526758909225
374,3819694310,0.819877,-0.106756,0.284778,-0.485084,-3.62595057487488,-4.52263975143433,8.13235473632812,0.84512943029404,0.81486797332764,1.04229593276978
375,3819710977,0.819851,-0.106730,0.284791,-0.485126,-3.62377834320068,-4.51461982727051,8.12491130828857,1.09508383274078,0.82850682735443,0.77997076511383
376,3819727644,0.819830,-0.106720,0.284827,-0.485142,-3.61738395690918,-4.51804113388062,8.11832427978516,0.87713259458542,0.87993717193604,0.92413187026978
377,3819744311,0.819812,-0.106676,0.284812,-0.485191,-3.61367535591125,-4.50755357742310,8.11716461181641,1.30440366268158,0.71200746297836,0.78532385826111
378,3819760978,0.819786,-0.106700,0.284842,-0.485212,-3.62456703186035,-4.51190757751465,8.14280319213867,0.71599018573761,0.74833905696869,0.80686408281326
379,3819777645,0.819771,-0.106714,0.284858,-0.485225,-3.63399028778076,-4.52474451065063,8.12505435943604,0.80727386474609,0.67110395431519,0.90642064809799
380,3819794312,0.819770,-0.106683,0.284834,-0.485249,-3.62561583518982,-4.50107288360596,8.11820507049561,1.22838509082794,0.57633692026138,0.93915367126465
381,3819810979,0.819774,-0.106646,0.284837,-0.485248,-3.61279678344727,-4.50213003158569,8.12203788757324,1.12264311313629,0.71705323457718,1.14109706878662
382,3819827646,0.819789,-0.106618,0.284833,-0.485230,-3.61969518661499,-4.51506328582764,8.12644958496094,1.07248055934906,0.61165696382523,1.24158847332001
383,3819844313,0.819825,-0.106551,0.284796,-0.485207,-3.63884401321411,-4.49820756912231,8.09991931915283,1.40732812881470,0.51540434360504,1.40234649181366
384,3819860980,0.819850,-0.106546,0.284784,-0.485172,-3.62969827651978,-4.50806379318237,8.11873722076416,0.94505733251572,0.46352583169937,1.32061648368835
385,3819877647,0.819867,-0.106560,0.284792,-0.485136,-3.64135885238647,-4.52467298507690,8.12263965606689,0.76561480760574,0.52331870794296,1.27519226074219
386,3819894314,0.819889,-0.106536,0.284746,-0.485131,-3.64096450805664,-4.50710201263428,8.13629150390625,1.22034275531769,0.36563405394554,1.15816771984100
387,3819910981,0.819903,-0.106635,0.284767,-0.485074,-3.62260150909424,-4.48811340332031,8.13105678558350,0.24625329673290,0.36893811821938,1.11025917530060
388,3819927648,0.819884,-0.106819,0.284860,-0.485009,-3.62876009941101,-4.52294254302979,8.09385108947754,-0.55768454074860,0.48833170533180,1.04869925975800
389,3819944315,0.819872,-0.106911,0.284897,-0.484989,-3.62232899665833,-4.54198932647705,8.09581565856934,0.23593135178089,0.49501663446426,0.96567541360855
390,3819960982,0.819866,-0.106961,0.284923,-0.484973,-3.62520289421082,-4.49383926391602,8.09713554382324,0.51599347591400,0.56575894355774,1.03403604030609
391,3819977649,0.819858,-0.107091,0.284997,-0.484914,-3.61297106742859,-4.50000095367432,8.12165832519531,-0.16679629683495,0.54432117938995,1.14314603805542
392,3819994316,0.819845,-0.107195,0.285087,-0.484859,-3.60226416587830,-4.51663589477539,8.11358165740967,-0.08030222356319,0.73215186595917,1.17106389999390
393,3820010983,0.819829,-0.107287,0.285178,-0.484813,-3.60659551620483,-4.51358222961426,8.13057518005371,-0.00226032081991,0.79442906379700,1.13291382789612
394,3820027650,0.819810,-0.107323,0.285235,-0.484804,-3.63599181175232,-4.55090284347534,8.11495876312256,0.50428837537766,0.81374108791351,1.00090587139130
395,3820044317,0.819805,-0.107268,0.285197,-0.484847,-3.66744995117188,-4.53728675842285,8.13403224945068,1.44199502468109,0.60072034597397,0.85951101779938
396,3820060984,0.819772,-0.107334,0.285202,-0.484884,-3.64783501625061,-4.49873495101929,8.13226795196533,0.58635157346725,0.48456671833992,0.59762108325958
397,3820077651,0.819765,-0.107443,0.285223,-0.484860,-3.61936759948730,-4.52723693847656,8.08887100219727,0.31536915898323,0.49290359020233,0.67490738630295
398,3820094318,0.819743,-0.107403,0.285210,-0.484914,-3.60096287727356,-4.54429244995117,8.10044670104980,1.20834314823151,0.63116097450256,0.91329771280289
399,3820110985,0.819754,-0.107351,0.285181,-0.484924,-3.60289001464844,-4.51585626602173,8.11589145660400,1.36523354053497,0.61270689964294,1.04885268211365
400,3820127652,0.819752,-0.107366,0.285198,-0.484914,-3.61143660545349,-4.51404142379761,8.12193679809570,0.74439471960068,0.60616296529770,1.10883784294128
401,3820144319,0.819764,-0.107388,0.285207,-0.484882,-3.62470483779907,-4.51499938964844,8.12026119232178,0.77002024650574,0.57929521799088,1.11428046226501
402,3820160986,0.819763,-0.107462,0.285238,-0.484850,-3.63179945945740,-4.51458168029785,8.10343647003174,0.34441399574280,0.49499106407166,1.09942519664764
403,3820177653,0.819754,-0.107483,0.285236,-0.484862,-3.63749074935913,-4.53352499008179,8.12288951873779,0.82997959852219,0.53463953733444,0.89196228981018
404,3820194320,0.819745,-0.107513,0.285228,-0.484876,-3.63201999664307,-4.52570199966431,8.12873363494873,0.80364966392517,0.46528032422066,0.86642646789551
405,3820210987,0.819727,-0.107532,0.285241,-0.484894,-3.60945701599121,-4.53472375869751,8.11850929260254,0.79880893230438,0.64883369207382,0.85693693161011
406,3820227654,0.819725,-0.107391,0.285172,-0.484969,-3.61164855957031,-4.54245328903198,8.09488105773926,2.09582328796387,0.72486501932144,0.83327072858810
407,3820244321,0.819710,-0.107357,0.285156,-0.485012,-3.64700484275818,-4.49787378311157,8.11514472961426,1.24330437183380,0.66934949159622,0.80267643928528
408,3820260988,0.819684,-0.107396,0.285204,-0.485019,-3.60690617561340,-4.49972581863403,8.09392166137695,0.54257941246033,0.78408157825470,0.87340581417084
409,3820277655,0.819682,-0.107406,0.285228,-0.485006,-3.61760592460632,-4.54683685302734,8.11386775970459,0.75931406021118,0.68537026643753,1.10745477676392
410,3820294322,0.819695,-0.107256,0.285164,-0.485055,-3.62772870063782,-4.52506923675537,8.12979984283447,2.09104633331299,0.73948985338211,1.05173432826996
411,3820310989,0.819692,-0.107213,0.285145,-0.485080,-3.65348172187805,-4.50387811660767,8.13866329193115,1.27980268001556,0.64729696512222,0.96183377504349
412,3820327656,0.819683,-0.107282,0.285181,-0.485059,-3.63364744186401,-4.53038883209229,8.10530948638916,0.45284533500671,0.65441721677780,0.84319567680359
413,3820344323,0.819703,-0.107260,0.285154,-0.485046,-3.62426328659058,-4.52394008636475,8.08643627166748,1.31110131740570,0.68271934986115,0.80259960889816
414,3820360990,0.819691,-0.107228,0.285131,-0.485086,-3.63037395477295,-4.50674676895142,8.11163043975830,1.25294768810272,0.62201720476151,0.81222987174988
415,3820377657,0.819669,-0.107229,0.285169,-0.485102,-3.61363887786865,-4.52361488342285,8.10708904266357,0.75066989660263,0.78007322549820,1.02966892719269
416,3820394324,0.819644,-0.107135,0.285150,-0.485176,-3.62586379051208,-4.52278709411621,8.11044216156006,1.52846336364746,0.74837744235992,0.97875088453293
417,3820410991,0.819669,-0.107155,0.285179,-0.485112,-3.62474942207336,-4.51484060287476,8.12898254394531,0.76993060112000,0.78542619943619,1.10777485370636
418,3820427658,0.819658,-0.107123,0.285191,-0.485130,-3.62457728385925,-4.51861381530762,8.12453651428223,1.09466123580933,0.79583781957626,0.96983778476715
419,3820444325,0.819638,-0.107120,0.285196,-0.485162,-3.63258004188538,-4.51043558120728,8.10336685180664,0.97889184951782,0.68987804651260,0.79850155115128
420,3820460992,0.819607,-0.107150,0.285230,-0.485189,-3.63459038734436,-4.54295730590820,8.10861206054688,0.66832494735718,0.75398653745651,0.75163018703461
421,3820477659,0.819588,-0.107129,0.285227,-0.485227,-3.62107658386230,-4.52936410903931,8.10966587066650,1.11481833457947,0.70447731018066,0.80152380466461
422,3820494326,0.819561,-0.107139,0.285257,-0.485253,-3.63105630874634,-4.50356292724609,8.10982990264893,0.80270206928253,0.79878324270248,0.81021940708160
423,3820510993,0.819536,-0.107186,0.285299,-0.485259,-3.62477827072144,-4.52596616744995,8.11303615570068,0.51204901933670,0.71573400497437,0.86162400245667
424,3820527660,0.819520,-0.107192,0.285322,-0.485272,-3.63220596313477,-4.52219057083130,8.11866664886475,0.83156746625900,0.73607057332993,0.91631984710693
425,3820544327,0.819506,-0.107214,0.285341,-0.485279,-3.64315533638000,-4.51180219650269,8.13870620727539,0.73729991912842,0.65368729829788,0.92766624689102
426,3820560994,0.819490,-0.107264,0.285370,-0.485278,-3.62828087806702,-4.51752090454102,8.09928035736084,0.54001814126968,0.61337292194366,0.91265726089478
427,3820577661,0.819481,-0.107341,0.285412,-0.485252,-3.62847566604614,-4.50669336318970,8.10711002349854,0.29051205515862,0.56418377161026,1.03694307804108
428,3820594328,0.819471,-0.107409,0.285468,-0.485220,-3.62109112739563,-4.53651571273804,8.10064983367920,0.28325083851814,0.67084783315659,1.09831094741821
429,3820610995,0.819468,-0.107359,0.285461,-0.485240,-3.62932920455933,-4.54569673538208,8.11759662628174,1.27163231372833,0.73499488830566,1.00360810756683
430,3820627662,0.819476,-0.107340,0.285438,-0.485245,-3.64599490165710,-4.53140783309937,8.13646602630615,1.12667703628540,0.50901401042938,1.06158232688904
431,3820644329,0.819479,-0.107300,0.285407,-0.485267,-3.61587929725647,-4.49853944778442,8.11431407928467,1.29858946800232,0.55840808153152,0.97770082950592
432,3820660996,0.819467,-0.107397,0.285455,-0.485237,-3.63162469863892,-4.52176761627197,8.10100555419922,0.15518733859062,0.53095120191574,1.01522338390350
433,3820677663,0.819469,-0.107424,0.285463,-0.485223,-3.63392949104309,-4.54731655120850,8.07083511352539,0.71785992383957,0.53228318691254,1.07315933704376
434,3820694330,0.819466,-0.107365,0.285443,-0.485253,-3.62536358833313,-4.51620531082153,8.12213325500488,1.39047479629517,0.70383685827255,0.94787466526031
435,3820710997,0.819448,-0.107388,0.285453,-0.485272,-3.64486742019653,-4.53199291229248,8.11597061157227,0.77619290351868,0.60439568758011,0.85497760772705
436,3820727664,0.819429,-0.107383,0.285458,-0.485303,-3.62711358070374,-4.52245807647705,8.09966659545898,0.98777937889099,0.69699835777283,0.81006568670273
437,3820744331,0.819411,-0.107395,0.285476,-0.485320,-3.62832045555115,-4.54939842224121,8.09051418304443,0.81360018253326,0.69197833538055,0.87257343530655
438,3820760998,0.819421,-0.107362,0.285443,-0.485329,-3.64305162429810,-4.51456403732300,8.12206840515137,1.24899065494537,0.49629729986191,1.06619262695312
439,3820777665,0.819414,-0.107374,0.285447,-0.485337,-3.61084032058716,-4.50931358337402,8.15106773376465,0.85509282350540,0.58956599235535,0.94642776250839
440,3820794332,0.819413,-0.107367,0.285448,-0.485339,-3.61713409423828,-4.54810476303101,8.09647655487061,0.96605974435806,0.61419254541397,1.04352533817291
441,3820810999,0.819421,-0.107202,0.285402,-0.485389,-3.60468959808350,-4.50890970230103,8.11152553558350,2.11649274826050,0.89717447757721,1.07171213626862
442,3820827666,0.819403,-0.107181,0.285454,-0.485394,-3.63541483879089,-4.51594829559326,8.07993793487549,0.86564517021179,0.99123710393906,1.02759444713593
443,3820844333,0.819386,-0.107162,0.285478,-0.485413,-3.63956117630005,-4.54589748382568,8.12188434600830,0.97269356250763,0.83234876394272,0.93351888656616
444,3820861000,0.819379,-0.107153,0.285463,-0.485435,-3.67525291442871,-4.53049945831299,8.12887096405029,1.10511112213135,0.60700821876526,0.81384348869324
445,3820877667,0.819348,-0.107247,0.285474,-0.485461,-3.65450835227966,-4.49842548370361,8.12345123291016,0.40938055515289,0.43904006481171,0.56703954935074
446,3820894334,0.819301,-0.107341,0.285512,-0.485496,-3.62651419639587,-4.55420017242432,8.08647632598877,0.29942527413368,0.60460060834885,0.53083604574203
447,3820911001,0.819293,-0.107269,0.285454,-0.485560,-3.60667109489441,-4.53422641754150,8.08989334106445,1.64748561382294,0.56588691473007,0.75091308355331
448,3820927668,0.819296,-0.107234,0.285422,-0.485581,-3.62265205383301,-4.51023006439209,8.09504318237305,1.27661383152008,0.52967059612274,0.97193783521652
449,3820944335,0.819309,-0.107195,0.285369,-0.485600,-3.63823866844177,-4.52265310287476,8.10858631134033,1.36985683441162,0.40852254629135,1.01323843002319
450,3820961002,0.819339,-0.107178,0.285296,-0.485595,-3.62305092811584,-4.50734615325928,8.09846591949463,1.27599918842316,0.16696920990944,1.14086651802063
451,3820977669,0.819355,-0.107204,0.285259,-0.485584,-3.61807990074158,-4.52615261077881,8.09039783477783,0.89424175024033,0.25032573938370,1.07511866092682
452,3820994336,0.819369,-0.107271,0.285227,-0.485564,-3.62520742416382,-4.54716587066650,8.12990093231201,0.62310576438904,0.14244504272938,1.04527986049652
453,3821011003,0.819396,-0.107210,0.285174,-0.485563,-3.60930943489075,-4.53410768508911,8.09950065612793,1.46978473663330,0.43576163053513,1.21586048603058
454,3821027670,0.819405,-0.107221,0.285155,-0.485556,-3.62149691581726,-4.50650691986084,8.10692691802979,0.91708832979202,0.41721808910370,1.07116162776947
455,3821044337,0.819412,-0.107200,0.285122,-0.485569,-3.61324715614319,-4.51504087448120,8.12192535400391,1.18918478488922,0.46800810098648,1.00942218303680
456,3821061004,0.819409,-0.107221,0.285078,-0.485596,-3.66196990013123,-4.52695131301880,8.13651275634766,1.00131571292877,0.28997415304184,0.80066579580307
457,3821077671,0.819400,-0.107244,0.285058,-0.485618,-3.60836505889893,-4.52405071258545,8.12214851379395,0.90187442302704,0.43427616357803,0.82577908039093
458,3821094338,0.819391,-0.107238,0.285065,-0.485629,-3.60654497146606,-4.54109668731689,8.12192821502686,0.95103788375854,0.66902929544449,0.96248680353165
459,3821111005,0.819384,-0.107154,0.285052,-0.485668,-3.60445070266724,-4.54240655899048,8.11356163024902,1.50968921184540,0.83694607019424,0.95616030693054
460,3821127672,0.819322,-0.107021,0.285131,-0.485755,-3.59973382949829,-4.54418563842773,8.09406948089600,1.53867030143738,1.65974140167236,0.65731155872345
461,3821144339,0.819317,-0.106877,0.285052,-0.485842,-3.69385194778442,-4.46583032608032,8.09899806976318,2.16976714134216,0.69186311960220,0.75616371631622
462,3821161006,0.819322,-0.106949,0.285070,-0.485806,-3.57388758659363,-4.49229145050049,8.13597965240479,0.38981246948242,0.41212114691734,1.12969946861267
463,3821177673,0.819289,-0.106968,0.285092,-0.485846,-3.65330982208252,-4.52401542663574,8.11892318725586,0.80149829387665,0.74084734916687,0.68133622407913
464,3821194340,0.819287,-0.106904,0.285089,-0.485866,-3.59088516235352,-4.53825283050537,8.08965587615967,1.33812260627747,0.80262511968613,1.04138672351837
465,3821211007,0.819218,-0.106803,0.285160,-0.485961,-3.60189938545227,-4.55442667007446,8.08246326446533,1.39075696468353,1.53048706054688,0.51843947172165
466,3821227674,0.819241,-0.106650,0.285136,-0.485971,-3.63846731185913,-4.51126098632812,8.10372734069824,1.90230655670166,0.91726762056351,1.34715127944946
467,3821244341,0.819180,-0.106500,0.285213,-0.486061,-3.58441710472107,-4.51033735275269,8.09962940216064,1.64653801918030,1.71185028553009,0.67540693283081
468,3821261008,0.819157,-0.106408,0.285290,-0.486075,-3.65160655975342,-4.53579616546631,8.10611248016357,1.19917392730713,1.37800168991089,1.11864757537842
469,3821277675,0.819147,-0.106193,0.285275,-0.486149,-3.61712121963501,-4.48704576492310,8.13466930389404,2.38107180595398,1.36216020584106,0.87998831272125
470,3821294342,0.819071,-0.106277,0.285504,-0.486123,-3.67756223678589,-4.46695613861084,8.14571952819824,-0.42048999667168,1.72665441036224,0.93034285306931
471,3821311009,0.819032,-0.106195,0.285544,-0.486183,-3.64196324348450,-4.49966764450073,8.12925434112549,1.34385979175568,1.20802283287048,0.76784300804138
472,3821327676,0.819003,-0.106291,0.285638,-0.486156,-3.62626528739929,-4.55960750579834,8.09622192382812,-0.00567961623892,0.83183640241623,0.96661049127579
473,3821344343,0.818992,-0.106045,0.285565,-0.486271,-3.61681222915649,-4.54133224487305,8.08651447296143,2.77326655387878,1.09791409969330,0.79042077064514
474,3821361010,0.818974,-0.105907,0.285570,-0.486328,-3.64549016952515,-4.45857381820679,8.11939144134521,1.78338670730591,1.15532493591309,0.92702615261078
475,3821377677,0.818929,-0.105944,0.285665,-0.486340,-3.63866996765137,-4.51351833343506,8.09480571746826,0.39534482359886,1.09537827968597,0.81876116991043
476,3821394344,0.818899,-0.105845,0.285679,-0.486404,-3.62872743606567,-4.49020147323608,8.09099578857422,1.53632640838623,1.09742736816406,0.78953701257706
477,3821411011,0.818865,-0.105895,0.285731,-0.486421,-3.67960381507874,-4.50372886657715,8.12248229980469,0.48041743040085,0.78692460060120,0.76642161607742
478,3821427678,0.818840,-0.105871,0.285742,-0.486460,-3.63565135002136,-4.51008272171021,8.11793708801270,1.08220052719116,0.80546814203262,0.78536218404770
479,3821444345,0.818805,-0.105906,0.285796,-0.486480,-3.64706349372864,-4.51887273788452,8.10224628448486,0.56171208620071,0.85572028160095,0.77737098932266
480,3821461012,0.818780,-0.105906,0.285841,-0.486496,-3.61985754966736,-4.55710124969482,8.06690788269043,0.78689903020859,0.90061938762665,0.90257877111435
481,3821477679,0.818758,-0.105847,0.285845,-0.486543,-3.63567638397217,-4.51765108108521,8.10127258300781,1.32755768299103,0.88055181503296,0.81506013870239
482,3821494346,0.818732,-0.105853,0.285884,-0.486563,-3.62335777282715,-4.50429391860962,8.09803104400635,0.78171241283417,0.85613006353378,0.85747468471527
483,3821511013,0.818700,-0.105807,0.285876,-0.486631,-3.65765857696533,-4.49928331375122,8.11410617828369,1.32112860679626,0.80621087551117,0.63338923454285
484,3821527680,0.818652,-0.105872,0.285912,-0.486678,-3.66146016120911,-4.51413106918335,8.11865997314453,0.45320385694504,0.64903855323792,0.60495907068253
485,3821544347,0.818637,-0.105890,0.285889,-0.486713,-3.65876889228821,-4.51936292648315,8.10350227355957,0.96070665121078,0.44459801912308,0.74544477462769
486,3821561014,0.818635,-0.105956,0.285901,-0.486694,-3.65749621391296,-4.52513933181763,8.11621475219727,0.56541317701340,0.53965955972672,0.81137186288834
487,3821577681,0.818646,-0.105995,0.285881,-0.486679,-3.64052844047546,-4.52977180480957,8.11630821228027,0.75136142969131,0.30652001500130,1.07148170471191
488,3821594348,0.818646,-0.105991,0.285860,-0.486691,-3.63091325759888,-4.48114156723022,8.10498046875000,1.04890418052673,0.48629555106163,0.96101415157318
489,3821611015,0.818634,-0.106114,0.285921,-0.486649,-3.64870381355286,-4.50813055038452,8.09327411651611,-0.06506265699863,0.51113981008530,1.03625130653381
490,3821627682,0.818639,-0.106088,0.285913,-0.486650,-3.61834931373596,-4.50178432464600,8.09000015258789,1.10228097438812,0.61649769544601,1.09294509887695
491,3821644349,0.818630,-0.106126,0.285938,-0.486643,-3.64919400215149,-4.51923751831055,8.09425830841064,0.60679042339325,0.61421817541122,0.98866307735443
492,3821661016,0.818636,-0.106067,0.285890,-0.486675,-3.65931010246277,-4.52208900451660,8.10727310180664,1.48890447616577,0.52044993638992,0.95946455001831
493,3821677683,0.818609,-0.106082,0.285871,-0.486728,-3.68833327293396,-4.50230836868286,8.15267944335938,0.98920094966888,0.52333152294159,0.60881388187408
494,3821694350,0.818567,-0.106230,0.285909,-0.486743,-3.65749812126160,-4.54327106475830,8.10968971252441,-0.03490370512009,0.39785483479500,0.55259394645691
495,3821711017,0.818539,-0.106245,0.285874,-0.486808,-3.63131117820740,-4.52120161056519,8.09089946746826,1.06304228305817,0.44012868404388,0.51751744747162
496,3821727684,0.818509,-0.106338,0.285904,-0.486820,-3.61345362663269,-4.50986146926880,8.09812831878662,0.30424046516418,0.50823277235031,0.71273732185364
497,3821744351,0.818493,-0.106342,0.285901,-0.486848,-3.63069200515747,-4.54078817367554,8.09105396270752,0.96376752853394,0.60566353797913,0.81646883487701
498,3821761018,0.818487,-0.106364,0.285909,-0.486849,-3.60781264305115,-4.47714519500732,8.11379718780518,0.76792001724243,0.57170110940933,0.97280877828598
499,3821777685,0.818467,-0.106513,0.286007,-0.486792,-3.61803483963013,-4.53818225860596,8.11226272583008,-0.36501300334930,0.63679575920105,1.07002186775208
500,3821794352,0.818454,-0.106534,0.286020,-0.486801,-3.63736152648926,-4.52232599258423,8.09204769134521,0.77294009923935,0.61607503890991,0.91434770822525
501,3821811019,0.818427,-0.106573,0.286037,-0.486829,-3.66370654106140,-4.50083541870117,8.11801433563232,0.68015801906586,0.62269592285156,0.72682434320450
502,3821827686,0.818375,-0.106744,0.286140,-0.486818,-3.65029621124268,-4.56079721450806,8.12596988677979,-0.43991729617119,0.68479394912720,0.66415011882782
503,3821844353,0.818341,-0.106766,0.286133,-0.486875,-3.64564466476440,-4.57954692840576,8.08499145507812,0.91395080089569,0.58450734615326,0.55324709415436
504,3821861020,0.818285,-0.106791,0.286117,-0.486972,-3.63036203384399,-4.48754930496216,8.08164119720459,0.99341410398483,0.59266507625580,0.24255226552486
505,3821877687,0.818229,-0.106950,0.286200,-0.486983,-3.62250113487244,-4.50730800628662,8.09340858459473,-0.27121925354004,0.63543820381165,0.53699582815170
506,3821894354,0.818191,-0.106885,0.286213,-0.487054,-3.60185241699219,-4.53234052658081,8.06718063354492,1.36547708511353,1.00047039985657,0.64824455976486
507,3821911021,0.818168,-0.106891,0.286259,-0.487065,-3.62720966339111,-4.52344179153442,8.07118606567383,0.73969477415085,0.87503224611282,0.92052048444748
508,3821927688,0.818145,-0.106883,0.286317,-0.487070,-3.64592719078064,-4.55091810226440,8.11613845825195,0.77083981037140,0.98570472002029,0.99221026897430
509,3821944355,0.818120,-0.106872,0.286334,-0.487104,-3.66984510421753,-4.52964830398560,8.11368942260742,0.97529315948486,0.78358221054077,0.81577736139297
510,3821961022,0.818104,-0.106926,0.286396,-0.487083,-3.63985991477966,-4.54485940933228,8.12406730651855,0.47027480602264,0.90383380651474,0.78985726833344
511,3821977689,0.818068,-0.106906,0.286422,-0.487133,-3.63433933258057,-4.55630970001221,8.06345939636230,1.00791096687317,0.88545662164688,0.73957943916321
512,3821994356,0.818065,-0.106931,0.286465,-0.487107,-3.63847637176514,-4.54961919784546,8.09853076934814,0.71049624681473,0.87353396415710,0.89226967096329
513,3822011023,0.818037,-0.106847,0.286478,-0.487164,-3.62745618820190,-4.53482103347778,8.07596015930176,1.42165839672089,1.00652778148651,0.84733211994171
514,3822027690,0.818021,-0.106763,0.286465,-0.487218,-3.63009643554688,-4.51395893096924,8.08920764923096,1.54066801071167,0.86567080020905,0.83917444944382
515,3822044357,0.818017,-0.106688,0.286453,-0.487247,-3.62418508529663,-4.51926374435425,8.10290908813477,1.44117522239685,0.79886007308960,0.99874156713486
516,3822061024,0.818017,-0.106650,0.286472,-0.487246,-3.64586019515991,-4.53160524368286,8.08916282653809,1.07327449321747,0.81472718715668,1.13138973712921
517,3822077691,0.818014,-0.106664,0.286517,-0.487221,-3.64027833938599,-4.53547859191895,8.10017108917236,0.64500463008881,0.78047019243240,1.16942477226257
518,3822094358,0.818006,-0.106610,0.286521,-0.487244,-3.65198588371277,-4.55927085876465,8.08513259887695,1.25959408283234,0.82223159074783,0.98781758546829
519,3822111025,0.817996,-0.106498,0.286493,-0.487302,-3.63804054260254,-4.55012559890747,8.09014987945557,1.75338149070740,0.86358344554901,0.88123059272766
520,3822127692,0.817987,-0.106466,0.286495,-0.487323,-3.63426685333252,-4.51824617385864,8.10007762908936,1.13345170021057,0.73911851644516,0.94994944334030
521,3822144359,0.817980,-0.106400,0.286480,-0.487357,-3.64193463325500,-4.51678800582886,8.09187698364258,1.41398727893829,0.75892978906631,0.94069027900696
522,3822161026,0.817959,-0.106421,0.286506,-0.487372,-3.65174818038940,-4.51155471801758,8.10080718994141,0.73635232448578,0.71227639913559,0.85881948471069
523,3822177693,0.817932,-0.106479,0.286553,-0.487378,-3.64157319068909,-4.57073879241943,8.08074760437012,0.43215030431747,0.71719408035278,0.83100408315659
524,3822194360,0.817923,-0.106348,0.286504,-0.487451,-3.63722038269043,-4.55642318725586,8.08144283294678,1.96910452842712,0.81301116943359,0.82725179195404
525,3822211027,0.817905,-0.106316,0.286522,-0.487477,-3.64437770843506,-4.50599861145020,8.09862422943115,1.07922959327698,0.84789568185806,0.90423083305359
526,3822227694,0.817894,-0.106314,0.286547,-0.487482,-3.63537764549255,-4.53804683685303,8.09301376342773,0.89803254604340,0.80469983816147,0.90957099199295
527,3822244361,0.817894,-0.106305,0.286559,-0.487477,-3.63787031173706,-4.53080272674561,8.09979343414307,1.04635548591614,0.82089978456497,0.83748400211334
528,3822261028,0.817884,-0.106291,0.286574,-0.487486,-3.64758014678955,-4.52902364730835,8.09080886840820,1.04561281204224,0.84032702445984,0.80831122398376
529,3822277695,0.817865,-0.106257,0.286592,-0.487515,-3.64292645454407,-4.51929569244385,8.11291885375977,1.10299813747406,0.85662955045700,0.89110422134399
530,3822294362,0.817838,-0.106241,0.286635,-0.487540,-3.63379764556885,-4.54846763610840,8.11308860778809,0.90174621343613,0.95163989067078,0.86390364170074
531,3822311029,0.817821,-0.106193,0.286661,-0.487562,-3.64884972572327,-4.55499839782715,8.06012344360352,1.14432418346405,0.94676059484482,0.97028577327728
532,3822327696,0.817813,-0.106128,0.286668,-0.487586,-3.65439224243164,-4.52289056777954,8.11169528961182,1.30943644046783,0.87212520837784,1.01193213462830
533,3822344363,0.817791,-0.106123,0.286719,-0.487594,-3.63811540603638,-4.51460123062134,8.11882019042969,0.77989387512207,0.93908965587616,0.96484321355820
534,3822361030,0.817782,-0.106099,0.286754,-0.487593,-3.63889718055725,-4.51540374755859,8.09378051757812,0.94013977050781,0.88100004196167,1.08124017715454
535,3822377697,0.817770,-0.106085,0.286799,-0.487591,-3.62455368041992,-4.51086807250977,8.09546279907227,0.83935385942459,0.90581876039505,1.07095670700073
536,3822394364,0.817757,-0.106063,0.286861,-0.487580,-3.64689445495605,-4.53576898574829,8.11833477020264,0.81695538759232,1.02221560478210,1.13774168491364
537,3822411031,0.817743,-0.105979,0.286846,-0.487630,-3.66293096542358,-4.53873586654663,8.09882640838623,1.53631377220154,0.85078984498978,0.86380106210709
538,3822427698,0.817719,-0.106004,0.286857,-0.487660,-3.68404269218445,-4.54622697830200,8.09996509552002,0.79309725761414,0.63094323873520,0.74766033887863
539,3822444365,0.817698,-0.106021,0.286852,-0.487694,-3.67967319488525,-4.54671525955200,8.08477878570557,0.89753305912018,0.56646329164505,0.73192137479782
540,3822461032,0.817675,-0.105990,0.286837,-0.487747,-3.64721155166626,-4.51953458786011,8.07036685943604,1.24333000183105,0.69283634424210,0.71241724491119
541,3822477699,0.817675,-0.105999,0.286848,-0.487740,-3.61495161056519,-4.52227830886841,8.06048488616943,0.82618898153305,0.61083734035492,1.06410527229309
542,3822494366,0.817701,-0.105855,0.286795,-0.487758,-3.63028478622437,-4.52874612808228,8.07590198516846,1.96510887145996,0.73005163669586,1.26777744293213
543,3822511033,0.817737,-0.105742,0.286749,-0.487749,-3.64969015121460,-4.50257110595703,8.11482524871826,1.72807621955872,0.62888145446777,1.39683985710144
544,3822527700,0.817759,-0.105777,0.286753,-0.487704,-3.65137028694153,-4.50358486175537,8.10833930969238,0.64663100242615,0.41045629978180,1.29880714416504
545,3822544367,0.817774,-0.105806,0.286780,-0.487655,-3.65951108932495,-4.53997230529785,8.10434150695801,0.58522456884384,0.57618331909180,1.33096408843994
546,3822561034,0.817788,-0.105758,0.286755,-0.487657,-3.64879560470581,-4.53261947631836,8.08908271789551,1.29696297645569,0.57586312294006,1.14550232887268
547,3822577701,0.817795,-0.105727,0.286725,-0.487669,-3.66359782218933,-4.52068662643433,8.11730575561523,1.22688674926758,0.51441824436188,1.02877247333527
548,3822594368,0.817797,-0.105698,0.286678,-0.487701,-3.67182993888855,-4.51389932632446,8.10427570343018,1.31742763519287,0.43631231784821,0.88453465700150
549,3822611035,0.817810,-0.105658,0.286602,-0.487733,-3.66086649894714,-4.51207685470581,8.10061740875244,1.47968411445618,0.29395696520805,0.92392683029175
550,3822627702,0.817791,-0.105704,0.286606,-0.487751,-3.66144490242004,-4.46856689453125,8.10901546478271,0.67871099710464,0.49914029240608,0.78431212902069
551,3822644369,0.817785,-0.105753,0.286632,-0.487736,-3.63103342056274,-4.53765392303467,8.06168937683105,0.52996516227722,0.56901162862778,1.02067875862122
552,3822661036,0.817811,-0.105585,0.286536,-0.487784,-3.63234710693359,-4.53988075256348,8.09251213073730,2.24560642242432,0.52693003416061,1.23476254940033
553,3822677703,0.817848,-0.105487,0.286449,-0.487794,-3.67296361923218,-4.48808860778809,8.15159988403320,1.81633746623993,0.35719472169876,1.23337948322296
554,3822694370,0.817861,-0.105480,0.286410,-0.487798,-3.67418408393860,-4.48790311813354,8.14809226989746,1.11679053306580,0.36484012007713,1.03984987735748
555,3822711037,0.817855,-0.105597,0.286429,-0.487772,-3.64732313156128,-4.51945400238037,8.08939266204834,0.15088441967964,0.29526317119598,0.94426333904266
556,3822727704,0.817862,-0.105629,0.286400,-0.487770,-3.62558412551880,-4.52291393280029,8.07452201843262,0.84811329841614,0.30033448338509,0.98923927545547
557,3822744371,0.817874,-0.105631,0.286372,-0.487765,-3.62869215011597,-4.50959205627441,8.08048820495605,1.00888431072235,0.39421790838242,1.07634818553925
558,3822761038,0.817893,-0.105612,0.286353,-0.487749,-3.63642239570618,-4.52995157241821,8.09671497344971,1.07729578018188,0.49314692616463,1.21652650833130
559,3822777705,0.817912,-0.105568,0.286333,-0.487738,-3.64013028144836,-4.53123092651367,8.10869789123535,1.23410940170288,0.57170104980469,1.23354589939117
560,3822794372,0.817935,-0.105550,0.286309,-0.487719,-3.66215014457703,-4.51905822753906,8.11124897003174,1.08599138259888,0.44909310340881,1.23476266860962
561,3822811039,0.817951,-0.105520,0.286271,-0.487719,-3.66091752052307,-4.47439098358154,8.10421943664551,1.23816907405853,0.44271549582481,1.12159287929535
562,3822827706,0.817935,-0.105682,0.286363,-0.487657,-3.64662647247314,-4.52129936218262,8.10840225219727,-0.42624011635780,0.54343736171722,1.07960081100464
563,3822844373,0.817933,-0.105632,0.286328,-0.487692,-3.62385129928589,-4.56258869171143,8.08397865295410,1.36331295967102,0.55336242914200,0.96658492088318
564,3822861040,0.817930,-0.105562,0.286283,-0.487739,-3.65459966659546,-4.48177194595337,8.10631370544434,1.54553425312042,0.59083372354507,0.89296114444733
565,3822877707,0.817944,-0.105532,0.286265,-0.487733,-3.64147925376892,-4.50020360946655,8.11155128479004,1.23008847236633,0.63739770650864,0.99884408712387
566,3822894374,0.817966,-0.105476,0.286200,-0.487746,-3.65479373931885,-4.49403285980225,8.11261844635010,1.62791728973389,0.52421498298645,0.83042752742767
567,3822911041,0.817967,-0.105577,0.286217,-0.487712,-3.64532160758972,-4.52481698989868,8.10994911193848,0.33941951394081,0.44194716215134,0.80683851242065
568,3822927708,0.817995,-0.105574,0.286178,-0.487690,-3.64661836624146,-4.53499841690063,8.10814476013184,1.16898918151855,0.44462361931801,0.97626650333405
569,3822944375,0.818009,-0.105576,0.286123,-0.487696,-3.62910652160645,-4.48385334014893,8.11213016510010,1.15570902824402,0.28410884737968,0.93752723932266
570,3822961042,0.818022,-0.105626,0.286094,-0.487681,-3.62290024757385,-4.49272251129150,8.10815143585205,0.73895204067230,0.23097532987595,1.01220118999481
571,3822977709,0.818037,-0.105594,0.286049,-0.487690,-3.61810851097107,-4.51015806198120,8.10642433166504,1.28488683700562,0.42601606249809,1.05268204212189
572,3822994376,0.818107,-0.105637,0.286017,-0.487582,-3.62989854812622,-4.52793931961060,8.09440326690674,0.86795037984848,0.32535815238953,1.25534248352051
573,3823011043,0.818142,-0.105652,0.285989,-0.487536,-3.66013789176941,-4.51845693588257,8.10402393341064,0.90782940387726,0.31652173399925,1.28747355937958
574,3823027710,0.818192,-0.105611,0.285916,-0.487504,-3.65974593162537,-4.51673889160156,8.11606121063232,1.47312712669373,0.31045153737068,1.18831396102905
575,3823044377,0.818246,-0.105604,0.285830,-0.487466,-3.66002345085144,-4.49427461624146,8.13193988800049,1.47771191596985,0.29898983240128,0.82289755344391
576,3823061044,0.818313,-0.105698,0.285791,-0.487356,-3.64731073379517,-4.49983739852905,8.13152885437012,0.71746289730072,0.25859859585762,0.88580238819122
577,3823077711,0.818354,-0.105746,0.285756,-0.487298,-3.62207031250000,-4.53058338165283,8.09469127655029,0.92054611444473,0.38342210650444,0.87020432949066
578,3823094378,0.818362,-0.105715,0.285714,-0.487315,-3.64578056335449,-4.52577400207520,8.10697078704834,1.24139630794525,0.40448853373528,1.08804023265839
579,3823111045,0.818366,-0.105615,0.285647,-0.487370,-3.61035847663879,-4.46771430969238,8.12139606475830,1.82741498947144,0.57344275712967,0.88361245393753
580,3823127712,0.818353,-0.105718,0.285721,-0.487325,-3.63926577568054,-4.54040050506592,8.09668636322021,0.00459747994319,0.65505760908127,1.09445631504059
581,3823144379,0.818361,-0.105574,0.285641,-0.487390,-3.63622522354126,-4.52975988388062,8.09518432617188,2.14126038551331,0.64657986164093,0.92149382829666
582,3823161046,0.818372,-0.105537,0.285632,-0.487384,-3.65255522727966,-4.47674703598022,8.13280296325684,1.15976870059967,0.62885582447052,1.16718375682831
583,3823177713,0.818364,-0.105574,0.285652,-0.487379,-3.65547490119934,-4.53574323654175,8.12254714965820,0.64056080579758,0.59094899892807,0.97338497638702
584,3823194380,0.818350,-0.105579,0.285609,-0.487426,-3.66646265983582,-4.52716064453125,8.12814331054688,1.12191307544708,0.38737931847572,0.68188697099686
585,3823211047,0.818340,-0.105611,0.285586,-0.487449,-3.65596103668213,-4.50430870056152,8.11952781677246,0.86757904291153,0.38574007153511,0.79045921564102
586,3823227714,0.818323,-0.105598,0.285529,-0.487514,-3.62753438949585,-4.48828601837158,8.11335182189941,1.30450606346130,0.39198958873749,0.59345906972885
587,3823244381,0.818318,-0.105652,0.285534,-0.487507,-3.61083030700684,-4.52052450180054,8.08289337158203,0.58941227197647,0.43807965517044,0.95386826992035
588,3823261048,0.818321,-0.105633,0.285487,-0.487534,-3.61521840095520,-4.52813434600830,8.09443092346191,1.24472594261169,0.39447399973869,0.89129638671875
589,3823277715,0.818338,-0.105639,0.285436,-0.487534,-3.62495398521423,-4.49703121185303,8.14512062072754,1.07780802249908,0.24293646216393,1.04673981666565
590,3823294382,0.818349,-0.105676,0.285429,-0.487513,-3.63190078735352,-4.52288055419922,8.12310504913330,0.71123903989792,0.38647001981735,1.10622525215149
591,3823311049,0.818357,-0.105668,0.285411,-0.487511,-3.61415600776672,-4.51631402969360,8.12512874603271,1.03357493877411,0.49743708968163,1.07586157321930
592,3823327716,0.818360,-0.105686,0.285402,-0.487507,-3.64007067680359,-4.48690605163574,8.08018684387207,0.85291564464569,0.46575412154198,1.02806818485260
593,3823344383,0.818356,-0.105759,0.285432,-0.487480,-3.61579918861389,-4.51640510559082,8.12612152099609,0.36233007907867,0.49821829795837,1.04658603668213
594,3823361050,0.818361,-0.105779,0.285402,-0.487486,-3.64486789703369,-4.56803321838379,8.09738445281982,0.92961299419403,0.34273633360863,0.95143502950668
595,3823377717,0.818346,-0.105783,0.285355,-0.487538,-3.62829828262329,-4.49117946624756,8.12721729278564,1.15512001514435,0.37404787540436,0.64802688360214
596,3823394384,0.818323,-0.105911,0.285395,-0.487526,-3.64982628822327,-4.49172544479370,8.10974693298340,0.03460276126862,0.41995868086815,0.80291974544525
597,3823411051,0.818283,-0.105941,0.285414,-0.487574,-3.61104321479797,-4.49515199661255,8.11771202087402,0.76343774795532,0.70931816101074,0.57891106605530
598,3823427718,0.818237,-0.106083,0.285540,-0.487547,-3.61285781860352,-4.50010824203491,8.12725639343262,-0.38219913840294,0.88888877630234,0.84697353839874
599,3823444385,0.818142,-0.105830,0.285486,-0.487793,-3.59796333312988,-4.42596578598022,8.12906551361084,3.01389718055725,1.58012413978577,-0.36429581046104
600,3823461052,0.818038,-0.106686,0.286048,-0.487452,-3.72770118713379,-4.64429426193237,8.10480308532715,-6.47266960144043,0.88564884662628,1.22747600078583
601,3823477719,0.818103,-0.106204,0.285699,-0.487652,-3.62573313713074,-4.64333009719849,8.03003692626953,5.34312963485718,0.36574935913086,0.62487310171127
602,3823494386,0.818140,-0.106199,0.285652,-0.487619,-3.62894582748413,-4.39308834075928,8.14697170257568,1.08693897724152,0.25028732419014,1.28756332397461
603,3823511053,0.818132,-0.106332,0.285723,-0.487562,-3.62472152709961,-4.54588699340820,8.11891841888428,0.00583969522268,0.73674923181534,0.71761661767960
604,3823527720,0.818157,-0.106227,0.285614,-0.487605,-3.64368414878845,-4.52495813369751,8.10612487792969,1.94881927967072,0.25268208980560,1.09459722042084
605,3823544387,0.818204,-0.106366,0.285655,-0.487472,-3.59056329727173,-4.55432844161987,8.09639263153076,-0.02207174338400,0.40357926487923,1.25059115886688
606,3823561054,0.818233,-0.106220,0.285585,-0.487498,-3.58882141113281,-4.54393005371094,8.09272384643555,2.05853104591370,0.64282757043839,1.21691060066223
607,3823577721,0.818214,-0.106092,0.285559,-0.487572,-3.63728642463684,-4.44545555114746,8.14890193939209,1.86858737468719,0.96531707048416,0.78026533126831
608,3823594388,0.818190,-0.106217,0.285657,-0.487528,-3.64564704895020,-4.50375223159790,8.09948444366455,-0.20197534561157,0.73541742563248,1.02536606788635
609,3823611055,0.818175,-0.106297,0.285701,-0.487510,-3.62164139747620,-4.57043313980103,8.08745861053467,0.28430095314980,0.57976901531219,0.95722329616547
610,3823627722,0.818186,-0.106199,0.285645,-0.487545,-3.63568115234375,-4.54262351989746,8.10249042510986,1.74581289291382,0.60636788606644,1.02345788478851
611,3823644389,0.818177,-0.106164,0.285616,-0.487586,-3.62295675277710,-4.46210956573486,8.12292861938477,1.29280102252960,0.58700466156006,0.81728851795197
612,3823661056,0.818157,-0.106258,0.285686,-0.487557,-3.63069677352905,-4.52339315414429,8.10045719146729,0.09867291897535,0.68397432565689,0.99333739280701
613,3823677723,0.818163,-0.106237,0.285662,-0.487566,-3.62337779998779,-4.54961299896240,8.10439777374268,1.14837098121643,0.51700520515442,1.02210032939911
614,3823694390,0.818200,-0.106225,0.285615,-0.487535,-3.63531017303467,-4.51437664031982,8.11490249633789,1.22983229160309,0.39656141400337,1.08453154563904
615,3823711057,0.818218,-0.106265,0.285625,-0.487490,-3.63863801956177,-4.49911212921143,8.12569522857666,0.59631484746933,0.44459801912308,1.27005684375763
616,3823727724,0.818226,-0.106247,0.285647,-0.487467,-3.61049842834473,-4.51560878753662,8.13285064697266,0.91480886936188,0.74124443531036,1.23563361167908
617,3823744391,0.818222,-0.106209,0.285646,-0.487482,-3.64088439941406,-4.52746725082397,8.10433673858643,1.17155051231384,0.72509562969208,1.00988316535950
618,3823761058,0.818236,-0.106250,0.285666,-0.487438,-3.62665939331055,-4.50457668304443,8.12353992462158,0.55609011650085,0.49791091680527,1.25640535354614
619,3823777725,0.818246,-0.106243,0.285672,-0.487419,-3.63010334968567,-4.54111289978027,8.10101413726807,0.91982895135880,0.61286073923111,1.18946659564972
620,3823794392,0.818252,-0.106222,0.285657,-0.487423,-3.63620233535767,-4.49686050415039,8.12326431274414,1.10911953449249,0.56744933128357,1.05651092529297
621,3823811059,0.818238,-0.106351,0.285728,-0.487377,-3.63199353218079,-4.51404905319214,8.09766006469727,-0.13348697125912,0.54905945062637,1.04175806045532
622,3823827726,0.818229,-0.106406,0.285766,-0.487356,-3.63587093353271,-4.56055831909180,8.08230590820312,0.44756916165352,0.62035244703293,1.03605937957764
623,3823844393,0.818224,-0.106404,0.285772,-0.487362,-3.62897658348083,-4.49667215347290,8.10846996307373,0.92543804645538,0.63729524612427,0.98927778005600
624,3823861060,0.818205,-0.106554,0.285852,-0.487314,-3.62690329551697,-4.52880573272705,8.11825561523438,-0.28724002838135,0.54088896512985,0.99623155593872
625,3823877727,0.818211,-0.106509,0.285814,-0.487336,-3.61742782592773,-4.54681158065796,8.08578872680664,1.35578262805939,0.52725028991699,0.99086582660675
626,3823894394,0.818201,-0.106470,0.285815,-0.487361,-3.61737632751465,-4.47194290161133,8.12716674804688,1.18658530712128,0.76374512910843,0.92913925647736
627,3823911061,0.818192,-0.106555,0.285873,-0.487323,-3.61714196205139,-4.52332496643066,8.10176563262939,0.17215576767921,0.61651051044464,1.08883428573608
628,3823927728,0.818193,-0.106500,0.285875,-0.487334,-3.60295152664185,-4.53121137619019,8.10962867736816,1.25873589515686,0.79016441106796,1.08286631107330
629,3823944395,0.818180,-0.106478,0.285907,-0.487342,-3.63617253303528,-4.52996921539307,8.11680412292480,0.94802856445312,0.86828339099884,1.00825679302216
630,3823961062,0.818163,-0.106468,0.285926,-0.487360,-3.65362119674683,-4.54257965087891,8.09981632232666,0.94466030597687,0.77697402238846,0.90552431344986
631,3823977729,0.818145,-0.106471,0.285920,-0.487394,-3.66021251678467,-4.52742433547974,8.13642311096191,0.98785614967346,0.60343521833420,0.76781749725342
632,3823994396,0.818112,-0.106467,0.285927,-0.487446,-3.63157773017883,-4.51533889770508,8.09530544281006,1.00697612762451,0.74220478534698,0.64601624011993
633,3824011063,0.818114,-0.106522,0.285964,-0.487408,-3.62529397010803,-4.55141258239746,8.06112861633301,0.48679500818253,0.65352082252502,1.02937436103821
634,3824027730,0.818133,-0.106397,0.285911,-0.487435,-3.62044787406921,-4.51885509490967,8.10956287384033,1.87387645244598,0.68543422222137,1.15523529052734
635,3824044397,0.818137,-0.106364,0.285909,-0.487436,-3.63468432426453,-4.49016857147217,8.11799144744873,1.12259185314178,0.68250167369843,1.09546804428101
636,3824061064,0.818140,-0.106398,0.285946,-0.487402,-3.61949467658997,-4.50974655151367,8.12016296386719,0.55195361375809,0.64732253551483,1.19406414031982
637,3824077731,0.818138,-0.106427,0.285993,-0.487372,-3.63942813873291,-4.56301403045654,8.09110069274902,0.54798370599747,0.74156445264816,1.16841280460358
638,3824094398,0.818166,-0.106290,0.285932,-0.487391,-3.63881254196167,-4.51633310317993,8.09609794616699,1.96524965763092,0.66073083877563,1.24178063869476
639,3824111065,0.818172,-0.106297,0.285960,-0.487364,-3.64519405364990,-4.49254894256592,8.13180541992188,0.74262738227844,0.68936574459076,1.21187758445740
640,3824127732,0.818170,-0.106334,0.286014,-0.487326,-3.64967274665833,-4.55251979827881,8.11801719665527,0.46936553716660,0.74096262454987,1.20088982582092
641,3824144399,0.818157,-0.106293,0.286032,-0.487347,-3.63644790649414,-4.52505350112915,8.10221385955811,1.12802183628082,0.86839866638184,0.96511214971542
642,3824161066,0.818123,-0.106360,0.286115,-0.487341,-3.64005327224731,-4.54831218719482,8.10708332061768,0.24187354743481,0.89079695940018,0.87416148185730
643,3824177733,0.818102,-0.106325,0.286114,-0.487383,-3.62924718856812,-4.53549003601074,8.07828140258789,1.18965852260590,0.76820170879364,0.79528707265854
644,3824194400,0.818095,-0.106244,0.286088,-0.487429,-3.63661074638367,-4.50051975250244,8.10613536834717,1.55953156948090,0.76346325874329,0.88552063703537
645,3824211067,0.818090,-0.106263,0.286117,-0.487415,-3.63670253753662,-4.49124097824097,8.09972763061523,0.69534641504288,0.68638187646866,1.07830739021301
646,3824227734,0.818079,-0.106322,0.286185,-0.487382,-3.63649797439575,-4.55769824981689,8.11560153961182,0.29580110311508,0.76762551069260,1.11380672454834
647,3824244401,0.818173,-0.106300,0.286132,-0.487260,-3.63965463638306,-4.52328634262085,8.10692310333252,1.51148223876953,0.63944661617279,1.03497076034546
648,3824261068,0.818162,-0.106295,0.286135,-0.487277,-3.65478229522705,-4.51366710662842,8.10423183441162,0.98131215572357,0.65784943103790,0.89695668220520
649,3824277735,0.818155,-0.106278,0.286135,-0.487293,-3.64886975288391,-4.53417062759399,8.11538028717041,1.05102992057800,0.67479223012924,0.95037204027176
650,3824294402,0.818160,-0.106278,0.286129,-0.487288,-3.64531135559082,-4.52603054046631,8.11091899871826,0.94171488285065,0.53954428434372,1.06763970851898
651,3824311069,0.818162,-0.106246,0.286144,-0.487283,-3.62427258491516,-4.52827644348145,8.13543510437012,1.05391144752502,0.76720285415649,1.14301800727844
652,3824327736,0.818158,-0.106213,0.286125,-0.487309,-3.64641189575195,-4.50794982910156,8.11601161956787,1.22705304622650,0.62309294939041,0.91899651288986
653,3824344403,0.818151,-0.106206,0.286153,-0.487304,-3.62521624565125,-4.50346279144287,8.09074974060059,0.85915237665176,0.77625691890717,1.06874108314514
654,3824361070,0.818129,-0.106324,0.286228,-0.487271,-3.64311528205872,-4.53828477859497,8.09391498565674,-0.06597191095352,0.62999564409256,0.96097570657730
655,3824377737,0.818106,-0.106352,0.286275,-0.487277,-3.62985920906067,-4.55505895614624,8.09149074554443,0.61055558919907,0.81175619363785,0.89707201719284
656,3824394404,0.818093,-0.106294,0.286264,-0.487318,-3.65400409698486,-4.53555727005005,8.11032772064209,1.36488795280457,0.77258145809174,0.86212342977524
657,3824411071,0.818072,-0.106259,0.286274,-0.487354,-3.65612602233887,-4.50496816635132,8.11120128631592,1.14828133583069,0.83347564935684,0.83085042238235
658,3824427738,0.818058,-0.106233,0.286289,-0.487374,-3.63630867004395,-4.52510023117065,8.11265850067139,1.05428278446198,0.79816848039627,0.93458181619644
659,3824444405,0.818045,-0.106154,0.286266,-0.487427,-3.65637421607971,-4.52626419067383,8.10088920593262,1.54116725921631,0.78609216213226,0.82353788614273
660,3824461072,0.818040,-0.106146,0.286247,-0.487448,-3.64208173751831,-4.49331951141357,8.10862922668457,1.07971632480621,0.53641957044601,0.89768677949905
661,3824477739,0.817987,-0.106141,0.286281,-0.487519,-3.61475300788879,-4.53431463241577,8.10086154937744,0.78207099437714,0.75073391199112,0.83958435058594
662,3824494406,0.818031,-0.106088,0.286242,-0.487479,-3.63388252258301,-4.53707647323608,8.08077335357666,1.58216035366058,0.75221925973892,0.89023327827454
663,3824511073,0.818027,-0.106025,0.286240,-0.487502,-3.64721155166626,-4.50656890869141,8.08973979949951,1.29924249649048,0.77948403358459,1.07045710086823
664,3824527740,0.818059,-0.106030,0.286239,-0.487448,-3.65832018852234,-4.53164339065552,8.13000202178955,0.97420459985733,0.64240491390228,1.10585379600525
665,3824544407,0.818066,-0.106061,0.286267,-0.487412,-3.63483977317810,-4.51209259033203,8.12879180908203,0.73425203561783,0.76953357458115,0.90273237228394
666,3824561074,0.818043,-0.106152,0.286317,-0.487401,-3.65085530281067,-4.52904319763184,8.11834430694580,0.21426302194595,0.60148859024048,0.87331616878510
667,3824577741,0.818022,-0.106259,0.286396,-0.487367,-3.63130998611450,-4.52523612976074,8.08338546752930,-0.01230049878359,0.69593542814255,0.97957050800323
668,3824594408,0.818008,-0.106360,0.286467,-0.487327,-3.62705683708191,-4.52600669860840,8.09513187408447,0.12296656519175,0.75277006626129,0.87145924568176
669,3824611075,0.817997,-0.106386,0.286510,-0.487314,-3.64108395576477,-4.54174518585205,8.11646461486816,0.67074531316757,0.83433365821838,0.90552407503128
670,3824627742,0.817977,-0.106499,0.286578,-0.487284,-3.65283799171448,-4.50638389587402,8.10499095916748,0.09878817200661,0.73801708221436,0.71500408649445
671,3824644409,0.817933,-0.106823,0.286755,-0.487181,-3.65458965301514,-4.53424215316772,8.08608531951904,-1.63631200790405,0.60699528455734,0.76987922191620
672,3824661076,0.817881,-0.107099,0.286902,-0.487122,-3.66867256164551,-4.53488063812256,8.09299945831299,-1.26898753643036,0.55066019296646,0.74791640043259
673,3824677743,0.817838,-0.107394,0.287051,-0.487041,-3.62619280815125,-4.55946636199951,8.08374881744385,-1.41699075698853,0.46661216020584,0.86520981788635
674,3824694410,0.817817,-0.107482,0.287107,-0.487024,-3.62989926338196,-4.58782529830933,8.05944347381592,0.19833192229271,0.63710308074951,0.91603821516037
675,3824711077,0.817818,-0.107378,0.287052,-0.487077,-3.64332532882690,-4.55265283584595,8.09521389007568,1.80573368072510,0.65868186950684,0.90152865648270
676,3824727744,0.817800,-0.107429,0.287087,-0.487076,-3.64007854461670,-4.54911899566650,8.07261657714844,0.51138317584991,0.65340554714203,0.90109312534332
677,3824744411,0.817824,-0.107370,0.287055,-0.487068,-3.62998962402344,-4.51594734191895,8.10983943939209,1.54039895534515,0.75949335098267,0.87170261144638
678,3824761078,0.817808,-0.107492,0.287129,-0.487024,-3.64775013923645,-4.54388856887817,8.10745716094971,-0.08269699662924,0.61565238237381,0.99452817440033
679,3824777745,0.817807,-0.107483,0.287149,-0.487016,-3.60841178894043,-4.57894945144653,8.08223533630371,0.86471039056778,0.69161975383759,1.17170429229736
680,3824794412,0.817820,-0.107477,0.287199,-0.486967,-3.62498402595520,-4.54946517944336,8.08904933929443,0.84973967075348,0.99390077590942,1.08442878723145
681,3824811079,0.817819,-0.107450,0.287236,-0.486951,-3.64458060264587,-4.55555534362793,8.07853603363037,0.92616802453995,0.87685060501099,1.19535744190216
682,3824827746,0.817821,-0.107398,0.287232,-0.486962,-3.67474627494812,-4.56069612503052,8.10014343261719,1.25964534282684,0.74801898002625,1.06830573081970
683,3824844413,0.817814,-0.107320,0.287199,-0.487010,-3.67076659202576,-4.53892850875854,8.11210060119629,1.56619083881378,0.71392840147018,0.86645197868347
684,3824861080,0.817780,-0.107306,0.287208,-0.487067,-3.64634871482849,-4.52040719985962,8.09342098236084,1.07223725318909,0.79375040531158,0.62684518098831
685,3824877747,0.817759,-0.107363,0.287289,-0.487041,-3.62928366661072,-4.56959342956543,8.07090950012207,0.27090549468994,0.87444311380386,1.05637013912201
686,3824894414,0.817778,-0.107240,0.287246,-0.487062,-3.63668394088745,-4.55324316024780,8.07623767852783,1.81737458705902,0.73348367214203,1.18013072013855
687,3824911081,0.817805,-0.107128,0.287205,-0.487065,-3.62188124656677,-4.50731611251831,8.08214855194092,1.72272312641144,0.68005561828613,1.29628431797028
688,3824927748,0.817793,-0.107086,0.287208,-0.487092,-3.63327336311340,-4.54295969009399,8.08966064453125,1.20516717433929,0.79590171575546,0.91749805212021
689,3824944415,0.817780,-0.107084,0.287208,-0.487115,-3.64580607414246,-4.52660322189331,8.09749794006348,0.97379493713379,0.63283866643906,0.85819196701050
690,3824961082,0.817767,-0.107123,0.287232,-0.487113,-3.63214945793152,-4.52700805664062,8.08511543273926,0.61867475509644,0.61854672431946,0.93915367126465
691,3824977749,0.817738,-0.107205,0.287281,-0.487116,-3.64054727554321,-4.56912231445312,8.09223079681396,0.28920578956604,0.64751464128494,0.78442734479904
692,3824994416,0.817732,-0.107197,0.287267,-0.487135,-3.67088842391968,-4.56661891937256,8.08986186981201,1.05765080451965,0.56703960895538,0.90557539463043
693,3825011083,0.817722,-0.107156,0.287256,-0.487167,-3.64964127540588,-4.54561138153076,8.09131145477295,1.25064253807068,0.70721793174744,0.88827413320541
694,3825027750,0.817697,-0.107156,0.287268,-0.487203,-3.64690351486206,-4.57715082168579,8.07974433898926,0.94400715827942,0.73440575599670,0.74709677696228
695,3825044417,0.817746,-0.107071,0.287186,-0.487188,-3.65376996994019,-4.54683685302734,8.08099842071533,1.88098394870758,0.52835160493851,0.96451032161713
696,3825061084,0.817744,-0.107013,0.287159,-0.487219,-3.63200521469116,-4.49136257171631,8.06841373443604,1.29563117027283,0.52532923221588,1.18255114555359
697,3825077751,0.817788,-0.107081,0.287200,-0.487106,-3.63243031501770,-4.54815530776978,8.06808376312256,0.34219846129417,0.57394212484360,1.43213403224945
698,3825094418,0.817817,-0.107061,0.287196,-0.487064,-3.64443087577820,-4.54962158203125,8.08728218078613,0.99596273899078,0.54594755172729,1.39516234397888
699,3825111085,0.817811,-0.107047,0.287217,-0.487066,-3.66069221496582,-4.53108596801758,8.08374214172363,0.93857729434967,0.76520496606827,1.04060554504395
700,3825127752,0.817788,-0.107187,0.287316,-0.487014,-3.66009211540222,-4.55635118484497,8.06104946136475,-0.30623185634613,0.68393599987030,1.03726315498352
701,3825144419,0.817775,-0.107208,0.287322,-0.487028,-3.64327907562256,-4.55953979492188,8.08483982086182,0.81155115365982,0.58536535501480,0.86588847637177
702,3825161086,0.817771,-0.107263,0.287340,-0.487013,-3.66114902496338,-4.50209140777588,8.08569908142090,0.52415108680725,0.50226503610611,1.00189197063446
703,3825177753,0.817753,-0.107511,0.287468,-0.486912,-3.63396024703979,-4.52784776687622,8.08950138092041,-1.10432350635529,0.44005182385445,1.14140439033508
704,3825194420,0.817747,-0.107605,0.287533,-0.486864,-3.61718893051147,-4.60813283920288,8.06180095672607,0.08928586542606,0.61620312929153,1.13542377948761
705,3825211087,0.817761,-0.107542,0.287523,-0.486859,-3.64867854118347,-4.56173753738403,8.06910133361816,1.37488961219788,0.78305709362030,1.09106254577637
706,3825227754,0.817742,-0.107532,0.287555,-0.486875,-3.65854763984680,-4.52821588516235,8.08696079254150,0.87865638732910,0.83044052124023,0.96261483430862
707,3825244421,0.817716,-0.107562,0.287613,-0.486878,-3.66186833381653,-4.53336858749390,8.07597160339355,0.55251717567444,0.86765575408936,0.89983826875687
708,3825261088,0.817681,-0.107601,0.287682,-0.486886,-3.63953876495361,-4.55473518371582,8.10936164855957,0.47491067647934,0.91683208942413,0.84041666984558
709,3825277755,0.817641,-0.107620,0.287731,-0.486921,-3.66549992561340,-4.56741285324097,8.10304832458496,0.69671672582626,0.90578031539917,0.69712644815445
710,3825294422,0.817619,-0.107579,0.287745,-0.486958,-3.63826036453247,-4.55182695388794,8.05318641662598,1.17097425460815,0.87900221347809,0.83681809902191
711,3825311089,0.817589,-0.107536,0.287764,-0.487007,-3.65487957000732,-4.54843950271606,8.08248424530029,1.18251287937164,0.93576002120972,0.74189752340317
712,3825327756,0.817564,-0.107565,0.287797,-0.487024,-3.65392279624939,-4.54145002365112,8.06800556182861,0.67034840583801,0.73879837989807,0.81719881296158
713,3825344423,0.817550,-0.107574,0.287802,-0.487042,-3.63779473304749,-4.55970287322998,8.08384895324707,0.86505615711212,0.58779865503311,0.92605286836624
714,3825361090,0.817558,-0.107637,0.287813,-0.487008,-3.66420531272888,-4.54004001617432,8.10392475128174,0.54598593711853,0.48200538754463,0.97457611560822
715,3825377757,0.817544,-0.107761,0.287878,-0.486965,-3.64199852943420,-4.57356643676758,8.09649848937988,-0.12804429233074,0.47827878594398,1.13724231719971
716,3825394424,0.817590,-0.107782,0.287877,-0.486885,-3.63579368591309,-4.57581615447998,8.08590221405029,0.87669706344604,0.58613383769989,1.17648088932037
717,3825411091,0.817620,-0.107851,0.287909,-0.486801,-3.64909625053406,-4.54569244384766,8.07354068756104,0.41984334588051,0.57254624366760,1.20605075359344
718,3825427758,0.817631,-0.107841,0.287910,-0.486783,-3.65207624435425,-4.57483577728271,8.05067443847656,0.99910020828247,0.64090657234192,1.08885991573334
719,3825444425,0.817687,-0.107838,0.287880,-0.486708,-3.65621280670166,-4.55424356460571,8.07582950592041,1.16472470760345,0.53740566968918,1.13392555713654
720,3825461092,0.817679,-0.107854,0.287850,-0.486735,-3.64403533935547,-4.54130220413208,8.08378124237061,0.93227678537369,0.33833095431328,0.90681755542755
721,3825477759,0.817727,-0.107937,0.287855,-0.486632,-3.67081212997437,-4.55020332336426,8.08893680572510,0.49167421460152,0.42022758722305,1.14664220809937
722,3825494426,0.817801,-0.107944,0.287806,-0.486537,-3.63475894927979,-4.57173490524292,8.08816051483154,1.20906031131744,0.41473367810249,1.14037990570068
723,3825511093,0.817852,-0.107908,0.287758,-0.486487,-3.64879679679871,-4.57313680648804,8.06268787384033,1.36969017982483,0.47772797942162,1.20096647739410
724,3825527760,0.817889,-0.107757,0.287666,-0.486512,-3.65499067306519,-4.56006431579590,8.07654857635498,2.18093395233154,0.53403759002686,1.20541048049927
725,3825544427,0.817906,-0.107715,0.287638,-0.486509,-3.65462923049927,-4.54609203338623,8.09371376037598,1.30837368965149,0.58934819698334,1.08095860481262
726,3825561094,0.817890,-0.107680,0.287631,-0.486549,-3.65082669258118,-4.56360340118408,8.08201408386230,1.10922193527222,0.59320294857025,1.04772591590881
727,3825577761,0.817917,-0.107511,0.287511,-0.486611,-3.64639830589294,-4.56217813491821,8.08365726470947,2.49842953681946,0.56488811969757,0.85070025920868
728,3825594428,0.817949,-0.107457,0.287473,-0.486592,-3.64646768569946,-4.53808879852295,8.08773612976074,1.46522569656372,0.61736851930618,1.05817580223083
729,3825611095,0.817963,-0.107403,0.287440,-0.486600,-3.64998912811279,-4.55839157104492,8.09019088745117,1.47495841979980,0.68676608800888,0.88922166824341
730,3825627762,0.817955,-0.107423,0.287448,-0.486604,-3.64400577545166,-4.54876375198364,8.07620620727539,0.84027582406998,0.64049673080444,0.83694618940353
731,3825644429,0.817955,-0.107507,0.287490,-0.486560,-3.63380265235901,-4.58409261703491,8.07800388336182,0.31949278712273,0.61263006925583,0.95648062229156
732,3825661096,0.817956,-0.107357,0.287407,-0.486641,-3.65817832946777,-4.55438995361328,8.07449913024902,2.17841148376465,0.64193111658096,0.88029575347900
733,3825677763,0.817951,-0.107334,0.287404,-0.486657,-3.64987158775330,-4.51156997680664,8.07787895202637,1.10155105590820,0.67714858055115,0.95741558074951
734,3825694430,0.817967,-0.107294,0.287403,-0.486640,-3.61753845214844,-4.51844167709351,8.07128047943115,1.13464260101318,0.67147529125214,1.24986124038696
735,3825711097,0.817970,-0.107283,0.287440,-0.486614,-3.63796901702881,-4.54182577133179,8.05345535278320,0.82430636882782,0.80909240245819,1.22591364383698
736,3825727764,0.817976,-0.107250,0.287428,-0.486619,-3.68021917343140,-4.56333780288696,8.10414791107178,1.17110228538513,0.62868934869766,1.07253181934357
737,3825744431,0.817962,-0.107209,0.287385,-0.486677,-3.68033099174500,-4.55505752563477,8.10257911682129,1.34565269947052,0.47452643513680,0.84804928302765
738,3825761098,0.817985,-0.107227,0.287335,-0.486663,-3.67166638374329,-4.52998924255371,8.10587406158447,1.19236075878143,0.43781065940857,0.65240663290024
739,3825777765,0.817975,-0.107261,0.287332,-0.486674,-3.64307498931885,-4.54799747467041,8.09101772308350,0.75777739286423,0.48157000541687,0.87641543149948
740,3825794432,0.818005,-0.107179,0.287278,-0.486674,-3.61871767044067,-4.53754043579102,8.06459045410156,1.66442835330963,0.58385431766510,1.09375178813934
741,3825811099,0.818054,-0.107128,0.287253,-0.486618,-3.62938451766968,-4.51035928726196,8.08358383178711,1.36600196361542,0.64447951316833,1.28925371170044
742,3825827766,0.818082,-0.107077,0.287244,-0.486588,-3.63297963142395,-4.54748725891113,8.07657146453857,1.24098646640778,0.67932564020157,1.29860222339630
743,3825844433,0.818093,-0.107021,0.287228,-0.486591,-3.66336822509766,-4.56883764266968,8.09642314910889,1.30798912048340,0.65619730949402,1.16332876682281
744,3825861100,0.818115,-0.106930,0.287175,-0.486605,-3.65530276298523,-4.52463722229004,8.07897472381592,1.70975029468536,0.62306737899780,1.04864799976349
745,3825877767,0.818102,-0.106976,0.287195,-0.486604,-3.66586947441101,-4.52251291275024,8.12191009521484,0.59883767366409,0.57450562715530,0.91003197431564
746,3825894434,0.818080,-0.107052,0.287251,-0.486592,-3.64498448371887,-4.57858562469482,8.09115219116211,0.28179088234901,0.68444812297821,0.90448683500290
747,3825911101,0.818070,-0.106973,0.287211,-0.486650,-3.66344666481018,-4.54683637619019,8.08707618713379,1.61604595184326,0.69228559732437,0.79302030801773
748,3825927768,0.818041,-0.106975,0.287212,-0.486698,-3.63894963264465,-4.50420761108398,8.08407974243164,0.98870140314102,0.68274497985840,0.64878243207932
749,3825944435,0.818005,-0.107030,0.287256,-0.486720,-3.62683486938477,-4.54124069213867,8.08972263336182,0.49303165078163,0.73773533105850,0.70614206790924
750,3825961102,0.818001,-0.107000,0.287287,-0.486715,-3.62924814224243,-4.50734567642212,8.07293510437012,1.05265641212463,0.94971895217896,0.96979933977127
751,3825977769,0.817979,-0.107015,0.287362,-0.486705,-3.64099073410034,-4.53762340545654,8.10208129882812,0.45180806517601,0.86873161792755,1.26841795444489
752,3825994436,0.817995,-0.106966,0.287369,-0.486685,-3.64497256278992,-4.56908559799194,8.10907840728760,1.19779062271118,0.79719519615173,1.19633066654205
753,3826011103,0.818008,-0.106838,0.287296,-0.486734,-3.70058059692383,-4.50951910018921,8.11309242248535,2.00201678276062,0.61902052164078,0.99232566356659
754,3826027770,0.817982,-0.106952,0.287366,-0.486710,-3.67398905754089,-4.52590274810791,8.10923767089844,-0.00984167866409,0.64003574848175,0.89963322877884
755,3826044437,0.817962,-0.107023,0.287409,-0.486704,-3.64401984214783,-4.58091449737549,8.07585144042969,0.36258617043495,0.62559014558792,0.88014197349548
756,3826061104,0.817963,-0.106931,0.287369,-0.486746,-3.62265110015869,-4.52530860900879,8.08435058593750,1.66720736026764,0.70812708139420,0.93351876735687
757,3826077771,0.817956,-0.106993,0.287436,-0.486705,-3.64289331436157,-4.53526115417480,8.11337184906006,0.27419671416283,0.74119311571121,1.15917944908142
758,3826094438,0.817963,-0.106912,0.287449,-0.486704,-3.63341784477234,-4.55079984664917,8.06110668182373,1.34560143947601,0.91809982061386,1.22153353691101
759,3826111105,0.817976,-0.106794,0.287437,-0.486714,-3.65474319458008,-4.51367282867432,8.07175827026367,1.66449260711670,0.90462774038315,1.22931993007660
760,3826127772,0.817967,-0.106784,0.287480,-0.486706,-3.66404080390930,-4.52722978591919,8.08660030364990,0.82361471652985,0.87788796424866,1.09165167808533
761,3826144439,0.817958,-0.106795,0.287528,-0.486690,-3.66165089607239,-4.57185125350952,8.09144210815430,0.66984891891479,0.82454961538315,1.09466123580933
762,3826161106,0.817949,-0.106693,0.287508,-0.486739,-3.66807889938354,-4.55694961547852,8.09910202026367,1.66369831562042,0.87404614686966,0.89987659454346
