sep=,
DeviceTag:,B
FirmwareVersion:,3.0.0
AppVersion:,2023.6.0
StartTime: ,2024-03-14_11:59:11_000 EDT
© Movella Technologies B. V. 2005-2024

PacketCounter,SampleTimeFine,Quat_W,Quat_X,Quat_Y,Quat_Z,Acc_X,Acc_Y,Acc_Z,Gyr_X,Gyr_Y,Gyr_Z
0,3813494186,0.243398,-0.692541,-0.045739,-0.677534,0.00000000000000,0.00000000000000,0.00000000000000,0.00000000000000,0.00000000000000,0.00000000000000
1,3813510853,0.243352,-0.692551,-0.045749,-0.677540,9.71344089508057,-2.81397271156311,0.28759849071503,2.96645021438599,3.42494344711304,0.99464374780655
2,3813527520,0.243299,-0.692563,-0.045770,-0.677545,9.71044158935547,-2.81707906723022,0.29283559322357,3.28685259819031,3.30688190460205,0.93280184268951
3,3813544187,0.243254,-0.692570,-0.045810,-0.677551,9.71325206756592,-2.77398610115051,0.31662991642952,3.38927793502808,3.31181240081787,0.87649238109589
4,3813560854,0.243256,-0.692563,-0.045872,-0.677554,9.71762371063232,-2.76819062232971,0.31031808257103,3.37161779403687,3.45160603523254,0.97052925825119
5,3813577521,0.243281,-0.692552,-0.045967,-0.677550,9.73394107818604,-2.76534652709961,0.30079835653305,3.33747577667236,3.47493934631348,0.91174811124802
6,3813594188,0.243419,-0.692536,-0.046170,-0.677502,9.72147941589355,-2.76388740539551,0.28156191110611,3.03630900382996,3.53880453109741,0.93193107843399
7,3813610855,0.243368,-0.692547,-0.046184,-0.677509,9.72625446319580,-2.77253580093384,0.27891203761101,2.80955982208252,3.46941995620728,0.94600522518158
8,3813627522,0.243430,-0.692544,-0.046285,-0.677482,9.75525283813477,-2.79564547538757,0.28408703207970,2.97581195831299,3.48989701271057,1.06313192844391
9,3813644189,0.243379,-0.692560,-0.046292,-0.677484,9.75092983245850,-2.76854109764099,0.27633187174797,3.18963956832886,3.30615186691284,1.01699078083038
10,3813660856,0.243365,-0.692573,-0.046335,-0.677472,9.72898864746094,-2.76653218269348,0.28832107782364,3.30658745765686,3.26939773559570,1.02407276630402
11,3813677523,0.243416,-0.692585,-0.046442,-0.677435,9.73404121398926,-2.76833367347717,0.28497934341431,3.48049712181091,3.20031952857971,1.03598237037659
12,3813694190,0.243371,-0.692602,-0.046450,-0.677433,9.74660778045654,-2.75765395164490,0.28916254639626,3.24776744842529,3.26948690414429,1.04214239120483
13,3813710857,0.243215,-0.692620,-0.046330,-0.677479,9.73274517059326,-2.77493643760681,0.27460622787476,2.93292331695557,3.44164276123047,1.09518635272980
14,3813727524,0.243155,-0.692629,-0.046296,-0.677494,9.70945072174072,-2.77330946922302,0.28568226099014,3.02483439445496,3.44563865661621,1.14730823040009
15,3813744191,0.243089,-0.692637,-0.046258,-0.677512,9.70013332366943,-2.75766444206238,0.29594618082047,3.12673473358154,3.42817044258118,1.13021171092987
16,3813760858,0.243183,-0.692630,-0.046357,-0.677478,9.66030216217041,-2.75332832336426,0.28341394662857,3.36858248710632,3.41254663467407,1.25378012657166
17,3813777525,0.243183,-0.692622,-0.046347,-0.677487,9.66334152221680,-2.74302172660828,0.30046546459198,3.52024841308594,3.45450067520142,1.32164108753204
18,3813794192,0.243214,-0.692609,-0.046372,-0.677488,9.75481128692627,-2.76243591308594,0.25314253568649,3.68778085708618,3.43302440643311,1.29272425174713
19,3813810859,0.243139,-0.692600,-0.046298,-0.677529,9.80951023101807,-2.77372956275940,0.23150350153446,3.53005790710449,3.50366377830505,1.25266611576080
20,3813827526,0.243031,-0.692635,-0.046250,-0.677535,9.79231166839600,-2.73945403099060,0.25541099905968,2.93635511398315,3.21375370025635,1.02581417560577
21,3813844193,0.242940,-0.692724,-0.046262,-0.677476,9.71017646789551,-2.76560688018799,0.30267965793610,1.94011080265045,2.94163155555725,0.87553173303604
22,3813860860,0.242799,-0.692800,-0.046207,-0.677452,9.68727970123291,-2.81417417526245,0.27754014730453,2.28323149681091,3.00229549407959,0.94361037015915
23,3813877527,0.242780,-0.692834,-0.046254,-0.677421,9.68956565856934,-2.81615495681763,0.26960089802742,3.43955564498901,3.01940441131592,1.02804267406464
24,3813894194,0.242803,-0.692832,-0.046316,-0.677411,9.72591781616211,-2.76495456695557,0.27985307574272,4.44443130493164,3.08793163299561,1.13810050487518
25,3813910861,0.242981,-0.692808,-0.046503,-0.677359,9.76707649230957,-2.71644496917725,0.29619908332825,4.37708234786987,3.24004507064819,1.25538074970245
26,3813927528,0.243043,-0.692825,-0.046574,-0.677314,9.75021743774414,-2.69565582275391,0.29088458418846,3.52697134017944,3.15072083473206,1.28195416927338
27,3813944195,0.242898,-0.692899,-0.046403,-0.677303,9.73533630371094,-2.70708274841309,0.27140313386917,2.44302868843079,3.05734920501709,1.49363017082214
28,3813960862,0.242811,-0.692990,-0.046294,-0.677248,9.73732089996338,-2.73519897460938,0.26861459016800,1.77209174633026,3.03904986381531,1.48360300064087
29,3813977529,0.242779,-0.693067,-0.046189,-0.677188,9.74293422698975,-2.80307698249817,0.27488160133362,2.02286529541016,3.09540987014771,1.72673130035400
30,3813994196,0.242826,-0.693133,-0.046174,-0.677104,9.73887443542480,-2.80914855003357,0.27652826905251,2.57101559638977,2.99371457099915,1.68545639514923
31,3814010863,0.242857,-0.693186,-0.046189,-0.677038,9.74732112884521,-2.80651736259460,0.26037207245827,3.17853641510010,2.92935013771057,1.45715773105621
32,3814027530,0.242906,-0.693241,-0.046234,-0.676961,9.72674274444580,-2.79011893272400,0.30157613754272,3.53405356407166,2.78922319412231,1.43014931678772
33,3814044197,0.243096,-0.693290,-0.046433,-0.676829,9.69516563415527,-2.78450012207031,0.24862256646156,3.52635669708252,2.75036883354187,1.37214910984039
34,3814060864,0.243007,-0.693327,-0.046332,-0.676829,9.74047756195068,-2.79355263710022,0.23534099757671,3.52816200256348,3.05311036109924,1.40376794338226
35,3814077531,0.243039,-0.693351,-0.046356,-0.676792,9.73730468750000,-2.77029395103455,0.26552698016167,3.32172393798828,3.17647480964661,1.36598932743073
36,3814094198,0.243130,-0.693355,-0.046464,-0.676748,9.73978424072266,-2.76126718521118,0.25226965546608,2.96935701370239,3.41701602935791,1.19759881496429
37,3814110865,0.243125,-0.693362,-0.046498,-0.676741,9.72603893280029,-2.76701569557190,0.26549452543259,2.73059558868408,3.50176835060120,1.06456637382507
38,3814127532,0.243028,-0.693409,-0.046453,-0.676730,9.71619129180908,-2.75151729583740,0.25958245992661,2.39217472076416,3.24721622467041,1.06325995922089
39,3814144199,0.242950,-0.693467,-0.046446,-0.676699,9.72441387176514,-2.77725005149841,0.25293499231339,2.35133576393127,3.12911677360535,0.98871439695358
40,3814160866,0.242886,-0.693498,-0.046447,-0.676690,9.71271800994873,-2.79331827163696,0.24947851896286,3.11782145500183,3.16740751266479,1.00602865219116
41,3814177533,0.242942,-0.693498,-0.046559,-0.676662,9.68671417236328,-2.77777504920959,0.27552691102028,3.83547663688660,3.19614505767822,1.02960491180420
42,3814194200,0.242976,-0.693480,-0.046641,-0.676662,9.72182655334473,-2.74694633483887,0.25852164626122,3.93453383445740,3.36872386932373,1.03202533721924
43,3814210867,0.243079,-0.693461,-0.046770,-0.676637,9.74866676330566,-2.74314761161804,0.25796911120415,3.46763968467712,3.49189472198486,1.12945616245270
44,3814227534,0.242990,-0.693477,-0.046686,-0.676658,9.75238132476807,-2.73694539070129,0.25509041547775,2.68446731567383,3.49208736419678,1.24244666099548
45,3814244201,0.242981,-0.693500,-0.046674,-0.676639,9.75096225738525,-2.74163937568665,0.26462668180466,2.10494136810303,3.55349349975586,1.27008271217346
46,3814260868,0.242891,-0.693512,-0.046550,-0.676667,9.73772907257080,-2.75823521614075,0.25966116786003,1.97224187850952,3.76452875137329,1.38984739780426
47,3814277535,0.242867,-0.693515,-0.046493,-0.676677,9.74746704101562,-2.80422091484070,0.28602167963982,2.25918126106262,3.73550987243652,1.38647949695587
48,3814294202,0.242968,-0.693472,-0.046551,-0.676681,9.74937820434570,-2.81150150299072,0.28807851672173,2.98939919471741,3.90487384796143,1.38974523544312
49,3814310869,0.243112,-0.693416,-0.046657,-0.676679,9.73623466491699,-2.78598451614380,0.28505748510361,3.59870028495789,3.82913804054260,1.37903916835785
50,3814327536,0.243173,-0.693363,-0.046689,-0.676709,9.72807884216309,-2.77238893508911,0.28930798172951,3.94413805007935,3.74302697181702,1.33926236629486
51,3814344203,0.243287,-0.693312,-0.046778,-0.676714,9.70957183837891,-2.75578379631042,0.29027685523033,3.89853501319885,3.70207262039185,1.32800579071045
52,3814360870,0.243409,-0.693266,-0.046850,-0.676712,9.69172096252441,-2.75869345664978,0.28983482718468,3.53511667251587,3.75874114036560,1.44316077232361
53,3814377537,0.243474,-0.693212,-0.046849,-0.676744,9.70106601715088,-2.74841141700745,0.28096529841423,3.36940169334412,3.94403553009033,1.49852228164673
54,3814394204,0.243465,-0.693184,-0.046775,-0.676782,9.68919086456299,-2.74897646903992,0.28377729654312,2.82277584075928,3.89042830467224,1.50213372707367
55,3814410871,0.243288,-0.693168,-0.046556,-0.676876,9.68322563171387,-2.76162481307983,0.27143901586533,2.49489450454712,3.94500899314880,1.38165140151978
56,3814427538,0.243216,-0.693152,-0.046465,-0.676925,9.69553184509277,-2.80146121978760,0.27950218319893,2.47945022583008,3.88049054145813,1.27735674381256
57,3814444205,0.243147,-0.693142,-0.046420,-0.676963,9.69622707366943,-2.81620526313782,0.24515481293201,2.71615028381348,3.71161365509033,1.10074436664581
58,3814460872,0.243088,-0.693134,-0.046426,-0.676992,9.70632076263428,-2.81225824356079,0.27449959516525,3.13285613059998,3.54929256439209,0.91623038053513
59,3814477539,0.243116,-0.693113,-0.046534,-0.676996,9.72787380218506,-2.79488945007324,0.27000832557678,3.76089215278625,3.42539143562317,0.86312240362167
60,3814494206,0.243108,-0.693097,-0.046603,-0.677011,9.72910308837891,-2.75470614433289,0.28694245219231,3.92011380195618,3.35992550849915,0.89139884710312
61,3814510873,0.243115,-0.693097,-0.046698,-0.677002,9.73931598663330,-2.72494769096375,0.28771656751633,3.67287373542786,3.25546360015869,0.86624705791473
62,3814527540,0.243057,-0.693103,-0.046694,-0.677017,9.76016139984131,-2.72308659553528,0.30165931582451,2.98551893234253,3.45181131362915,0.99182617664337
63,3814544207,0.242953,-0.693114,-0.046618,-0.677048,9.73536777496338,-2.75193309783936,0.29900065064430,2.43578052520752,3.60927724838257,1.09791409969330
64,3814560874,0.242903,-0.693120,-0.046572,-0.677062,9.71134185791016,-2.76182293891907,0.29488426446915,2.44975280761719,3.62514519691467,1.22030460834503
65,3814577541,0.242819,-0.693119,-0.046486,-0.677100,9.71190738677979,-2.76921868324280,0.28567251563072,2.50826478004456,3.71377801895142,1.22634911537170
66,3814594208,0.242770,-0.693095,-0.046396,-0.677148,9.68417358398438,-2.76755499839783,0.30059874057770,3.16768908500671,3.74652361869812,1.40798139572144
67,3814610875,0.242789,-0.693080,-0.046379,-0.677158,9.67867469787598,-2.74886941909790,0.33575230836868,3.47730851173401,3.53229928016663,1.42646110057831
68,3814627542,0.242820,-0.693039,-0.046341,-0.677191,9.76113319396973,-2.75918054580688,0.27476826310158,3.31926584243774,3.84040713310242,1.52658128738403
69,3814644209,0.242866,-0.692994,-0.046321,-0.677222,9.80470752716064,-2.77746391296387,0.27186280488968,3.25269818305969,3.89414238929749,1.50356817245483
70,3814660876,0.242812,-0.692986,-0.046232,-0.677255,9.76597118377686,-2.75320696830750,0.31932854652405,2.75809073448181,3.70766925811768,1.38829791545868
71,3814677543,0.242760,-0.692992,-0.046136,-0.677274,9.70890903472900,-2.78987693786621,0.31206184625626,2.50060677528381,3.65075755119324,1.45335447788239
72,3814694210,0.242742,-0.692970,-0.046084,-0.677308,9.66448879241943,-2.81141376495361,0.28625079989433,3.08953213691711,3.73433160781860,1.38115215301514
73,3814710877,0.242904,-0.692941,-0.046241,-0.677268,9.67356300354004,-2.80107116699219,0.27712449431419,3.67310452461243,3.49732470512390,1.27469277381897
74,3814727544,0.242952,-0.692926,-0.046225,-0.677268,9.70828819274902,-2.76500725746155,0.29300573468208,3.97432279586792,3.38473129272461,1.58750081062317
75,3814744211,0.243096,-0.692893,-0.046277,-0.677246,9.74269199371338,-2.72695851325989,0.28560572862625,3.70875763893127,3.59356451034546,1.68552064895630
76,3814760878,0.243030,-0.692917,-0.046077,-0.677259,9.74216842651367,-2.67768025398254,0.25782972574234,2.57725262641907,3.51722621917725,1.93260657787323
77,3814777545,0.242913,-0.692985,-0.045837,-0.677248,9.73962688446045,-2.68907499313354,0.27480173110962,1.28057086467743,3.47710323333740,1.89901506900787
78,3814794212,0.242685,-0.693087,-0.045489,-0.677249,9.71861839294434,-2.74953722953796,0.27455139160156,0.58627480268478,3.40793681144714,1.90726268291473
79,3814810879,0.242613,-0.693182,-0.045287,-0.677191,9.70547676086426,-2.83006405830383,0.26401820778847,1.25083470344543,3.19725942611694,1.99091398715973
80,3814827546,0.242664,-0.693239,-0.045212,-0.677118,9.71454906463623,-2.84796810150146,0.28284725546837,2.63307523727417,3.08426833152771,1.98664915561676
81,3814844213,0.242822,-0.693280,-0.045286,-0.677016,9.72843551635742,-2.81332230567932,0.29792314767838,3.59823846817017,2.88776779174805,1.79813957214355
82,3814860880,0.242963,-0.693309,-0.045385,-0.676928,9.70990753173828,-2.81641769409180,0.31078052520752,3.75167131423950,2.92641735076904,1.58017551898956
83,3814877547,0.243020,-0.693358,-0.045443,-0.676853,9.67090797424316,-2.78042936325073,0.28247380256653,3.55738735198975,2.81354284286499,1.38622367382050
84,3814894214,0.243046,-0.693399,-0.045442,-0.676802,9.68935394287109,-2.78752613067627,0.25280544161797,3.23730468750000,3.02872800827026,1.49037754535675
85,3814910881,0.243050,-0.693419,-0.045414,-0.676782,9.73563957214355,-2.81664443016052,0.25768586993217,3.06044888496399,3.30287337303162,1.45326471328735
86,3814927548,0.243043,-0.693433,-0.045398,-0.676772,9.73711585998535,-2.78583168983459,0.28146734833717,2.75428771972656,3.44995403289795,1.31436717510223
87,3814944215,0.243020,-0.693444,-0.045378,-0.676770,9.72905349731445,-2.76907682418823,0.29265987873077,2.52345299720764,3.53753662109375,1.24094820022583
88,3814960882,0.242958,-0.693482,-0.045307,-0.676758,9.71455192565918,-2.80332231521606,0.29920354485512,2.34664821624756,3.35530185699463,1.33552277088165
89,3814977549,0.242893,-0.693534,-0.045257,-0.676732,9.71254634857178,-2.80491375923157,0.27947741746902,2.36074781417847,3.19473576545715,1.25264024734497
90,3814994216,0.242935,-0.693538,-0.045308,-0.676709,9.70798873901367,-2.82396078109741,0.27832305431366,3.20348286628723,3.36452293395996,1.23682451248169
91,3815010883,0.243092,-0.693509,-0.045471,-0.676671,9.70166397094727,-2.79921412467957,0.29201245307922,3.75135159492493,3.47245526313782,1.22063744068146
92,3815027550,0.243162,-0.693485,-0.045522,-0.676668,9.71954345703125,-2.77271318435669,0.28701779246330,3.74491000175476,3.49166417121887,1.34224653244019
93,3815044217,0.243129,-0.693489,-0.045416,-0.676682,9.73402881622314,-2.72941565513611,0.28890734910965,3.05542850494385,3.50685262680054,1.61299812793732
94,3815060884,0.242996,-0.693530,-0.045198,-0.676702,9.74088287353516,-2.74609756469727,0.25970661640167,1.91412675380707,3.53821539878845,1.68934977054596
95,3815077551,0.242872,-0.693582,-0.044987,-0.676708,9.71001625061035,-2.78111267089844,0.26079770922661,1.39973390102386,3.58070635795593,1.68993866443634
96,3815094218,0.242719,-0.693646,-0.044751,-0.676713,9.71826934814453,-2.81085348129272,0.27502396702766,1.44803965091705,3.46054434776306,1.69789135456085
97,3815110885,0.242658,-0.693690,-0.044604,-0.676699,9.71712207794189,-2.83757138252258,0.27675566077232,2.04035902023315,3.42968153953552,1.71200418472290
98,3815127552,0.242699,-0.693709,-0.044598,-0.676665,9.71727848052979,-2.83523154258728,0.29240953922272,2.76094698905945,3.37630510330200,1.52337956428528
99,3815144219,0.242783,-0.693726,-0.044637,-0.676616,9.72551441192627,-2.81490278244019,0.28501886129379,3.30666351318359,3.22339653968811,1.52830982208252
100,3815160886,0.242901,-0.693728,-0.044735,-0.676564,9.71988773345947,-2.81238269805908,0.27795460820198,3.47472143173218,3.27346968650818,1.39844071865082
101,3815177553,0.242980,-0.693732,-0.044804,-0.676528,9.71064281463623,-2.78939652442932,0.27919521927834,3.27441716194153,3.34404540061951,1.33311533927917
102,3815194220,0.242991,-0.693738,-0.044805,-0.676517,9.70478153228760,-2.76995444297791,0.26789486408234,2.96414542198181,3.44716215133667,1.31922054290771
103,3815210887,0.242976,-0.693753,-0.044797,-0.676508,9.68667221069336,-2.79202246665955,0.29477158188820,2.55367588996887,3.47904992103577,1.22275042533875
104,3815227554,0.242908,-0.693763,-0.044720,-0.676528,9.71356010437012,-2.79838061332703,0.27341651916504,2.61218833923340,3.55974292755127,1.28983020782471
105,3815244221,0.242967,-0.693749,-0.044766,-0.676517,9.71164703369141,-2.82646369934082,0.27761793136597,2.74355602264404,3.68204402923584,1.29146933555603
106,3815260888,0.242971,-0.693731,-0.044764,-0.676535,9.71725940704346,-2.81424093246460,0.28431928157806,3.15220642089844,3.63038253784180,1.24943876266479
107,3815277555,0.243015,-0.693698,-0.044810,-0.676549,9.72636413574219,-2.81207799911499,0.28455802798271,3.39665389060974,3.67305374145508,1.19599795341492
108,3815294222,0.243037,-0.693679,-0.044830,-0.676560,9.72182083129883,-2.78202342987061,0.26683169603348,3.49111390113831,3.53405332565308,1.25103962421417
109,3815310889,0.243044,-0.693668,-0.044839,-0.676568,9.71977424621582,-2.74983453750610,0.29117980599403,3.37072086334229,3.49472451210022,1.24107611179352
110,3815327556,0.243035,-0.693658,-0.044811,-0.676583,9.72811031341553,-2.78311085700989,0.28159576654434,3.09927701950073,3.57457184791565,1.32862031459808
111,3815344223,0.243024,-0.693657,-0.044763,-0.676591,9.73780155181885,-2.79768776893616,0.27551224827766,2.98856639862061,3.53922677040100,1.42713940143585
112,3815360890,0.243017,-0.693657,-0.044733,-0.676595,9.69011211395264,-2.78665733337402,0.25366455316544,3.10416984558105,3.48135519027710,1.37331449985504
113,3815377557,0.243006,-0.693644,-0.044698,-0.676615,9.69044113159180,-2.78268766403198,0.26307442784309,3.05852746963501,3.62759089469910,1.34530699253082
114,3815394224,0.242990,-0.693658,-0.044677,-0.676608,9.65011024475098,-2.77658247947693,0.27378341555595,3.07075858116150,3.35467529296875,1.30929589271545
115,3815410891,0.242951,-0.693697,-0.044640,-0.676585,9.66359138488770,-2.78242421150208,0.24622833728790,2.84575033187866,3.17477130889893,1.30724656581879
116,3815427558,0.242931,-0.693717,-0.044613,-0.676573,9.75514316558838,-2.82973790168762,0.22271220386028,3.02292656898499,3.30506300926208,1.32933747768402
117,3815444225,0.242907,-0.693739,-0.044613,-0.676558,9.78847694396973,-2.81321454048157,0.26799547672272,3.13033294677734,3.22997951507568,1.18580400943756
118,3815460892,0.242897,-0.693796,-0.044675,-0.676500,9.76370716094971,-2.78505349159241,0.28739914298058,2.55408549308777,3.01730394363403,0.99479722976685
119,3815477559,0.242750,-0.693880,-0.044604,-0.676471,9.72320461273193,-2.80427598953247,0.29921892285347,2.11002564430237,2.96310758590698,0.99839586019516
120,3815494226,0.242667,-0.693920,-0.044605,-0.676460,9.69112491607666,-2.87227153778076,0.30455410480499,2.80177307128906,3.15380668640137,0.90282201766968
121,3815510893,0.242693,-0.693937,-0.044693,-0.676427,9.68345260620117,-2.85294961929321,0.28962197899818,3.76595044136047,3.04414606094360,1.02641606330872
122,3815527560,0.242794,-0.693897,-0.044830,-0.676423,9.69925594329834,-2.79974365234375,0.28437986969948,4.46885299682617,3.38151693344116,1.08080482482910
123,3815544227,0.242901,-0.693841,-0.044922,-0.676436,9.73161220550537,-2.75886058807373,0.27476793527603,4.29840040206909,3.60998201370239,1.28028929233551
124,3815560894,0.242880,-0.693833,-0.044918,-0.676452,9.74210739135742,-2.73291897773743,0.28826373815536,3.16247677803040,3.53204274177551,1.15558087825775
125,3815577561,0.242785,-0.693861,-0.044810,-0.676465,9.73892879486084,-2.74528455734253,0.27437502145767,2.26527690887451,3.49421238899231,1.33448565006256
126,3815594228,0.242679,-0.693886,-0.044660,-0.676487,9.73121929168701,-2.79166412353516,0.26817756891251,2.01017427444458,3.62088012695312,1.45514702796936
127,3815610895,0.242628,-0.693908,-0.044559,-0.676490,9.71848678588867,-2.82342171669006,0.26667609810829,2.51246547698975,3.48075366020203,1.51296818256378
128,3815627562,0.242611,-0.693922,-0.044511,-0.676484,9.72919940948486,-2.80422806739807,0.28490915894508,2.94439816474915,3.39137840270996,1.42637157440186
129,3815644229,0.242602,-0.693930,-0.044500,-0.676480,9.74612426757812,-2.81667709350586,0.29011487960815,3.15629196166992,3.37243747711182,1.28856241703033
130,3815660896,0.242594,-0.693945,-0.044544,-0.676464,9.67574405670166,-2.81504845619202,0.29905974864960,3.41244435310364,3.19031810760498,1.04712402820587
131,3815677563,0.242611,-0.693939,-0.044593,-0.676462,9.67536354064941,-2.81438231468201,0.24964112043381,3.58827543258667,3.35397028923035,1.11251318454742
132,3815694230,0.242659,-0.693906,-0.044666,-0.676473,9.70189571380615,-2.83395075798035,0.23962254822254,3.87205171585083,3.51810979843140,1.11262869834900
133,3815710897,0.242694,-0.693874,-0.044746,-0.676488,9.74333858489990,-2.76157879829407,0.26571246981621,3.85184335708618,3.51052832603455,1.01185548305511
134,3815727564,0.242654,-0.693868,-0.044754,-0.676508,9.72939109802246,-2.70728945732117,0.28919252753258,3.10944628715515,3.50739097595215,1.00067555904388
135,3815744231,0.242518,-0.693893,-0.044662,-0.676537,9.74772071838379,-2.73774242401123,0.29015403985977,2.13622713088989,3.54826784133911,1.03500902652740
136,3815760898,0.242340,-0.693949,-0.044517,-0.676553,9.71873188018799,-2.80410027503967,0.26714348793030,1.64734506607056,3.41426301002502,1.11768722534180
137,3815777565,0.242211,-0.693979,-0.044437,-0.676574,9.70441818237305,-2.84463953971863,0.27655026316643,2.22889399528503,3.46383571624756,1.02056360244751
138,3815794232,0.242172,-0.693961,-0.044461,-0.676605,9.69790935516357,-2.83626556396484,0.27914270758629,3.21541833877563,3.58926105499268,0.91407889127731
139,3815810899,0.242184,-0.693924,-0.044555,-0.676632,9.70495128631592,-2.80293965339661,0.27335891127586,3.80748176574707,3.56202244758606,0.81757020950317
140,3815827566,0.242201,-0.693894,-0.044658,-0.676650,9.72816467285156,-2.78864502906799,0.29280003905296,3.85526275634766,3.47451710700989,0.80797833204269
141,3815844233,0.242196,-0.693871,-0.044723,-0.676672,9.72002315521240,-2.78413462638855,0.26289689540863,3.55852675437927,3.52275848388672,0.88600742816925
142,3815860900,0.242132,-0.693852,-0.044745,-0.676713,9.71427822113037,-2.76387715339661,0.28280833363533,3.08333349227905,3.63638854026794,0.79125308990479
143,3815877567,0.242011,-0.693862,-0.044712,-0.676747,9.71881580352783,-2.76594805717468,0.25003042817116,2.51850962638855,3.54396533966064,0.80485349893570
144,3815894234,0.241881,-0.693876,-0.044666,-0.676782,9.71896839141846,-2.77810478210449,0.27648624777794,2.37998318672180,3.55175137519836,0.82585591077805
145,3815910901,0.241770,-0.693880,-0.044651,-0.676819,9.71022415161133,-2.79913377761841,0.28015884757042,2.64831447601318,3.55715560913086,0.75714987516403
146,3815927568,0.241692,-0.693871,-0.044673,-0.676855,9.71751117706299,-2.79458832740784,0.28873044252396,3.00755882263184,3.56852841377258,0.73464912176132
147,3815944235,0.241642,-0.693853,-0.044741,-0.676887,9.70946311950684,-2.79519915580750,0.29158726334572,3.36119318008423,3.51700806617737,0.65262448787689
148,3815960902,0.241618,-0.693834,-0.044822,-0.676909,9.70836162567139,-2.78871297836304,0.30151832103729,3.53889369964600,3.46076202392578,0.72414785623550
149,3815977569,0.241593,-0.693824,-0.044896,-0.676924,9.71573829650879,-2.77929496765137,0.28934976458549,3.49884843826294,3.40122604370117,0.76441103219986
150,3815994236,0.241541,-0.693838,-0.044960,-0.676923,9.71157073974609,-2.74218535423279,0.28762632608414,3.29666233062744,3.21658396720886,0.72010111808777
151,3816010903,0.241438,-0.693847,-0.044966,-0.676950,9.73885345458984,-2.74180912971497,0.29795545339584,2.76191973686218,3.45638251304626,0.71177691221237
152,3816027570,0.241352,-0.693848,-0.044934,-0.676982,9.70699501037598,-2.77001523971558,0.28601375222206,2.69058871269226,3.58727693557739,0.96516335010529
153,3816044237,0.241273,-0.693856,-0.044933,-0.677003,9.70675373077393,-2.75549125671387,0.28715479373932,2.85818552970886,3.44790482521057,0.87117761373520
154,3816060904,0.241197,-0.693866,-0.044911,-0.677020,9.73459243774414,-2.77710127830505,0.30488944053650,2.78024601936340,3.45710039138794,0.99000787734985
155,3816077571,0.241157,-0.693887,-0.044935,-0.677012,9.72567081451416,-2.78324270248413,0.29008355736732,3.15344882011414,3.22284650802612,0.98409134149551
156,3816094238,0.241178,-0.693906,-0.045017,-0.676980,9.74769306182861,-2.76233124732971,0.29698422551155,3.27263736724854,3.16859865188599,1.00770604610443
157,3816110905,0.241151,-0.693914,-0.045023,-0.676980,9.74794864654541,-2.76040244102478,0.28433936834335,3.15745711326599,3.34845137596130,1.10872268676758
158,3816127572,0.241167,-0.693919,-0.045075,-0.676966,9.71173858642578,-2.77635550498962,0.27022618055344,2.91927170753479,3.42531442642212,1.08317399024963
159,3816144239,0.241106,-0.693941,-0.045070,-0.676965,9.69007396697998,-2.75837302207947,0.30023506283760,2.91413640975952,3.29191112518311,1.01478815078735
160,3816160906,0.241051,-0.693953,-0.045074,-0.676973,9.66771984100342,-2.73774409294128,0.27310463786125,2.98216390609741,3.36936378479004,0.97921198606491
161,3816177573,0.241046,-0.693967,-0.045055,-0.676961,9.65468883514404,-2.74167895317078,0.30506905913353,3.12609481811523,3.31357955932617,1.35965049266815
162,3816194240,0.241021,-0.693963,-0.044975,-0.676980,9.71537494659424,-2.76173353195190,0.29523822665215,3.56031966209412,3.41605591773987,1.53298437595367
163,3816210907,0.241130,-0.693960,-0.045068,-0.676938,9.82372379302979,-2.74953651428223,0.24180279672146,3.55552911758423,3.29643130302429,1.36126375198364
164,3816227574,0.241057,-0.693999,-0.045046,-0.676926,9.81307601928711,-2.72871565818787,0.25933387875557,2.77518749237061,3.17265820503235,1.06360578536987
165,3816244241,0.240850,-0.694111,-0.044894,-0.676894,9.70159816741943,-2.71983528137207,0.30176344513893,1.38518595695496,2.92308759689331,1.11517679691315
166,3816260908,0.240659,-0.694225,-0.044670,-0.676860,9.64988231658936,-2.81333398818970,0.28915059566498,1.11054110527039,3.02996969223022,1.53768408298492
167,3816277575,0.240678,-0.694260,-0.044679,-0.676816,9.63719940185547,-2.86236500740051,0.26235291361809,2.58068466186523,3.24607658386230,1.35512948036194
168,3816294242,0.240777,-0.694249,-0.044781,-0.676787,9.64997005462646,-2.80082297325134,0.26984733343124,4.22791481018066,3.18030381202698,1.27877843379974
169,3816310909,0.240955,-0.694202,-0.044962,-0.676759,9.72628879547119,-2.73930835723877,0.29185017943382,5.03841543197632,3.24395108222961,1.26099002361298
170,3816327576,0.241096,-0.694182,-0.045095,-0.676721,9.76267242431641,-2.69794654846191,0.30242973566055,4.61333370208740,3.13947653770447,1.34049189090729
171,3816344243,0.241115,-0.694213,-0.045098,-0.676681,9.76957988739014,-2.71061086654663,0.27491149306297,3.31916284561157,3.07215404510498,1.41485846042633
172,3816360910,0.241064,-0.694291,-0.044974,-0.676628,9.75720882415771,-2.72834396362305,0.24589735269547,2.33071708679199,2.97397994995117,1.73389005661011
173,3816377577,0.240923,-0.694390,-0.044719,-0.676594,9.74677944183350,-2.77484369277954,0.27512687444687,1.69393467903137,3.03254413604736,1.93209421634674
174,3816394244,0.240837,-0.694480,-0.044494,-0.676547,9.74088191986084,-2.81092047691345,0.26723420619965,1.67361056804657,3.11144351959229,2.04202365875244
175,3816410911,0.240933,-0.694542,-0.044465,-0.676451,9.76317787170410,-2.80388569831848,0.29128226637840,1.96984708309174,3.17957329750061,1.96084427833557
176,3816427578,0.240899,-0.694605,-0.044364,-0.676405,9.69026279449463,-2.81985020637512,0.29764440655708,2.53614425659180,3.04572176933289,1.68603289127350
177,3816444245,0.240933,-0.694639,-0.044337,-0.676360,9.65224266052246,-2.82412528991699,0.28401023149490,3.25464463233948,3.08891773223877,1.63111948966980
178,3816460912,0.241112,-0.694609,-0.044446,-0.676320,9.71809577941895,-2.81603956222534,0.24908629059792,4.06018877029419,3.40660405158997,1.60822129249573
179,3816477579,0.241222,-0.694565,-0.044527,-0.676320,9.73218822479248,-2.80340719223022,0.25034546852112,4.22713327407837,3.51506185531616,1.37366044521332
180,3816494246,0.241257,-0.694535,-0.044559,-0.676336,9.75161933898926,-2.75666570663452,0.24977821111679,3.61823010444641,3.57604527473450,1.23445558547974
181,3816510913,0.241223,-0.694532,-0.044522,-0.676354,9.73730087280273,-2.75987792015076,0.25893855094910,2.92402291297913,3.55587530136108,1.25483036041260
182,3816527580,0.241121,-0.694556,-0.044415,-0.676373,9.71149349212646,-2.78442907333374,0.25777187943459,2.22904753684998,3.52826499938965,1.27079987525940
183,3816544247,0.241007,-0.694596,-0.044310,-0.676379,9.69958019256592,-2.81360530853271,0.25071039795876,2.14848279953003,3.39302945137024,1.23705494403839
184,3816560914,0.240968,-0.694593,-0.044289,-0.676397,9.69240379333496,-2.81892848014832,0.26312503218651,2.97617053985596,3.52458930015564,1.15095806121826
185,3816577581,0.240994,-0.694576,-0.044323,-0.676403,9.68815040588379,-2.78005456924438,0.26630252599716,3.55025386810303,3.46632099151611,1.20591008663177
186,3816594248,0.241035,-0.694547,-0.044374,-0.676416,9.72281360626221,-2.76507902145386,0.26716321706772,3.74338650703430,3.53018641471863,1.18118107318878
187,3816610915,0.241034,-0.694529,-0.044401,-0.676432,9.73498153686523,-2.75303721427917,0.25339818000793,3.40937018394470,3.51504874229431,1.09076809883118
188,3816627582,0.241014,-0.694543,-0.044430,-0.676423,9.72946643829346,-2.75060772895813,0.27200183272362,2.76556992530823,3.39116024971008,1.02841401100159
189,3816644249,0.241028,-0.694577,-0.044458,-0.676382,9.73216915130615,-2.77710318565369,0.26445806026459,2.42586851119995,3.28872179985046,1.23030602931976
190,3816660916,0.240962,-0.694619,-0.044381,-0.676367,9.72849559783936,-2.78327322006226,0.26108077168465,2.50610041618347,3.24780559539795,1.36061048507690
191,3816677583,0.240924,-0.694649,-0.044319,-0.676353,9.73145103454590,-2.80661153793335,0.27420759201050,2.73977756500244,3.28897762298584,1.41479420661926
192,3816694250,0.240902,-0.694671,-0.044284,-0.676341,9.74251937866211,-2.78606796264648,0.28168448805809,2.96248054504395,3.29580426216125,1.35503995418549
193,3816710917,0.240880,-0.694691,-0.044262,-0.676330,9.73534297943115,-2.78460812568665,0.27257719635963,3.01762461662292,3.28271627426147,1.28579592704773
194,3816727584,0.240858,-0.694699,-0.044232,-0.676332,9.73294448852539,-2.80780625343323,0.27143293619156,3.00104022026062,3.42591643333435,1.30610704421997
195,3816744251,0.240832,-0.694692,-0.044205,-0.676349,9.71813106536865,-2.80375242233276,0.29217553138733,3.01484584808350,3.54983115196228,1.24116599559784
196,3816760918,0.240788,-0.694684,-0.044175,-0.676375,9.71731758117676,-2.80066919326782,0.28638052940369,2.92141079902649,3.59788036346436,1.15618300437927
197,3816777585,0.240799,-0.694670,-0.044171,-0.676387,9.71860980987549,-2.81104826927185,0.27996283769608,3.30935263633728,3.53400158882141,1.30695199966431
198,3816794252,0.240828,-0.694637,-0.044201,-0.676408,9.73632526397705,-2.78779721260071,0.28843504190445,3.58174443244934,3.61338901519775,1.20889413356781
199,3816810919,0.240852,-0.694601,-0.044235,-0.676434,9.73767280578613,-2.78462076187134,0.28405308723450,3.56939935684204,3.64832472801208,1.15307116508484
200,3816827586,0.240872,-0.694574,-0.044244,-0.676455,9.72520446777344,-2.74642753601074,0.27309456467628,3.43917107582092,3.61767888069153,1.26971125602722
201,3816844253,0.240873,-0.694555,-0.044225,-0.676474,9.73867416381836,-2.75983309745789,0.26625937223434,3.19099664688110,3.61301732063293,1.32161533832550
202,3816860920,0.240831,-0.694538,-0.044151,-0.676512,9.74207687377930,-2.78134894371033,0.24697346985340,2.89972901344299,3.72376656532288,1.35552656650543
203,3816877587,0.240801,-0.694535,-0.044102,-0.676529,9.71309661865234,-2.77717280387878,0.26477822661400,2.87557649612427,3.57256197929382,1.32659709453583
204,3816894254,0.240758,-0.694523,-0.044059,-0.676559,9.70258426666260,-2.77278709411621,0.25705078244209,2.86216831207275,3.65696907043457,1.21682107448578
205,3816910921,0.240741,-0.694523,-0.044045,-0.676566,9.65711402893066,-2.77852559089661,0.26983699202538,3.09719061851501,3.45373225212097,1.23836147785187
206,3816927588,0.240745,-0.694532,-0.044041,-0.676556,9.67030048370361,-2.77953314781189,0.28137373924255,3.22712349891663,3.32806348800659,1.31678748130798
207,3816944255,0.240775,-0.694518,-0.044046,-0.676559,9.76660346984863,-2.78182244300842,0.21579185128212,3.43978619575500,3.48147034645081,1.36794877052307
208,3816960922,0.240765,-0.694499,-0.044048,-0.676582,9.77386379241943,-2.79473662376404,0.24211238324642,3.24646067619324,3.58517575263977,1.16076755523682
209,3816977589,0.240673,-0.694519,-0.044011,-0.676597,9.74250221252441,-2.75676655769348,0.27810391783714,2.59420800209045,3.41915464401245,0.99515593051910
210,3816994256,0.240533,-0.694558,-0.043926,-0.676612,9.70001983642578,-2.79553484916687,0.29349416494370,2.11888742446899,3.39349079132080,0.99885690212250
211,3817010923,0.240468,-0.694563,-0.043893,-0.676632,9.67107582092285,-2.83693909645081,0.30345672369003,2.77034664154053,3.50530338287354,1.08713126182556
212,3817027590,0.240510,-0.694548,-0.043955,-0.676629,9.71967315673828,-2.82245421409607,0.28994065523148,3.76675748825073,3.36726355552673,1.15705370903015
213,3817044257,0.240617,-0.694495,-0.044052,-0.676639,9.73700428009033,-2.76462340354919,0.28904038667679,4.29320144653320,3.56877136230469,1.26157927513123
214,3817060924,0.240675,-0.694442,-0.044097,-0.676669,9.75378322601318,-2.72018384933472,0.26921021938324,3.81620264053345,3.73746895790100,1.25180780887604
215,3817077591,0.240674,-0.694429,-0.044092,-0.676683,9.73562812805176,-2.73125267028809,0.28831127285957,2.99777436256409,3.61240220069885,1.24560952186584
216,3817094258,0.240588,-0.694466,-0.044001,-0.676682,9.72060298919678,-2.74214315414429,0.30078461766243,2.34591865539551,3.34417366981506,1.30948781967163
217,3817110925,0.240509,-0.694504,-0.043848,-0.676681,9.70221328735352,-2.77172279357910,0.27945345640182,2.09513163566589,3.45551156997681,1.63210535049438
218,3817127592,0.240446,-0.694522,-0.043719,-0.676693,9.69276523590088,-2.80514240264893,0.28510415554047,2.31559300422668,3.56471157073975,1.57182574272156
219,3817144259,0.240433,-0.694518,-0.043640,-0.676707,9.71561336517334,-2.82100033760071,0.28546020388603,2.83144545555115,3.61127519607544,1.55480611324310
220,3817160926,0.240452,-0.694501,-0.043616,-0.676720,9.73189640045166,-2.83456778526306,0.26199415326118,3.24264478683472,3.58591842651367,1.43706452846527
221,3817177593,0.240488,-0.694486,-0.043646,-0.676720,9.67292499542236,-2.80089855194092,0.28015521168709,3.59200215339661,3.42963027954102,1.27804827690125
222,3817194260,0.240527,-0.694472,-0.043695,-0.676718,9.69528865814209,-2.80682063102722,0.25018072128296,3.70214986801147,3.38438582420349,1.21267187595367
223,3817210927,0.240614,-0.694435,-0.043767,-0.676719,9.73358917236328,-2.80150294303894,0.24908745288849,4.04815149307251,3.48435187339783,1.30368638038635
224,3817227594,0.240672,-0.694392,-0.043818,-0.676740,9.74142074584961,-2.77177596092224,0.27392688393593,3.81524252891541,3.63537716865540,1.23856627941132
225,3817244261,0.240670,-0.694372,-0.043815,-0.676762,9.72528648376465,-2.73796415328979,0.28516581654549,3.24037766456604,3.60492300987244,1.22365951538086
226,3817260928,0.240598,-0.694385,-0.043746,-0.676778,9.70964050292969,-2.74267315864563,0.26529860496521,2.55808162689209,3.50456023216248,1.23181724548340
227,3817277595,0.240481,-0.694454,-0.043637,-0.676755,9.68965911865234,-2.77191853523254,0.26876819133759,2.07346367835999,3.11841082572937,1.29949903488159
228,3817294262,0.240392,-0.694515,-0.043539,-0.676731,9.71074676513672,-2.79875206947327,0.26648592948914,2.26550722122192,3.13345742225647,1.37359619140625
229,3817310929,0.240387,-0.694537,-0.043511,-0.676712,9.68227863311768,-2.81288480758667,0.27156054973602,3.05887389183044,3.25574588775635,1.40472877025604
230,3817327596,0.240432,-0.694545,-0.043543,-0.676686,9.68214225769043,-2.78963732719421,0.27549052238464,3.60332274436951,3.20339322090149,1.36196804046631
231,3817344263,0.240460,-0.694553,-0.043569,-0.676666,9.71403408050537,-2.76788330078125,0.24841882288456,3.49443054199219,3.23037672042847,1.29775702953339
232,3817360930,0.240428,-0.694579,-0.043547,-0.676652,9.74365615844727,-2.75931024551392,0.26631429791451,2.96116161346436,3.23863673210144,1.25260210037231
233,3817377597,0.240335,-0.694630,-0.043458,-0.676639,9.74943542480469,-2.78718471527100,0.25877532362938,2.31864094734192,3.21377873420715,1.28464329242706
234,3817394264,0.240238,-0.694684,-0.043368,-0.676624,9.74106693267822,-2.78306221961975,0.26532354950905,2.27678966522217,3.19632387161255,1.28313219547272
235,3817410931,0.240159,-0.694722,-0.043291,-0.676617,9.72727012634277,-2.80900406837463,0.28157785534859,2.45724415779114,3.29004096984863,1.28392624855042
236,3817427598,0.240156,-0.694740,-0.043310,-0.676599,9.71760654449463,-2.82097482681274,0.26828494668007,3.10174942016602,3.25614261627197,1.18273067474365
237,3817444265,0.240143,-0.694745,-0.043366,-0.676595,9.72493076324463,-2.80035305023193,0.27852421998978,3.44370412826538,3.25778150558472,0.93843638896942
238,3817460932,0.240147,-0.694736,-0.043423,-0.676599,9.71982479095459,-2.78461265563965,0.28392904996872,3.54160904884338,3.37051582336426,1.00129020214081
239,3817477599,0.240138,-0.694731,-0.043461,-0.676604,9.74035453796387,-2.78736376762390,0.27005091309547,3.39755010604858,3.37238597869873,1.02210032939911
240,3817494266,0.240122,-0.694727,-0.043479,-0.676613,9.73192119598389,-2.76800727844238,0.28757822513580,3.25573253631592,3.42851567268372,1.08323776721954
241,3817510933,0.240099,-0.694718,-0.043481,-0.676630,9.73678779602051,-2.77506208419800,0.26426893472672,3.16549897193909,3.50751829147339,1.11582982540131
242,3817527600,0.240086,-0.694700,-0.043467,-0.676655,9.72351074218750,-2.78410887718201,0.28125038743019,3.14835143089294,3.61557865142822,1.21507930755615
243,3817544267,0.240194,-0.694661,-0.043581,-0.676649,9.73667430877686,-2.77969002723694,0.26167574524879,3.17594933509827,3.73940300941467,1.16773414611816
244,3817560934,0.240153,-0.694635,-0.043580,-0.676690,9.73527622222900,-2.78204655647278,0.27687492966652,3.08700871467590,3.69957494735718,0.99746090173721
245,3817577601,0.240117,-0.694618,-0.043596,-0.676720,9.72377681732178,-2.78435254096985,0.24372103810310,3.16665172576904,3.58653330802917,0.96290940046310
246,3817594268,0.240094,-0.694601,-0.043634,-0.676742,9.73364257812500,-2.80896544456482,0.25253754854202,3.32892131805420,3.51197504997253,0.92505395412445
247,3817610935,0.240105,-0.694592,-0.043734,-0.676742,9.72307872772217,-2.79337453842163,0.24754402041435,3.77364706993103,3.27941179275513,0.82886546850204
248,3817627602,0.240243,-0.694566,-0.043976,-0.676704,9.71085929870605,-2.76831293106079,0.26111271977425,3.90630865097046,3.32016158103943,0.75060582160950
249,3817644269,0.240310,-0.694543,-0.044153,-0.676692,9.70056343078613,-2.75965380668640,0.26878920197487,3.92358422279358,3.31949591636658,0.71794968843460
250,3817660936,0.240347,-0.694550,-0.044302,-0.676662,9.66989421844482,-2.72927975654602,0.28291067481041,3.73730278015137,3.10560369491577,0.75745719671249
251,3817677603,0.240317,-0.694560,-0.044356,-0.676659,9.73832416534424,-2.74836611747742,0.24095791578293,3.34202194213867,3.23392367362976,0.86853951215744
252,3817694270,0.240247,-0.694570,-0.044346,-0.676673,9.78361034393311,-2.78126502037048,0.26920276880264,3.13265132904053,3.33449220657349,0.97214299440384
253,3817710937,0.240200,-0.694610,-0.044375,-0.676648,9.75935745239258,-2.76464653015137,0.29580596089363,2.65088891983032,3.15522837638855,0.93564468622208
254,3817727604,0.240058,-0.694676,-0.044301,-0.676635,9.73688888549805,-2.75826382637024,0.32755959033966,2.11512279510498,3.10956144332886,0.98879122734070
255,3817744271,0.239978,-0.694689,-0.044249,-0.676653,9.69241905212402,-2.79973316192627,0.29688990116119,2.58822751045227,3.48262262344360,1.11230826377869
256,3817760938,0.239906,-0.694685,-0.044207,-0.676685,9.68659877777100,-2.81672358512878,0.29720166325569,3.19792461395264,3.47303056716919,1.09083199501038
257,3817777605,0.239984,-0.694650,-0.044290,-0.676688,9.72321033477783,-2.80420875549316,0.28542959690094,4.05650091171265,3.45853424072266,1.21372187137604
258,3817794272,0.240108,-0.694574,-0.044401,-0.676716,9.74440288543701,-2.75333690643311,0.28742983937263,4.48213386535645,3.73790550231934,1.23417377471924
259,3817810939,0.240171,-0.694533,-0.044445,-0.676733,9.75846767425537,-2.71045875549316,0.28741645812988,3.81524252891541,3.61746120452881,1.30038249492645
260,3817827606,0.240152,-0.694537,-0.044379,-0.676739,9.75053977966309,-2.70537996292114,0.28534370660782,2.84011602401733,3.50550889968872,1.48316764831543
261,3817844273,0.240063,-0.694561,-0.044231,-0.676756,9.71773719787598,-2.74128532409668,0.26599782705307,2.07371926307678,3.58894085884094,1.52506971359253
262,3817860940,0.239971,-0.694596,-0.044063,-0.676764,9.69774055480957,-2.78707218170166,0.26487237215042,1.94507968425751,3.52286052703857,1.63328337669373
263,3817877607,0.239913,-0.694628,-0.043938,-0.676760,9.70063972473145,-2.80290198326111,0.28127497434616,2.34128260612488,3.41394257545471,1.60046088695526
264,3817894274,0.239928,-0.694630,-0.043888,-0.676755,9.74121284484863,-2.82316112518311,0.28674265742302,3.08490872383118,3.45028686523438,1.57842111587524
265,3817910941,0.239967,-0.694627,-0.043928,-0.676742,9.69599342346191,-2.79329967498779,0.29067957401276,3.62431240081787,3.28637838363647,1.27193951606750
266,3817927608,0.240018,-0.694629,-0.043983,-0.676719,9.66381072998047,-2.75933527946472,0.29207518696785,3.75313186645508,3.20371365547180,1.27197802066803
267,3817944275,0.240096,-0.694603,-0.044018,-0.676715,9.68202018737793,-2.78444647789001,0.24831132590771,3.77933335304260,3.47853779792786,1.44868004322052
268,3817960942,0.240164,-0.694568,-0.044049,-0.676725,9.74656867980957,-2.77899646759033,0.27184790372849,3.77075314521790,3.57248520851135,1.40237224102020
269,3817977609,0.240133,-0.694563,-0.044011,-0.676743,9.74101829528809,-2.73960041999817,0.26259702444077,2.92061638832092,3.55664372444153,1.26613843441010
270,3817994276,0.240046,-0.694577,-0.043940,-0.676764,9.73261642456055,-2.76252317428589,0.28197982907295,2.47440457344055,3.51881384849548,1.16125428676605
271,3818010943,0.239933,-0.694617,-0.043837,-0.676771,9.72248649597168,-2.79440093040466,0.28316852450371,2.15398955345154,3.37723922729492,1.22615671157837
272,3818027610,0.239922,-0.694673,-0.043852,-0.676715,9.71269130706787,-2.80833029747009,0.26072528958321,2.14697194099426,3.13706922531128,1.19562649726868
273,3818044277,0.239886,-0.694702,-0.043856,-0.676699,9.71484184265137,-2.81312251091003,0.26321405172348,3.04218745231628,3.16807389259338,1.10808241367340
274,3818060944,0.240084,-0.694667,-0.044076,-0.676650,9.70071601867676,-2.78763818740845,0.27407795190811,3.58659768104553,3.51041293144226,1.12839329242706
275,3818077611,0.240123,-0.694632,-0.044140,-0.676667,9.71076965332031,-2.76222085952759,0.27824389934540,3.76924204826355,3.54716706275940,1.08994841575623
276,3818094278,0.240111,-0.694620,-0.044180,-0.676681,9.72034835815430,-2.73598623275757,0.25818628072739,3.39609050750732,3.44449853897095,0.98569202423096
277,3818110945,0.240016,-0.694642,-0.044156,-0.676694,9.71926498413086,-2.75760436058044,0.28328847885132,2.63334417343140,3.37060594558716,0.92173701524734
278,3818127612,0.239884,-0.694698,-0.044085,-0.676688,9.72152900695801,-2.75204849243164,0.28685563802719,2.18782448768616,3.18427395820618,1.00565731525421
279,3818144279,0.239782,-0.694746,-0.044004,-0.676681,9.72807598114014,-2.77886486053467,0.27285981178284,2.30130100250244,3.23558831214905,1.19852066040039
280,3818160946,0.239732,-0.694767,-0.043955,-0.676679,9.75078582763672,-2.80381250381470,0.29635211825371,2.74227476119995,3.35457205772400,1.26903247833252
281,3818177613,0.239771,-0.694764,-0.043993,-0.676667,9.74218940734863,-2.77687931060791,0.28594800829887,3.09656310081482,3.44731616973877,1.25685369968414
282,3818194280,0.239743,-0.694765,-0.043990,-0.676676,9.74629974365234,-2.78387689590454,0.28994497656822,3.08369231224060,3.43068051338196,1.12814998626709
283,3818210947,0.239717,-0.694762,-0.043988,-0.676688,9.73287200927734,-2.76727485656738,0.30289560556412,3.10942053794861,3.45932865142822,1.12341165542603
284,3818227614,0.239698,-0.694762,-0.043995,-0.676694,9.71399021148682,-2.78697252273560,0.27822414040565,3.17587304115295,3.40892291069031,1.13051915168762
285,3818244281,0.239691,-0.694770,-0.043999,-0.676688,9.70665645599365,-2.76541161537170,0.29847472906113,3.21499609947205,3.32212114334106,1.21601426601410
286,3818260948,0.239688,-0.694773,-0.043960,-0.676689,9.72182369232178,-2.75401782989502,0.28152346611023,3.04993510246277,3.44766211509705,1.42817735671997
287,3818277615,0.239673,-0.694773,-0.043907,-0.676698,9.74142551422119,-2.75544023513794,0.29092645645142,2.90760564804077,3.51980042457581,1.43272340297699
288,3818294282,0.239663,-0.694765,-0.043844,-0.676713,9.73918437957764,-2.77342844009399,0.26372912526131,2.90700292587280,3.60587072372437,1.48150265216827
289,3818310949,0.239669,-0.694753,-0.043795,-0.676727,9.73387622833252,-2.77991223335266,0.26917788386345,3.05028080940247,3.60108184814453,1.49500048160553
290,3818327616,0.239672,-0.694757,-0.043756,-0.676724,9.72504901885986,-2.76291966438293,0.27972763776779,3.06566071510315,3.42834925651550,1.45960366725922
291,3818344283,0.239661,-0.694766,-0.043730,-0.676720,9.71854400634766,-2.76989960670471,0.26988798379898,3.04276347160339,3.36880064010620,1.33940351009369
292,3818360950,0.239645,-0.694772,-0.043698,-0.676722,9.71770858764648,-2.77570366859436,0.25602263212204,2.99975991249084,3.42371439933777,1.33983898162842
293,3818377617,0.239587,-0.694784,-0.043632,-0.676735,9.70805931091309,-2.76763010025024,0.26495268940926,3.09132528305054,3.36337018013000,1.29939651489258
294,3818394284,0.239583,-0.694791,-0.043604,-0.676730,9.69702720642090,-2.78952741622925,0.26024225354195,3.07063055038452,3.38109469413757,1.38831114768982
295,3818410951,0.239703,-0.694770,-0.043712,-0.676703,9.69514083862305,-2.76275014877319,0.27543094754219,3.21382999420166,3.55107307434082,1.28364455699921
296,3818427618,0.239798,-0.694789,-0.043810,-0.676643,9.67222309112549,-2.74039077758789,0.27096816897392,3.21421480178833,3.14847993850708,1.30045938491821
297,3818444285,0.239769,-0.694820,-0.043783,-0.676624,9.70937252044678,-2.74100947380066,0.24241036176682,2.91495609283447,3.19938540458679,1.29286503791809
298,3818460952,0.239757,-0.694824,-0.043734,-0.676627,9.78108978271484,-2.80139207839966,0.23242734372616,2.92831325531006,3.46976590156555,1.42594885826111
299,3818477619,0.239704,-0.694844,-0.043686,-0.676628,9.79463577270508,-2.79697704315186,0.27273681759834,2.73921442031860,3.36351108551025,1.24978458881378
300,3818494286,0.239545,-0.694906,-0.043593,-0.676627,9.75721073150635,-2.79665613174438,0.31637248396873,1.94538712501526,3.20996284484863,0.97817474603653
301,3818510953,0.239418,-0.694939,-0.043535,-0.676641,9.70453643798828,-2.84071397781372,0.29253977537155,2.43543457984924,3.32481002807617,0.93757849931717
302,3818527620,0.239404,-0.694932,-0.043597,-0.676650,9.68135738372803,-2.84178900718689,0.29327714443207,3.44790482521057,3.36940217018127,0.88418889045715
303,3818544287,0.239503,-0.694897,-0.043750,-0.676641,9.71301746368408,-2.79159092903137,0.29195913672447,4.45687913894653,3.28993868827820,0.98804837465286
304,3818560954,0.239691,-0.694812,-0.043947,-0.676649,9.74745178222656,-2.74374651908875,0.29586917161942,4.89160346984863,3.64543032646179,1.13506543636322
305,3818577621,0.239759,-0.694749,-0.044041,-0.676683,9.74893856048584,-2.70042562484741,0.30168557167053,4.09273052215576,3.71877217292786,1.04972374439240
306,3818594288,0.239779,-0.694735,-0.044083,-0.676688,9.74534130096436,-2.68784666061401,0.27906215190887,2.79319334030151,3.62651538848877,1.10724997520447
307,3818610955,0.239644,-0.694774,-0.043921,-0.676706,9.74140071868896,-2.72192120552063,0.28454899787903,1.77088761329651,3.52615141868591,1.38379001617432
308,3818627622,0.239612,-0.694815,-0.043837,-0.676681,9.73292922973633,-2.78783321380615,0.26068782806396,1.65944671630859,3.49318790435791,1.52353286743164
309,3818644289,0.239644,-0.694824,-0.043792,-0.676663,9.73698139190674,-2.81650304794312,0.25049722194672,2.60012483596802,3.50773668289185,1.62812268733978
310,3818660956,0.239700,-0.694821,-0.043802,-0.676646,9.74418163299561,-2.81690001487732,0.26079493761063,3.55741214752197,3.32793521881104,1.49955964088440
311,3818677623,0.239775,-0.694812,-0.043873,-0.676624,9.72336483001709,-2.79242229461670,0.29804316163063,3.93663430213928,3.23607540130615,1.29605400562286
312,3818694290,0.239905,-0.694819,-0.044045,-0.676559,9.66221332550049,-2.76396346092224,0.28845524787903,3.85923194885254,3.03925442695618,1.11822497844696
313,3818710957,0.239954,-0.694813,-0.044078,-0.676546,9.68903541564941,-2.77731418609619,0.27414029836655,3.64019250869751,3.31210637092590,1.34622907638550
314,3818727624,0.240012,-0.694781,-0.044093,-0.676557,9.74261856079102,-2.79739141464233,0.23971155285835,3.42377829551697,3.64660859107971,1.41748392581940
315,3818744291,0.240003,-0.694747,-0.044096,-0.676595,9.72159767150879,-2.76687073707581,0.27550759911537,3.01341080665588,3.79576325416565,1.11137342453003
316,3818760958,0.239904,-0.694748,-0.044040,-0.676633,9.74696063995361,-2.76092863082886,0.26921960711479,2.47498083114624,3.63449358940125,1.00091874599457
317,3818777625,0.239784,-0.694778,-0.043956,-0.676650,9.73618221282959,-2.77145504951477,0.28350076079369,2.21168208122253,3.43879914283752,1.08303296566010
318,3818794292,0.239793,-0.694818,-0.043991,-0.676604,9.70843219757080,-2.79454684257507,0.27938055992126,2.30188989639282,3.24365615844727,1.17407321929932
319,3818810959,0.239781,-0.694819,-0.044012,-0.676606,9.70833301544189,-2.81698179244995,0.29429203271866,3.28431677818298,3.35362482070923,1.09537851810455
320,3818827626,0.239830,-0.694779,-0.044109,-0.676623,9.70133495330811,-2.79102158546448,0.28256163001060,3.97692346572876,3.51592040061951,0.98155564069748
321,3818844293,0.240037,-0.694737,-0.044351,-0.676577,9.70720577239990,-2.73134446144104,0.28161141276360,3.83469533920288,3.48999977111816,1.05749714374542
322,3818860960,0.240021,-0.694721,-0.044353,-0.676599,9.72604560852051,-2.72964811325073,0.28279936313629,3.18769288063049,3.56075453758240,1.13025009632111
323,3818877627,0.239929,-0.694731,-0.044293,-0.676624,9.73197269439697,-2.75415301322937,0.26317930221558,2.47601819038391,3.54105854034424,1.07746219635010
324,3818894294,0.239726,-0.694756,-0.044131,-0.676682,9.74602222442627,-2.77354907989502,0.25577157735825,2.27609848976135,3.51704645156860,1.03612339496613
325,3818910961,0.239611,-0.694780,-0.044041,-0.676704,9.72816371917725,-2.77850341796875,0.28746616840363,2.44689655303955,3.43726253509521,1.13331067562103
326,3818927628,0.239532,-0.694798,-0.044016,-0.676715,9.73730087280273,-2.80071687698364,0.28673183917999,2.81990694999695,3.34369969367981,1.00144386291504
327,3818944295,0.239515,-0.694802,-0.044040,-0.676715,9.72722053527832,-2.79658174514771,0.28194588422775,3.26007437705994,3.33140563964844,1.06273508071899
328,3818960962,0.239495,-0.694793,-0.044078,-0.676729,9.72811317443848,-2.76350283622742,0.27980113029480,3.30907082557678,3.43114113807678,0.95329183340073
329,3818977629,0.239527,-0.694781,-0.044182,-0.676724,9.72382450103760,-2.76985716819763,0.27785757184029,3.22296166419983,3.45338654518127,0.88463717699051
330,3818994296,0.239533,-0.694763,-0.044269,-0.676734,9.72111606597900,-2.76335906982422,0.29133540391922,3.17456650733948,3.53329801559448,0.82320511341095
331,3819010963,0.239575,-0.694739,-0.044369,-0.676737,9.71216201782227,-2.74844121932983,0.27661046385765,3.07062983512878,3.60999441146851,0.92995864152908
332,3819027630,0.239514,-0.694728,-0.044364,-0.676771,9.72165203094482,-2.75648427009583,0.27080991864204,3.08478116989136,3.54969000816345,0.93903845548630
333,3819044297,0.239433,-0.694721,-0.044321,-0.676809,9.73076152801514,-2.75437474250793,0.29303020238876,3.04563188552856,3.54018807411194,1.03823649883270
334,3819060964,0.239450,-0.694709,-0.044373,-0.676811,9.74872303009033,-2.76786375045776,0.25897115468979,2.92826199531555,3.55946159362793,1.04931402206421
335,3819077631,0.239470,-0.694711,-0.044432,-0.676799,9.74032688140869,-2.77358961105347,0.28844627737999,2.93658590316772,3.42294549942017,1.06025063991547
336,3819094298,0.239424,-0.694705,-0.044425,-0.676822,9.72675704956055,-2.76639986038208,0.25719103217125,2.96224999427795,3.53226065635681,1.03595697879791
337,3819110965,0.239402,-0.694701,-0.044420,-0.676834,9.73218536376953,-2.77477526664734,0.28189846873283,3.10724377632141,3.47239112854004,1.15526103973389
338,3819127632,0.239383,-0.694692,-0.044429,-0.676849,9.73951244354248,-2.76463937759399,0.28266572952271,3.18125081062317,3.48782205581665,1.09499406814575
339,3819144299,0.239342,-0.694683,-0.044423,-0.676873,9.75449371337891,-2.75765371322632,0.27726188302040,2.99596929550171,3.54948496818542,1.05625510215759
340,3819160966,0.239287,-0.694671,-0.044413,-0.676906,9.72904205322266,-2.76870393753052,0.27916848659515,2.92603349685669,3.60195231437683,0.98907285928726
341,3819177633,0.239236,-0.694660,-0.044405,-0.676936,9.70251750946045,-2.74711990356445,0.27547705173492,2.94236207008362,3.59069633483887,1.00203299522400
342,3819194300,0.239210,-0.694640,-0.044405,-0.676965,9.67979240417480,-2.73606777191162,0.28258842229843,3.11934518814087,3.61374688148499,1.08134257793427
343,3819210967,0.239233,-0.694623,-0.044410,-0.676975,9.67604446411133,-2.76391553878784,0.29760697484016,3.38977694511414,3.51881432533264,1.31655693054199
344,3819227634,0.239297,-0.694581,-0.044456,-0.676992,9.74905204772949,-2.75852608680725,0.26691198348999,3.80334568023682,3.61312007904053,1.29702734947205
345,3819244301,0.239324,-0.694541,-0.044489,-0.677021,9.82271766662598,-2.76740050315857,0.24359016120434,3.56384110450745,3.66746973991394,1.16079330444336
346,3819260968,0.239242,-0.694528,-0.044470,-0.677064,9.80899620056152,-2.73849844932556,0.28161403536797,2.75170063972473,3.66836667060852,0.89299976825714
347,3819277635,0.239044,-0.694573,-0.044339,-0.677097,9.72705936431885,-2.74931812286377,0.30632504820824,1.58797478675842,3.49660801887512,0.91254222393036
348,3819294302,0.238882,-0.694592,-0.044227,-0.677142,9.66189289093018,-2.83379173278809,0.31983655691147,1.88296878337860,3.65261411666870,0.97429424524307
349,3819310969,0.238865,-0.694551,-0.044253,-0.677188,9.64360046386719,-2.85006809234619,0.29166278243065,3.31274652481079,3.75900912284851,0.96082192659378
350,3819327636,0.238992,-0.694459,-0.044439,-0.677226,9.66920661926270,-2.78324580192566,0.28044664859772,4.83196353912354,3.73095083236694,0.86550426483154
351,3819344303,0.239165,-0.694346,-0.044638,-0.677268,9.71798896789551,-2.69811940193176,0.30244401097298,5.15674686431885,3.84625959396362,1.00761651992798
352,3819360970,0.239273,-0.694276,-0.044760,-0.677293,9.74556922912598,-2.64524197578430,0.28334027528763,4.40410327911377,3.67248940467834,1.11640632152557
353,3819377637,0.239259,-0.694270,-0.044716,-0.677307,9.75234508514404,-2.63964295387268,0.29076629877090,2.95400285720825,3.55168819427490,1.36842262744904
354,3819394304,0.239158,-0.694304,-0.044527,-0.677320,9.73220062255859,-2.68716120719910,0.27992248535156,1.80315947532654,3.57694125175476,1.67960393428802
355,3819410971,0.239021,-0.694373,-0.044271,-0.677315,9.73282718658447,-2.74470615386963,0.26434379816055,1.26714980602264,3.42422580718994,1.86829257011414
356,3819427638,0.238910,-0.694444,-0.044068,-0.677294,9.71026706695557,-2.78708338737488,0.27432915568352,1.63377022743225,3.26004886627197,1.76605999469757
357,3819444305,0.238858,-0.694510,-0.043951,-0.677252,9.72602081298828,-2.80683040618896,0.30896240472794,2.33510971069336,3.06485390663147,1.66162371635437
358,3819460972,0.238868,-0.694576,-0.043950,-0.677182,9.64067363739014,-2.77860426902771,0.29580074548721,3.18117403984070,2.75204634666443,1.44326281547546
359,3819477639,0.238963,-0.694598,-0.044019,-0.677121,9.63028907775879,-2.78547167778015,0.27559366822243,3.98121261596680,2.91414928436279,1.47553479671478
360,3819494306,0.239131,-0.694589,-0.044130,-0.677064,9.71875953674316,-2.77488589286804,0.27740573883057,4.57245588302612,3.03100681304932,1.59907770156860
361,3819510973,0.239256,-0.694574,-0.044217,-0.677030,9.77060127258301,-2.74970912933350,0.27832278609276,4.26342630386353,3.19139337539673,1.47273015975952
362,3819527640,0.239245,-0.694594,-0.044204,-0.677014,9.78560352325439,-2.72741818428040,0.30972042679787,3.07731485366821,3.24196624755859,1.30063867568970
363,3819544307,0.239156,-0.694642,-0.044067,-0.677004,9.75369930267334,-2.73177766799927,0.28577655553818,2.08226108551025,3.32049393653870,1.52451896667480
364,3819560974,0.238996,-0.694740,-0.043881,-0.676972,9.73283767700195,-2.79386901855469,0.29564651846886,1.43714141845703,3.03975367546082,1.48015797138214
365,3819577641,0.238877,-0.694820,-0.043725,-0.676943,9.72563362121582,-2.83612561225891,0.30059668421745,1.80736052989960,3.09862494468689,1.52181720733643
366,3819594308,0.238899,-0.694819,-0.043698,-0.676937,9.70041751861572,-2.83084154129028,0.30039277672768,3.20875906944275,3.41737413406372,1.49269533157349
367,3819610975,0.238985,-0.694775,-0.043765,-0.676948,9.69781017303467,-2.77348518371582,0.28836396336555,4.01135921478271,3.56276559829712,1.30734908580780
368,3819627642,0.239070,-0.694728,-0.043841,-0.676962,9.70821285247803,-2.73845434188843,0.28963938355446,4.04949617385864,3.57908082008362,1.24918270111084
369,3819644309,0.239100,-0.694698,-0.043886,-0.676978,9.72533416748047,-2.73568415641785,0.28427320718765,3.61980485916138,3.54121208190918,1.14274907112122
370,3819660976,0.239078,-0.694693,-0.043858,-0.676993,9.74094295501709,-2.73811388015747,0.27217260003090,2.99048781394958,3.52211761474609,1.26000404357910
371,3819677643,0.239004,-0.694730,-0.043771,-0.676987,9.73270320892334,-2.74356722831726,0.24262937903404,2.41313886642456,3.31566643714905,1.34379601478577
372,3819694310,0.238915,-0.694778,-0.043671,-0.676976,9.73076915740967,-2.76110601425171,0.27052140235901,2.24916648864746,3.25103259086609,1.35106992721558
373,3819710977,0.238821,-0.694826,-0.043571,-0.676966,9.75464344024658,-2.76414155960083,0.28804856538773,2.24239158630371,3.25150656700134,1.32977283000946
374,3819727644,0.238732,-0.694882,-0.043505,-0.676945,9.74429035186768,-2.78085899353027,0.29792422056198,2.40846443176270,3.10889458656311,1.20949566364288
375,3819744311,0.238660,-0.694921,-0.043485,-0.676931,9.73758411407471,-2.79769158363342,0.29210126399994,2.72321915626526,3.15111756324768,1.05219531059265
376,3819760978,0.238651,-0.694953,-0.043524,-0.676899,9.72359943389893,-2.79793858528137,0.31115239858627,3.31334877014160,3.02351546287537,1.08613228797913
377,3819777645,0.238677,-0.694978,-0.043581,-0.676860,9.68719577789307,-2.78918600082397,0.31197267770767,3.58185958862305,3.00671386718750,1.17243432998657
378,3819794312,0.238748,-0.694972,-0.043658,-0.676836,9.72690773010254,-2.76918554306030,0.30108287930489,3.68329858779907,3.26609349250793,1.24504625797272
379,3819810979,0.238768,-0.694955,-0.043651,-0.676847,9.75659942626953,-2.75188851356506,0.31089293956757,3.31210637092590,3.54221105575562,1.35400271415710
380,3819827646,0.238741,-0.694927,-0.043600,-0.676889,9.74446487426758,-2.74202299118042,0.29236328601837,2.89274954795837,3.79316449165344,1.29671978950500
381,3819844313,0.238793,-0.694886,-0.043597,-0.676913,9.73534202575684,-2.77822589874268,0.28139173984528,2.67390179634094,3.95138645172119,1.42347705364227
382,3819860980,0.238775,-0.694853,-0.043538,-0.676956,9.73766613006592,-2.79101681709290,0.26782822608948,2.90807867050171,3.83986878395081,1.36862730979919
383,3819877647,0.238755,-0.694822,-0.043464,-0.677000,9.74532604217529,-2.79833030700684,0.25065511465073,3.29874944686890,3.72101378440857,1.45551872253418
384,3819894314,0.238810,-0.694779,-0.043491,-0.677023,9.72315883636475,-2.76962089538574,0.26344335079193,3.67547416687012,3.66960883140564,1.33356392383575
385,3819910981,0.238851,-0.694746,-0.043518,-0.677041,9.73000526428223,-2.74732589721680,0.26720499992371,3.59899497032166,3.60190153121948,1.27684438228607
386,3819927648,0.238830,-0.694719,-0.043486,-0.677078,9.72880744934082,-2.75132894515991,0.25167351961136,3.32646226882935,3.63838672637939,1.25453567504883
387,3819944315,0.238799,-0.694712,-0.043465,-0.677098,9.69924068450928,-2.74962806701660,0.27071654796600,2.98587799072266,3.54460620880127,1.17799234390259
388,3819960982,0.238777,-0.694696,-0.043425,-0.677124,9.68716526031494,-2.74887585639954,0.28578260540962,2.94849562644958,3.64804196357727,1.29388952255249
389,3819977649,0.238788,-0.694689,-0.043397,-0.677129,9.64606285095215,-2.75882077217102,0.28852897882462,3.15159153938293,3.49281692504883,1.42698585987091
390,3819994316,0.238816,-0.694697,-0.043378,-0.677112,9.70206928253174,-2.74726438522339,0.27757319808006,3.25852417945862,3.31371974945068,1.50924110412598
391,3820010983,0.238857,-0.694680,-0.043373,-0.677116,9.80254364013672,-2.76519703865051,0.24479858577251,3.41604280471802,3.50352287292480,1.45387935638428
392,3820027650,0.238845,-0.694677,-0.043352,-0.677125,9.79989528656006,-2.75888991355896,0.27465337514877,3.06505942344666,3.48042058944702,1.28286337852478
393,3820044317,0.238721,-0.694715,-0.043244,-0.677136,9.74526786804199,-2.75874018669128,0.28895881772041,2.05787801742554,3.40492653846741,1.18974816799164
394,3820060984,0.238596,-0.694758,-0.043143,-0.677142,9.70065307617188,-2.82337188720703,0.30390122532845,2.07996869087219,3.34834814071655,1.15641331672668
395,3820077651,0.238572,-0.694772,-0.043138,-0.677136,9.69153690338135,-2.83573102951050,0.28225293755531,3.06406044960022,3.29488229751587,1.18115544319153
396,3820094318,0.238655,-0.694757,-0.043227,-0.677118,9.70185852050781,-2.79932379722595,0.29497081041336,4.06444120407104,3.24831795692444,1.23660683631897
397,3820110985,0.238800,-0.694698,-0.043342,-0.677119,9.73363971710205,-2.75630259513855,0.29931807518005,4.54215669631958,3.52681827545166,1.36351788043976
398,3820127652,0.238879,-0.694649,-0.043398,-0.677138,9.73901653289795,-2.71359753608704,0.30549114942551,3.93938732147217,3.63790011405945,1.30772042274475
399,3820144319,0.238854,-0.694657,-0.043341,-0.677143,9.72681713104248,-2.69499111175537,0.29762452840805,2.81893396377563,3.46354198455811,1.40197539329529
400,3820160986,0.238748,-0.694694,-0.043174,-0.677152,9.72433853149414,-2.71796107292175,0.30132004618645,1.87797415256500,3.49878430366516,1.55725204944611
401,3820177653,0.238646,-0.694734,-0.042988,-0.677159,9.70970153808594,-2.77488160133362,0.28681817650795,1.78961062431335,3.51196217536926,1.66665685176849
402,3820194320,0.238559,-0.694757,-0.042824,-0.677176,9.70377349853516,-2.81550478935242,0.28710940480232,2.13757205009460,3.56711935997009,1.62047708034515
403,3820210987,0.238586,-0.694777,-0.042797,-0.677149,9.73226547241211,-2.83044505119324,0.28567823767662,2.88857507705688,3.30789327621460,1.54379284381866
404,3820227654,0.238607,-0.694784,-0.042815,-0.677133,9.70856094360352,-2.80159974098206,0.30406770110130,3.39486050605774,3.25998449325562,1.29588735103607
405,3820244321,0.238642,-0.694800,-0.042896,-0.677099,9.65639305114746,-2.78581523895264,0.29536554217339,3.74986600875854,3.02602553367615,1.09076809883118
406,3820260988,0.238716,-0.694799,-0.042963,-0.677070,9.69320487976074,-2.77211594581604,0.24648711085320,3.89067173004150,3.16857314109802,1.32561099529266
407,3820277655,0.238885,-0.694775,-0.043121,-0.677025,9.73543643951416,-2.77425932884216,0.27279558777809,3.74184966087341,3.38146591186523,1.30581259727478
408,3820294322,0.238881,-0.694750,-0.043124,-0.677052,9.74676799774170,-2.75067090988159,0.27575147151947,3.24331068992615,3.62587428092957,1.17046201229095
409,3820310989,0.238819,-0.694745,-0.043073,-0.677082,9.74006366729736,-2.75099968910217,0.27241551876068,2.67679643630981,3.62387728691101,1.15189290046692
410,3820327656,0.238676,-0.694781,-0.042958,-0.677102,9.74565792083740,-2.75932121276855,0.29328334331512,1.93368184566498,3.46040344238281,1.12042748928070
411,3820344323,0.238540,-0.694849,-0.042830,-0.677088,9.72244453430176,-2.79230570793152,0.29844912886620,1.85899543762207,3.17967581748962,1.27006971836090
412,3820360990,0.238485,-0.694874,-0.042799,-0.677084,9.70019245147705,-2.83081030845642,0.27523839473724,2.76674818992615,3.28494429588318,1.16035783290863
413,3820377657,0.238537,-0.694857,-0.042868,-0.677079,9.68415451049805,-2.81434583663940,0.27260175347328,3.81756019592285,3.35215187072754,1.16957831382751
414,3820394324,0.238617,-0.694820,-0.042960,-0.677084,9.71398735046387,-2.75594210624695,0.30161222815514,4.08633995056152,3.45498657226562,1.16865611076355
415,3820410991,0.238512,-0.694815,-0.042863,-0.677132,9.73595428466797,-2.71558189392090,0.28988334536552,3.51705932617188,3.40569519996643,1.20341277122498
416,3820427658,0.238455,-0.694834,-0.042824,-0.677135,9.73564624786377,-2.73420906066895,0.27130022644997,2.73665308952332,3.36217927932739,1.17717254161835
417,3820444325,0.238341,-0.694875,-0.042706,-0.677141,9.74558448791504,-2.76732254028320,0.24915499985218,2.05313944816589,3.38371920585632,1.28382360935211
418,3820460992,0.238382,-0.694916,-0.042744,-0.677081,9.74264144897461,-2.78989768028259,0.26726731657982,1.94062328338623,3.31310558319092,1.30870676040649
419,3820477659,0.238304,-0.694944,-0.042674,-0.677084,9.72958278656006,-2.79633140563965,0.27237799763680,2.48289513587952,3.36111617088318,1.22646403312683
420,3820494326,0.238263,-0.694961,-0.042664,-0.677081,9.73217678070068,-2.79750108718872,0.27625510096550,2.93545913696289,3.30789327621460,1.12159311771393
421,3820510993,0.238276,-0.694963,-0.042712,-0.677072,9.72525501251221,-2.80240988731384,0.29682344198227,3.50942683219910,3.25536131858826,1.09873354434967
422,3820527660,0.238317,-0.694952,-0.042777,-0.677065,9.72356128692627,-2.75574970245361,0.29693239927292,3.73460054397583,3.31409144401550,1.14314603805542
423,3820544327,0.238353,-0.694953,-0.042835,-0.677047,9.71758842468262,-2.77351284027100,0.30582424998283,3.66109251976013,3.21190953254700,1.16984713077545
424,3820560994,0.238370,-0.694946,-0.042844,-0.677049,9.72021007537842,-2.74663424491882,0.28996816277504,3.35020542144775,3.42380356788635,1.28819072246552
425,3820577661,0.238352,-0.694939,-0.042805,-0.677064,9.74289608001709,-2.74469494819641,0.28990972042084,2.94667768478394,3.54807662963867,1.32928657531738
426,3820594328,0.238410,-0.694939,-0.042838,-0.677042,9.73732471466064,-2.75797986984253,0.28846004605293,2.47263765335083,3.58686661720276,1.35349047183990
427,3820610995,0.238360,-0.694937,-0.042750,-0.677067,9.72258853912354,-2.78850769996643,0.28761467337608,2.55920863151550,3.64587855339050,1.39576435089111
428,3820627662,0.238351,-0.694937,-0.042703,-0.677073,9.71592140197754,-2.78060984611511,0.27652728557587,2.95886921882629,3.49014067649841,1.42829251289368
429,3820644329,0.238366,-0.694932,-0.042714,-0.677073,9.71131706237793,-2.78735256195068,0.28586280345917,3.33910226821899,3.39991927146912,1.27167046070099
430,3820660996,0.238385,-0.694919,-0.042749,-0.677077,9.71656513214111,-2.78002548217773,0.26282963156700,3.48465919494629,3.41811752319336,1.15762996673584
431,3820677663,0.238411,-0.694908,-0.042797,-0.677075,9.71974849700928,-2.75745820999146,0.28259393572807,3.58579087257385,3.35411119461060,1.14657807350159
432,3820694330,0.238409,-0.694911,-0.042814,-0.677072,9.74603271484375,-2.76103878021240,0.27568191289902,3.28297233581543,3.32792258262634,1.16604387760162
433,3820710997,0.238371,-0.694932,-0.042810,-0.677064,9.72814464569092,-2.76342320442200,0.28767055273056,2.98503208160400,3.25160932540894,1.11776387691498
434,3820727664,0.238315,-0.694950,-0.042770,-0.677068,9.71648406982422,-2.77986645698547,0.28654357790947,2.73060846328735,3.36668682098389,1.18381893634796
435,3820744331,0.238260,-0.694959,-0.042751,-0.677079,9.71017074584961,-2.78705263137817,0.29758739471436,2.84082007408142,3.41487765312195,1.06906139850616
436,3820760998,0.238191,-0.694963,-0.042738,-0.677101,9.69550895690918,-2.77867817878723,0.25799247622490,2.82355666160583,3.47426056861877,0.96087324619293
437,3820777665,0.238138,-0.694934,-0.042757,-0.677148,9.70204448699951,-2.78675365447998,0.27643239498138,3.07831335067749,3.70084285736084,0.83151626586914
438,3820794332,0.238089,-0.694927,-0.042793,-0.677170,9.67066764831543,-2.76074624061584,0.32528242468834,3.15247583389282,3.45300245285034,0.81316500902176
439,3820810999,0.238050,-0.694926,-0.042828,-0.677183,9.71549606323242,-2.75901103019714,0.27469441294670,3.07668757438660,3.41871976852417,0.87818276882172
440,3820827666,0.237999,-0.694891,-0.042865,-0.677234,9.80950164794922,-2.77718091011047,0.25250390172005,3.18655276298523,3.72102594375610,0.74757075309753
441,3820844333,0.237900,-0.694873,-0.042893,-0.677285,9.79892063140869,-2.75994396209717,0.28301760554314,2.88356757164001,3.63733649253845,0.56527227163315
442,3820861000,0.237727,-0.694896,-0.042885,-0.677323,9.77716255187988,-2.76843762397766,0.30849772691727,2.30711507797241,3.42212533950806,0.43171483278275
443,3820877667,0.237579,-0.694908,-0.042901,-0.677361,9.73991394042969,-2.81803011894226,0.30596023797989,2.55697965621948,3.44431877136230,0.42720699310303
444,3820894334,0.237525,-0.694890,-0.043008,-0.677392,9.72212314605713,-2.84438133239746,0.31553143262863,3.47271084785461,3.42592930793762,0.43378952145576
445,3820911001,0.237611,-0.694827,-0.043244,-0.677411,9.74074649810791,-2.80401539802551,0.32598099112511,4.23055267333984,3.57614803314209,0.44750511646271
446,3820927668,0.237774,-0.694730,-0.043557,-0.677434,9.75503540039062,-2.75153541564941,0.30617600679398,4.29723453521729,3.85790038108826,0.39630526304245
447,3820944335,0.237718,-0.694632,-0.043658,-0.677548,9.73544883728027,-2.70284080505371,0.31708297133446,3.28940081596375,4.27630949020386,0.28736171126366
448,3820961002,0.237539,-0.694563,-0.043638,-0.677682,9.71317958831787,-2.69450950622559,0.32319262623787,2.33635210990906,4.32923793792725,0.26980417966843
449,3820977669,0.237224,-0.694514,-0.043460,-0.677855,9.69081592559814,-2.73271083831787,0.31250241398811,1.78117156028748,4.38611125946045,0.37544381618500
450,3820994336,0.237143,-0.694440,-0.043510,-0.677956,9.69122409820557,-2.76183867454529,0.28904730081558,2.10416007041931,4.40715169906616,0.40450134873390
451,3821011003,0.237053,-0.694332,-0.043553,-0.678094,9.71725177764893,-2.78553652763367,0.26388722658157,3.12398171424866,4.44899082183838,0.37015482783318
452,3821027670,0.237032,-0.694221,-0.043690,-0.678207,9.74989414215088,-2.77531218528748,0.28631421923637,3.89523077011108,4.21407032012939,0.27960103750229
453,3821044337,0.237007,-0.694123,-0.043868,-0.678304,9.77545547485352,-2.74989318847656,0.29480296373367,4.05454206466675,4.01185894012451,0.10029935836792
454,3821061004,0.236959,-0.694070,-0.044041,-0.678364,9.70378303527832,-2.70357632637024,0.30849292874336,3.85458350181580,3.62583637237549,0.09244904667139
455,3821077671,0.236811,-0.694045,-0.044084,-0.678439,9.70102787017822,-2.69406771659851,0.29109808802605,3.41811704635620,3.54414439201355,0.25570437312126
456,3821094338,0.236837,-0.693996,-0.044259,-0.678468,9.76264858245850,-2.70693707466125,0.31472462415695,3.02658843994141,3.81589531898499,0.42241743206978
457,3821111005,0.236675,-0.693955,-0.044214,-0.678569,9.77607250213623,-2.70773673057556,0.35425606369972,2.90706729888916,3.90283751487732,0.56053394079208
458,3821127672,0.236545,-0.693912,-0.044210,-0.678659,9.76567268371582,-2.71776580810547,0.36839729547501,2.61564636230469,3.98103427886963,0.50375068187714
459,3821144339,0.236300,-0.693878,-0.044100,-0.678787,9.75420761108398,-2.73876142501831,0.33200421929359,2.72848320007324,3.93365073204041,0.47322037816048
460,3821161006,0.236148,-0.693859,-0.044089,-0.678859,9.73406124114990,-2.74190473556519,0.35443207621574,3.25377297401428,3.56198358535767,0.50791257619858
461,3821177673,0.236098,-0.693820,-0.044188,-0.678910,9.77013778686523,-2.72937011718750,0.30751305818558,3.48921847343445,3.63764405250549,0.45237153768539
462,3821194340,0.236010,-0.693752,-0.044217,-0.679008,9.73733329772949,-2.71986246109009,0.31871083378792,3.90564227104187,3.84350585937500,0.56551557779312
463,3821211007,0.235878,-0.693690,-0.044195,-0.679119,9.73289108276367,-2.68943381309509,0.33916354179382,3.99395537376404,3.79660892486572,0.60882675647736
464,3821227674,0.235751,-0.693626,-0.044120,-0.679234,9.72632694244385,-2.67603087425232,0.32616287469864,3.90816521644592,3.87087321281433,0.88449621200562
465,3821244341,0.235723,-0.693583,-0.044146,-0.679286,9.72486877441406,-2.65377020835876,0.29215046763420,3.26001000404358,3.78122854232788,0.89552241563797
466,3821261008,0.235707,-0.693548,-0.044180,-0.679325,9.72071743011475,-2.66482973098755,0.30102548003197,2.56631565093994,3.89110708236694,0.90852093696594
467,3821277675,0.235496,-0.693550,-0.044019,-0.679406,9.71003341674805,-2.69654059410095,0.30395612120628,2.47734999656677,3.66067028045654,0.95254915952682
468,3821294342,0.235338,-0.693544,-0.043932,-0.679472,9.69654941558838,-2.69713521003723,0.29239425063133,2.82294273376465,3.60546183586121,0.85638636350632
469,3821311009,0.235423,-0.693536,-0.044065,-0.679442,9.66534233093262,-2.71034455299377,0.30990141630173,3.48321199417114,3.30704808235168,1.02858054637909
470,3821327676,0.235447,-0.693529,-0.044122,-0.679438,9.69436740875244,-2.68677258491516,0.26687285304070,3.90930581092834,3.22808456420898,1.11470329761505
471,3821344343,0.235582,-0.693512,-0.044266,-0.679399,9.74172592163086,-2.65144252777100,0.29772427678108,3.91962742805481,3.26916694641113,1.22070145606995
472,3821361010,0.235549,-0.693521,-0.044225,-0.679404,9.72645759582520,-2.63105607032776,0.29990240931511,3.29034829139709,3.29921054840088,1.31300938129425
473,3821377677,0.235356,-0.693558,-0.044042,-0.679444,9.72500324249268,-2.65058875083923,0.29347729682922,2.70585370063782,3.26764249801636,1.23159956932068
474,3821394344,0.235233,-0.693612,-0.043907,-0.679441,9.71038246154785,-2.69158172607422,0.28044280409813,2.59001994132996,3.11095643043518,1.37093245983124
475,3821411011,0.235199,-0.693670,-0.043879,-0.679395,9.70973300933838,-2.71619844436646,0.29042509198189,2.86526727676392,2.92338252067566,1.32420217990875
476,3821427678,0.235094,-0.693729,-0.043763,-0.679379,9.72100639343262,-2.70081090927124,0.30801850557327,3.10684609413147,2.90556859970093,1.40639328956604
477,3821444345,0.235191,-0.693771,-0.043836,-0.679298,9.75606632232666,-2.71353840827942,0.33996188640594,3.07604718208313,2.96022653579712,1.46320247650146
478,3821461012,0.235196,-0.693810,-0.043812,-0.679258,9.76943302154541,-2.69292116165161,0.30846208333969,2.78571391105652,3.13559651374817,1.45065212249756
479,3821477679,0.235265,-0.693848,-0.043870,-0.679191,9.77833652496338,-2.71037626266479,0.32346093654633,2.67025184631348,3.11675810813904,1.37625992298126
480,3821494346,0.235253,-0.693892,-0.043868,-0.679150,9.76806449890137,-2.72212028503418,0.31182426214218,2.70841503143311,3.09452652931213,1.26357698440552
481,3821511013,0.235146,-0.693935,-0.043803,-0.679148,9.76863765716553,-2.73894071578979,0.31676867604256,2.91332960128784,3.08665037155151,1.11224448680878
482,3821527680,0.235100,-0.693966,-0.043794,-0.679133,9.77238655090332,-2.73345589637756,0.34471490979195,3.20137023925781,3.08210468292236,1.12777864933014
483,3821544347,0.235000,-0.693990,-0.043738,-0.679146,9.76264095306396,-2.73329520225525,0.34377792477608,3.16899561882019,3.19305872917175,1.06880533695221
484,3821561014,0.234868,-0.694007,-0.043648,-0.679181,9.76478195190430,-2.71889185905457,0.31074583530426,3.09214496612549,3.30041432380676,1.05889320373535
485,3821577681,0.234821,-0.693996,-0.043641,-0.679209,9.75191211700439,-2.72247982025146,0.33503162860870,2.93658638000488,3.57699346542358,1.01755428314209
486,3821594348,0.234708,-0.693971,-0.043585,-0.679277,9.70974159240723,-2.71484184265137,0.33117997646332,3.08466529846191,3.69872975349426,0.90346235036850
487,3821611015,0.234671,-0.693967,-0.043619,-0.679291,9.69069385528564,-2.67394256591797,0.34534671902657,3.20717120170593,3.40551590919495,0.89745622873306
488,3821627682,0.234619,-0.693941,-0.043609,-0.679336,9.72782611846924,-2.69561362266541,0.32099294662476,3.47808957099915,3.57156324386597,0.99989426136017
489,3821644349,0.234577,-0.693885,-0.043597,-0.679409,9.79531478881836,-2.72170090675354,0.27255761623383,3.81302690505981,3.78241968154907,1.01391720771790
490,3821661016,0.234509,-0.693856,-0.043633,-0.679460,9.79984474182129,-2.71588444709778,0.30374592542648,3.50114059448242,3.56611990928650,0.69182461500168
491,3821677683,0.234288,-0.693894,-0.043592,-0.679500,9.79348659515381,-2.68329548835754,0.32152366638184,2.51345086097717,3.22314023971558,0.39173340797424
492,3821694350,0.234030,-0.693930,-0.043533,-0.679556,9.74450397491455,-2.73338389396667,0.29730299115181,2.22976493835449,3.32487463951111,0.27670684456825
493,3821711017,0.233867,-0.693942,-0.043564,-0.679597,9.68982696533203,-2.74580264091492,0.30448219180107,2.81845998764038,3.35505890846252,0.29179269075394
494,3821727684,0.233722,-0.693954,-0.043596,-0.679633,9.68826961517334,-2.68049144744873,0.30448770523071,3.62747550010681,3.13003849983215,0.41067409515381
495,3821744351,0.233881,-0.693905,-0.043865,-0.679612,9.70020771026611,-2.64803838729858,0.34197080135345,4.45170497894287,3.36955595016479,0.69556409120560
496,3821761018,0.233980,-0.693876,-0.044033,-0.679596,9.71996688842773,-2.58422279357910,0.31561675667763,4.08470106124878,3.32971501350403,0.91041642427444
497,3821777685,0.233965,-0.693897,-0.044060,-0.679578,9.74465942382812,-2.56742382049561,0.30128994584084,2.87537097930908,3.25183939933777,1.07286465167999
498,3821794352,0.233832,-0.693967,-0.043923,-0.679561,9.75002574920654,-2.58350086212158,0.27421417832375,1.56726682186127,3.22444725036621,1.32266557216644
499,3821811019,0.233555,-0.694082,-0.043605,-0.679560,9.76828861236572,-2.66646575927734,0.29367572069168,0.71253252029419,3.13694119453430,1.53683876991272
500,3821827686,0.233338,-0.694210,-0.043363,-0.679518,9.77527713775635,-2.71307444572449,0.29438099265099,0.86633670330048,2.90555572509766,1.49798429012299
501,3821844353,0.233186,-0.694325,-0.043204,-0.679464,9.75599384307861,-2.72832489013672,0.32471340894699,1.63242542743683,2.78101396560669,1.42525696754456
502,3821861020,0.233218,-0.694422,-0.043274,-0.679349,9.74920845031738,-2.71543598175049,0.32291495800018,2.47426390647888,2.58528208732605,1.23889911174774
503,3821877687,0.233258,-0.694508,-0.043369,-0.679241,9.67644977569580,-2.70119500160217,0.31891843676567,3.22201347351074,2.47124123573303,1.16157436370850
504,3821894354,0.233340,-0.694550,-0.043496,-0.679162,9.67584514617920,-2.69750571250916,0.28932964801788,3.71785044670105,2.75143170356750,1.14981830120087
505,3821911021,0.233463,-0.694553,-0.043648,-0.679106,9.74113273620605,-2.70644235610962,0.29198023676872,3.95611262321472,3.05238080024719,1.16516029834747
506,3821927688,0.233494,-0.694576,-0.043762,-0.679066,9.77455902099609,-2.65512967109680,0.31618764996529,3.24918889999390,3.07988882064819,0.89986377954483
507,3821944355,0.233308,-0.694631,-0.043676,-0.679078,9.75648784637451,-2.66286373138428,0.30778661370277,2.36558938026428,3.11902523040771,0.81326735019684
508,3821961022,0.233224,-0.694696,-0.043671,-0.679041,9.75009918212891,-2.67412638664246,0.30885908007622,2.10049772262573,3.04802703857422,0.94006305932999
509,3821977689,0.233102,-0.694774,-0.043630,-0.679006,9.74768352508545,-2.70695328712463,0.31465640664101,2.32677316665649,2.88036608695984,0.95972067117691
510,3821994356,0.233058,-0.694797,-0.043668,-0.678995,9.75784301757812,-2.72075033187866,0.29722380638123,3.10059666633606,3.16569137573242,0.89051520824432
511,3822011023,0.233056,-0.694795,-0.043755,-0.678992,9.74108028411865,-2.69806075096130,0.28893080353737,3.75567984580994,3.19773292541504,0.83104252815247
512,3822027690,0.233032,-0.694794,-0.043818,-0.678998,9.75477027893066,-2.65257096290588,0.29947441816330,3.73276925086975,3.21440672874451,0.84935557842255
513,3822044357,0.233062,-0.694791,-0.043911,-0.678984,9.74698638916016,-2.63230776786804,0.31554925441742,3.32793545722961,3.31738305091858,0.95283102989197
514,3822061024,0.232944,-0.694800,-0.043843,-0.679020,9.76111602783203,-2.64534711837769,0.29153782129288,2.70169186592102,3.48240566253662,0.98721599578857
515,3822077691,0.232828,-0.694820,-0.043782,-0.679043,9.76237678527832,-2.65657663345337,0.28975218534470,2.34471464157104,3.46058320999146,0.97137445211411
516,3822094358,0.232690,-0.694842,-0.043671,-0.679076,9.76304817199707,-2.68058824539185,0.27331027388573,2.44720363616943,3.44247460365295,1.11416530609131
517,3822111025,0.232583,-0.694844,-0.043598,-0.679115,9.74200344085693,-2.69015169143677,0.27487739920616,2.90079236030579,3.49084472656250,1.06142878532410
518,3822127692,0.232562,-0.694832,-0.043621,-0.679132,9.75612831115723,-2.68090629577637,0.27084520459175,3.24785661697388,3.47183966636658,1.01862978935242
519,3822144359,0.232617,-0.694822,-0.043721,-0.679117,9.76181507110596,-2.65801215171814,0.26229381561279,3.32189035415649,3.39541172981262,1.02591669559479
520,3822161026,0.232677,-0.694820,-0.043838,-0.679091,9.74826049804688,-2.64455604553223,0.27836894989014,3.16546130180359,3.34081840515137,0.97837954759598
521,3822177693,0.232605,-0.694833,-0.043820,-0.679104,9.74512290954590,-2.65712714195251,0.27710124850273,3.04535031318665,3.30675363540649,0.99997121095657
522,3822194360,0.232539,-0.694851,-0.043744,-0.679113,9.75327873229980,-2.64988708496094,0.28163376450539,2.82299375534058,3.36361360549927,1.31325292587280
523,3822211027,0.232490,-0.694876,-0.043689,-0.679108,9.73543357849121,-2.63714694976807,0.29324620962143,2.55382943153381,3.35190844535828,1.29305732250214
524,3822227694,0.232405,-0.694892,-0.043591,-0.679127,9.72392559051514,-2.66596388816833,0.29136684536934,2.52163434028625,3.47715473175049,1.30820703506470
525,3822244361,0.232360,-0.694914,-0.043502,-0.679126,9.73676109313965,-2.65381789207458,0.28362292051315,2.71677756309509,3.35430312156677,1.48519098758698
526,3822261028,0.232326,-0.694927,-0.043448,-0.679127,9.73743438720703,-2.66831707954407,0.28327044844627,2.91284275054932,3.36457395553589,1.35961186885834
527,3822277695,0.232331,-0.694940,-0.043439,-0.679112,9.74386501312256,-2.66239428520203,0.28365415334702,3.12070274353027,3.28038525581360,1.34880340099335
528,3822294362,0.232322,-0.694950,-0.043387,-0.679109,9.74422740936279,-2.66836404800415,0.28470546007156,3.26908993721008,3.30111861228943,1.48059344291687
529,3822311029,0.232382,-0.694966,-0.043396,-0.679071,9.75753211975098,-2.66649174690247,0.28414922952652,3.17762756347656,3.22600984573364,1.54189765453339
530,3822327696,0.232503,-0.694989,-0.043451,-0.679003,9.73468017578125,-2.63367676734924,0.31139519810677,2.94722795486450,3.19924426078796,1.62694442272186
531,3822344363,0.232533,-0.695021,-0.043397,-0.678964,9.73138809204102,-2.64080071449280,0.29917180538177,2.69618511199951,3.24331092834473,1.71308004856110
532,3822361030,0.232608,-0.695046,-0.043361,-0.678914,9.72517395019531,-2.69239187240601,0.29739743471146,2.83126664161682,3.25665521621704,1.83892810344696
533,3822377697,0.232630,-0.695068,-0.043266,-0.678890,9.76898860931396,-2.70070099830627,0.28240931034088,3.24647331237793,3.21385550498962,1.87204492092133
534,3822394364,0.232707,-0.695082,-0.043224,-0.678852,9.84736633300781,-2.68781757354736,0.26786997914314,3.17592334747314,3.27880954742432,1.87228822708130
535,3822411031,0.232775,-0.695103,-0.043233,-0.678807,9.82915782928467,-2.69567441940308,0.27326548099518,2.82620811462402,3.27779841423035,1.57425916194916
536,3822427698,0.232661,-0.695175,-0.043095,-0.678781,9.79610157012939,-2.69118285179138,0.32289385795593,1.92667722702026,3.10550189018250,1.44697690010071
537,3822444365,0.232573,-0.695233,-0.042975,-0.678760,9.72856998443604,-2.72931528091431,0.29052513837814,1.86775517463684,3.25654006004333,1.45704269409180
538,3822461032,0.232593,-0.695226,-0.042954,-0.678761,9.70382595062256,-2.77298974990845,0.31555601954460,3.07512450218201,3.50059008598328,1.43835794925690
539,3822477699,0.232759,-0.695168,-0.043055,-0.678757,9.69800567626953,-2.73096609115601,0.29486337304115,4.16430521011353,3.63586425781250,1.51383876800537
540,3822494366,0.232858,-0.695093,-0.043095,-0.678797,9.76366424560547,-2.67441630363464,0.30308446288109,4.63347816467285,3.70278978347778,1.46835041046143
541,3822511033,0.232999,-0.695015,-0.043133,-0.678826,9.76659965515137,-2.62231421470642,0.29442924261093,4.18270778656006,3.86759519577026,1.65878117084503
542,3822527700,0.233040,-0.694979,-0.043070,-0.678853,9.76328277587891,-2.60803318023682,0.27159959077835,3.00278210639954,3.83620643615723,1.68870937824249
543,3822544367,0.233004,-0.694973,-0.042911,-0.678882,9.75655937194824,-2.64582133293152,0.27278536558151,2.12614893913269,3.84076571464539,1.78620421886444
544,3822561034,0.232986,-0.694988,-0.042758,-0.678882,9.75267410278320,-2.67116761207581,0.26071378588676,1.68991351127625,3.73884010314941,1.87789773941040
545,3822577701,0.232919,-0.695018,-0.042550,-0.678887,9.75357246398926,-2.70605063438416,0.25258839130402,1.88008749485016,3.58367776870728,1.93479621410370
546,3822594368,0.232940,-0.695035,-0.042458,-0.678869,9.76193332672119,-2.73918032646179,0.28102490305901,2.46907734870911,3.47665524482727,1.81047248840332
547,3822611035,0.233058,-0.695039,-0.042525,-0.678820,9.69778251647949,-2.71953773498535,0.28343814611435,3.22111725807190,3.29702043533325,1.53167772293091
548,3822627702,0.233052,-0.695056,-0.042491,-0.678807,9.67077922821045,-2.69679784774780,0.29081934690475,3.56551837921143,3.13361167907715,1.43181395530701
549,3822644369,0.233124,-0.695051,-0.042513,-0.678785,9.73024463653564,-2.71098875999451,0.26570680737495,3.67824006080627,3.28534150123596,1.51775753498077
550,3822661036,0.233181,-0.695041,-0.042495,-0.678778,9.77550125122070,-2.68523573875427,0.28804454207420,3.41865539550781,3.43860793113708,1.61380529403687
551,3822677703,0.233210,-0.695032,-0.042452,-0.678779,9.78719711303711,-2.67829608917236,0.31290540099144,2.90704154968262,3.57481598854065,1.58598959445953
552,3822694370,0.233167,-0.695038,-0.042348,-0.678795,9.77185630798340,-2.68819642066956,0.29165369272232,2.38519573211670,3.62112379074097,1.51801371574402
553,3822711037,0.233067,-0.695074,-0.042199,-0.678801,9.74116897583008,-2.69161868095398,0.28368270397186,1.77407634258270,3.51055335998535,1.49268245697021
554,3822727704,0.232950,-0.695143,-0.042044,-0.678781,9.72606468200684,-2.71619105339050,0.30667248368263,1.51815462112427,3.25844812393188,1.48367989063263
555,3822744371,0.232881,-0.695163,-0.041937,-0.678790,9.73248672485352,-2.75690650939941,0.31028214097023,2.35645818710327,3.48578572273254,1.43797385692596
556,3822761038,0.232931,-0.695138,-0.041967,-0.678797,9.71510601043701,-2.74413585662842,0.27114364504814,3.62923002243042,3.49491715431213,1.32744228839874
557,3822777705,0.233049,-0.695082,-0.042080,-0.678806,9.70984458923340,-2.69027161598206,0.27902582287788,4.38816022872925,3.53803563117981,1.22928154468536
558,3822794372,0.233139,-0.695046,-0.042163,-0.678807,9.73255729675293,-2.65875077247620,0.26277917623520,4.08800506591797,3.45190048217773,1.27138876914978
559,3822811039,0.233128,-0.695048,-0.042136,-0.678811,9.75998401641846,-2.63700175285339,0.27571451663971,3.03068709373474,3.42717194557190,1.32293450832367
560,3822827706,0.233047,-0.695083,-0.042001,-0.678811,9.78585147857666,-2.66283893585205,0.28082838654518,2.13930058479309,3.41312313079834,1.53201067447662
561,3822844373,0.232933,-0.695123,-0.041815,-0.678821,9.77578353881836,-2.70032739639282,0.26284870505333,1.72419559955597,3.51033568382263,1.60490453243256
562,3822861040,0.232838,-0.695154,-0.041669,-0.678831,9.75688552856445,-2.73587441444397,0.27122157812119,2.02664303779602,3.49167656898499,1.50405454635620
563,3822877707,0.232856,-0.695172,-0.041655,-0.678807,9.74925231933594,-2.73931407928467,0.30750429630280,2.68290448188782,3.36053967475891,1.42340028285980
564,3822894374,0.232858,-0.695184,-0.041643,-0.678795,9.74912261962891,-2.72212839126587,0.27155423164368,3.20094776153564,3.26674699783325,1.34722840785980
565,3822911041,0.232891,-0.695190,-0.041667,-0.678776,9.74401664733887,-2.71846532821655,0.29465264081955,3.47639870643616,3.23689460754395,1.32620000839233
566,3822927708,0.232916,-0.695200,-0.041673,-0.678757,9.73361396789551,-2.69462299346924,0.29541400074959,3.34523582458496,3.23941707611084,1.37342965602875
567,3822944375,0.232932,-0.695212,-0.041656,-0.678740,9.73223114013672,-2.67859840393066,0.29642307758331,3.19173979759216,3.27636408805847,1.43679571151733
568,3822961042,0.232928,-0.695215,-0.041597,-0.678742,9.72770881652832,-2.69244909286499,0.30089259147644,2.90952634811401,3.47134113311768,1.51707875728607
569,3822977709,0.232941,-0.695200,-0.041555,-0.678756,9.72793006896973,-2.69812035560608,0.27440723776817,2.76897597312927,3.67745852470398,1.47599577903748
570,3822994376,0.232888,-0.695195,-0.041460,-0.678784,9.73431682586670,-2.71743273735046,0.27689957618713,2.51792073249817,3.67834281921387,1.41149044036865
571,3823011043,0.232864,-0.695176,-0.041367,-0.678818,9.76452732086182,-2.72254562377930,0.27713796496391,2.68787360191345,3.76867818832397,1.52964150905609
572,3823027710,0.232870,-0.695157,-0.041330,-0.678838,9.76116657257080,-2.73182988166809,0.26939213275909,3.09561467170715,3.62990832328796,1.42416858673096
573,3823044377,0.232894,-0.695156,-0.041327,-0.678831,9.75152111053467,-2.71080493927002,0.28713724017143,3.29950451850891,3.36691713333130,1.38760626316071
574,3823061044,0.232912,-0.695155,-0.041319,-0.678826,9.75965023040771,-2.71161365509033,0.27079099416733,3.25732016563416,3.37718796730042,1.38273978233337
575,3823077711,0.232931,-0.695157,-0.041317,-0.678817,9.75949573516846,-2.71137595176697,0.29521667957306,3.29073214530945,3.33996009826660,1.36759006977081
576,3823094378,0.232946,-0.695154,-0.041296,-0.678817,9.72173881530762,-2.68125224113464,0.28665095567703,3.19713091850281,3.43171739578247,1.42370760440826
577,3823111045,0.232935,-0.695143,-0.041254,-0.678834,9.72722434997559,-2.69565010070801,0.27343970537186,2.98434042930603,3.57503342628479,1.37531232833862
578,3823127712,0.232919,-0.695142,-0.041217,-0.678843,9.67741012573242,-2.68819594383240,0.31085965037346,2.96679663658142,3.48369956016541,1.34309196472168
579,3823144379,0.232904,-0.695148,-0.041163,-0.678845,9.71319866180420,-2.70005536079407,0.28325214982033,2.87670373916626,3.44513893127441,1.43764102458954
580,3823161046,0.232910,-0.695129,-0.041111,-0.678866,9.80224895477295,-2.73992586135864,0.25439792871475,3.01855921745300,3.65605902671814,1.49218320846558
581,3823177713,0.232893,-0.695114,-0.041073,-0.678889,9.81817626953125,-2.72818064689636,0.27099341154099,2.97481274604797,3.61766576766968,1.31519937515259
582,3823194380,0.232798,-0.695131,-0.041008,-0.678908,9.76590061187744,-2.72898483276367,0.33559161424637,2.42037463188171,3.46639752388000,1.09688949584961
583,3823211047,0.232720,-0.695146,-0.040976,-0.678921,9.73671340942383,-2.74825000762939,0.30179286003113,2.66274785995483,3.40181493759155,1.02744066715240
584,3823227714,0.232707,-0.695134,-0.041019,-0.678935,9.71275329589844,-2.76729178428650,0.29749614000320,3.36193585395813,3.43570065498352,0.96142393350601
585,3823244381,0.232791,-0.695115,-0.041132,-0.678919,9.73147296905518,-2.72627735137939,0.30721610784531,4.18101739883423,3.23026132583618,1.12841892242432
586,3823261048,0.232932,-0.695060,-0.041239,-0.678921,9.76356697082520,-2.69237136840820,0.31770050525665,4.47774076461792,3.51979994773865,1.37503075599670
587,3823277715,0.233003,-0.695006,-0.041271,-0.678950,9.76270103454590,-2.64968705177307,0.31658959388733,3.77864170074463,3.73914647102356,1.37263572216034
588,3823294382,0.232937,-0.695001,-0.041152,-0.678985,9.74818801879883,-2.61234498023987,0.30694380402565,2.34398508071899,3.74001836776733,1.45441734790802
589,3823311049,0.232815,-0.695016,-0.040944,-0.679024,9.71990966796875,-2.67198014259338,0.31942296028137,1.62276947498322,3.79106402397156,1.62725174427032
590,3823327716,0.232704,-0.695029,-0.040728,-0.679062,9.73039245605469,-2.73998737335205,0.30675667524338,1.63806033134460,3.81592082977295,1.70694577693939
591,3823344383,0.232667,-0.695023,-0.040626,-0.679087,9.74726104736328,-2.78776526451111,0.30528900027275,2.56169319152832,3.68319654464722,1.52734947204590
592,3823361050,0.232718,-0.695016,-0.040646,-0.679075,9.75942897796631,-2.75504994392395,0.30175229907036,3.56518554687500,3.33582377433777,1.41243815422058
593,3823377717,0.232812,-0.694989,-0.040740,-0.679065,9.74439144134521,-2.74560976028442,0.30612954497337,4.14303350448608,3.33148241043091,1.25433075428009
594,3823394384,0.232898,-0.694983,-0.040845,-0.679035,9.69406223297119,-2.69481301307678,0.33485826849937,4.13642549514771,3.12312316894531,1.19939160346985
595,3823411051,0.232942,-0.694974,-0.040901,-0.679026,9.69003963470459,-2.66752099990845,0.31695982813835,3.69815397262573,3.30446124076843,1.20588433742523
596,3823427718,0.232941,-0.694955,-0.040866,-0.679048,9.73399162292480,-2.70801019668579,0.28307661414146,3.06359910964966,3.62807750701904,1.37268698215485
597,3823444385,0.232886,-0.694951,-0.040776,-0.679077,9.74660968780518,-2.70764923095703,0.31708681583405,2.52999711036682,3.66379451751709,1.38306033611298
598,3823461052,0.232770,-0.694964,-0.040664,-0.679110,9.75154018402100,-2.69978475570679,0.29188686609268,2.10240578651428,3.62268638610840,1.19816219806671
599,3823477719,0.232640,-0.694972,-0.040560,-0.679153,9.76716613769531,-2.73992872238159,0.27908092737198,2.08717894554138,3.67357850074768,1.07451689243317
600,3823494386,0.232565,-0.694993,-0.040497,-0.679160,9.71863937377930,-2.76190137863159,0.30933883786201,2.52113485336304,3.40149497985840,1.20218336582184
601,3823511053,0.232559,-0.694998,-0.040530,-0.679155,9.70673370361328,-2.74199485778809,0.29464203119278,3.33052182197571,3.27544212341309,1.07689881324768
602,3823527720,0.232613,-0.694959,-0.040630,-0.679170,9.72064018249512,-2.73515129089355,0.29915776848793,3.98648953437805,3.48515915870667,0.99361932277679
603,3823544387,0.232687,-0.694920,-0.040733,-0.679179,9.73491954803467,-2.68723630905151,0.29786181449890,4.10300064086914,3.46302890777588,1.07791042327881
604,3823561054,0.232689,-0.694893,-0.040765,-0.679204,9.74108791351318,-2.66038227081299,0.28380569815636,3.40670704841614,3.57114052772522,1.06817770004272
605,3823577721,0.232633,-0.694891,-0.040711,-0.679228,9.73827266693115,-2.65173959732056,0.28466370701790,2.69062709808350,3.57859373092651,1.21049475669861
606,3823594388,0.232527,-0.694923,-0.040586,-0.679239,9.74561309814453,-2.68639588356018,0.28154811263084,2.07091474533081,3.44661116600037,1.34936666488647
607,3823611055,0.232458,-0.694967,-0.040511,-0.679222,9.73616313934326,-2.72436499595642,0.30174398422241,1.92097830772400,3.34711933135986,1.30261075496674
608,3823627722,0.232302,-0.695005,-0.040343,-0.679247,9.74693393707275,-2.74421858787537,0.29172915220261,2.41513681411743,3.31987977027893,1.33540785312653
609,3823644389,0.232330,-0.695006,-0.040355,-0.679235,9.76655673980713,-2.75589704513550,0.28418949246407,3.15720129013062,3.37384581565857,1.33916020393372
610,3823661056,0.232383,-0.694993,-0.040424,-0.679227,9.75681591033936,-2.73405814170837,0.29181361198425,3.59525537490845,3.36910796165466,1.16678667068481
611,3823677723,0.232438,-0.694985,-0.040530,-0.679210,9.74774265289307,-2.71473145484924,0.32281389832497,3.70533847808838,3.25520777702332,1.01898849010468
612,3823694390,0.232342,-0.694974,-0.040453,-0.679258,9.75392627716064,-2.71546840667725,0.30960059165955,3.42349624633789,3.47091746330261,1.13355410099030
613,3823711057,0.232406,-0.694948,-0.040532,-0.679258,9.72838211059570,-2.70729112625122,0.31835591793060,3.18519496917725,3.60218286514282,1.14034140110016
614,3823727724,0.232371,-0.694931,-0.040492,-0.679290,9.72705554962158,-2.69789361953735,0.29330718517303,2.88004589080811,3.65663576126099,1.22857713699341
615,3823744391,0.232334,-0.694922,-0.040440,-0.679315,9.74291610717773,-2.68387913703918,0.30319404602051,2.79763698577881,3.61725664138794,1.28017401695251
616,3823761058,0.232313,-0.694914,-0.040398,-0.679333,9.75664520263672,-2.70709061622620,0.29356139898300,2.85281991958618,3.58086085319519,1.32549583911896
617,3823777725,0.232296,-0.694896,-0.040371,-0.679359,9.74521255493164,-2.71807742118835,0.28208687901497,3.02233672142029,3.62304449081421,1.25840318202972
618,3823794392,0.232311,-0.694870,-0.040371,-0.679380,9.74689483642578,-2.72546505928040,0.30693843960762,3.39632105827332,3.58544516563416,1.28259444236755
619,3823811059,0.232339,-0.694856,-0.040416,-0.679383,9.74853801727295,-2.70046162605286,0.28069081902504,3.56699109077454,3.39305543899536,1.16220200061798
620,3823827726,0.232347,-0.694868,-0.040437,-0.679366,9.74028015136719,-2.69909024238586,0.27805492281914,3.32706475257874,3.21539330482483,1.22041976451874
621,3823844393,0.232409,-0.694884,-0.040506,-0.679325,9.73616313934326,-2.69243073463440,0.29531529545784,2.89807724952698,3.27352118492126,1.25080907344818
622,3823861060,0.232477,-0.694903,-0.040526,-0.679281,9.72879505157471,-2.70565867424011,0.30292975902557,2.84452104568481,3.27702999114990,1.51519632339478
623,3823877727,0.232438,-0.694923,-0.040455,-0.679277,9.70525360107422,-2.69376707077026,0.29599675536156,2.66313195228577,3.37238621711731,1.42425835132599
624,3823894394,0.232444,-0.694930,-0.040437,-0.679270,9.70857810974121,-2.70827364921570,0.30616307258606,2.81936955451965,3.43203806877136,1.37022840976715
625,3823911061,0.232374,-0.694970,-0.040369,-0.679256,9.67152023315430,-2.70384526252747,0.32434713840485,2.95923995971680,3.08698320388794,1.30097138881683
626,3823927728,0.232363,-0.694996,-0.040314,-0.679237,9.72025871276855,-2.69903111457825,0.27745702862740,2.85960698127747,3.25239062309265,1.50460541248322
627,3823944395,0.232417,-0.694995,-0.040320,-0.679220,9.78797531127930,-2.75852060317993,0.25712516903877,2.96472144126892,3.45701050758362,1.48827719688416
628,3823961062,0.232413,-0.695009,-0.040306,-0.679206,9.80439281463623,-2.72383975982666,0.31915098428726,2.71478009223938,3.37599778175354,1.31044828891754
629,3823977729,0.232304,-0.695064,-0.040243,-0.679191,9.76254367828369,-2.73318457603455,0.34304139018059,2.31235337257385,3.12186837196350,1.08355820178986
630,3823994396,0.232301,-0.695080,-0.040301,-0.679173,9.70518016815186,-2.77279901504517,0.30172190070152,2.61121511459351,3.35204935073853,0.96540671586990
631,3824011063,0.232305,-0.695072,-0.040342,-0.679177,9.68156337738037,-2.76705241203308,0.31139233708382,3.42586517333984,3.37330794334412,1.06579577922821
632,3824027730,0.232395,-0.695038,-0.040467,-0.679174,9.72336483001709,-2.72668266296387,0.31620612740517,4.28245639801025,3.35042309761047,1.06959915161133
633,3824044397,0.232516,-0.694968,-0.040575,-0.679197,9.75297737121582,-2.67576479911804,0.28964337706566,4.59476518630981,3.61849856376648,1.25553464889526
634,3824061064,0.232558,-0.694922,-0.040607,-0.679228,9.75542545318604,-2.64025592803955,0.30475765466690,3.62541413307190,3.70404481887817,1.23339259624481
635,3824077731,0.232489,-0.694935,-0.040488,-0.679246,9.73997402191162,-2.62767887115479,0.28535112738609,2.29282331466675,3.57197308540344,1.47440791130066
636,3824094398,0.232460,-0.694955,-0.040371,-0.679242,9.71516799926758,-2.66730427742004,0.30195862054825,1.52870678901672,3.71900272369385,1.64988040924072
637,3824111065,0.232338,-0.694980,-0.040164,-0.679271,9.72198677062988,-2.73504853248596,0.28630092740059,1.60430276393890,3.69085407257080,1.63305294513702
638,3824127732,0.232319,-0.694999,-0.040086,-0.679263,9.74139595031738,-2.78052687644958,0.28619050979614,2.58275914192200,3.41948819160461,1.55205297470093
639,3824144399,0.232373,-0.694999,-0.040112,-0.679242,9.76421451568604,-2.76075243949890,0.30124351382256,3.58410000801086,3.25347876548767,1.41935324668884
640,3824161066,0.232538,-0.694984,-0.040283,-0.679191,9.75109767913818,-2.74140167236328,0.30335065722466,4.12505340576172,3.17352867126465,1.25160300731659
641,3824177733,0.232740,-0.694976,-0.040502,-0.679117,9.67805385589600,-2.70105624198914,0.31641235947609,4.22536611557007,3.05311107635498,1.22257113456726
642,3824194400,0.232880,-0.694968,-0.040628,-0.679069,9.70564460754395,-2.67612433433533,0.30853876471519,3.75121068954468,3.22939062118530,1.35480952262878
643,3824211067,0.232923,-0.694954,-0.040609,-0.679070,9.73510456085205,-2.70528388023376,0.28568860888481,3.34199643135071,3.49293160438538,1.53802978992462
644,3824227734,0.232979,-0.694949,-0.040599,-0.679057,9.76461029052734,-2.68299937248230,0.30920839309692,2.54743957519531,3.62149572372437,1.54618763923645
645,3824244401,0.232904,-0.694949,-0.040477,-0.679090,9.77717781066895,-2.70918488502502,0.30657055974007,2.11590385437012,3.75712752342224,1.43150687217712
646,3824261068,0.232855,-0.694959,-0.040396,-0.679101,9.72680950164795,-2.73704266548157,0.30275747179985,2.11231780052185,3.63093328475952,1.37350678443909
647,3824277735,0.232787,-0.694995,-0.040303,-0.679093,9.71919727325439,-2.75601029396057,0.30699890851974,2.37789607048035,3.30123376846313,1.40310215950012
648,3824294402,0.232818,-0.694979,-0.040327,-0.679097,9.73226928710938,-2.76725029945374,0.29953533411026,3.37852025032043,3.47639918327332,1.26726531982422
649,3824311069,0.232885,-0.694929,-0.040400,-0.679121,9.72195243835449,-2.74506020545959,0.28822442889214,4.16406154632568,3.57042336463928,1.17655777931213
650,3824327736,0.233049,-0.694869,-0.040574,-0.679116,9.72817325592041,-2.68384814262390,0.29770916700363,4.25296306610107,3.57877254486084,1.15472292900085
651,3824344403,0.233073,-0.694838,-0.040606,-0.679138,9.74952507019043,-2.67190384864807,0.27858883142471,3.57758212089539,3.56655573844910,1.17062842845917
652,3824361070,0.233082,-0.694833,-0.040622,-0.679139,9.75428962707520,-2.67738604545593,0.29421925544739,2.68647813796997,3.56300878524780,1.18969714641571
653,3824377737,0.232947,-0.694860,-0.040484,-0.679166,9.75790023803711,-2.70987272262573,0.29949888586998,1.86082661151886,3.56865572929382,1.24669826030731
654,3824394404,0.232828,-0.694883,-0.040358,-0.679190,9.73839092254639,-2.72763013839722,0.29018762707710,1.96011424064636,3.56708049774170,1.26725220680237
655,3824411071,0.232808,-0.694894,-0.040343,-0.679187,9.72491359710693,-2.76053857803345,0.30127641558647,2.51425790786743,3.47989487648010,1.21775579452515
656,3824427738,0.232859,-0.694885,-0.040400,-0.679176,9.73986816406250,-2.76421904563904,0.29442572593689,3.36502194404602,3.39287590980530,1.21825528144836
657,3824444405,0.232912,-0.694862,-0.040474,-0.679177,9.74393463134766,-2.72725796699524,0.30712893605232,3.83633470535278,3.38666534423828,1.13763940334320
658,3824461072,0.232892,-0.694835,-0.040463,-0.679212,9.75437927246094,-2.71688055992126,0.32577019929886,3.67493605613708,3.51695680618286,1.17626333236694
659,3824477739,0.232894,-0.694813,-0.040465,-0.679233,9.73850727081299,-2.69066667556763,0.31030127406120,3.24569272994995,3.57596850395203,1.21606540679932
660,3824494406,0.232849,-0.694790,-0.040421,-0.679275,9.73861503601074,-2.71623492240906,0.31576386094093,2.98763203620911,3.69253182411194,1.18835246562958
661,3824511073,0.232882,-0.694758,-0.040439,-0.679296,9.74348831176758,-2.72832298278809,0.29801210761070,2.88336253166199,3.78331613540649,1.25074493885040
662,3824527740,0.232855,-0.694727,-0.040402,-0.679338,9.73676586151123,-2.71469306945801,0.30296942591667,2.93721318244934,3.77985835075378,1.22624647617340
663,3824544407,0.232905,-0.694694,-0.040443,-0.679353,9.74877452850342,-2.72378540039062,0.30445009469986,3.08713722229004,3.71498084068298,1.23692691326141
664,3824561074,0.232893,-0.694660,-0.040414,-0.679393,9.73897743225098,-2.73408174514771,0.31486910581589,3.17839527130127,3.74255299568176,1.26575386524200
665,3824577741,0.232905,-0.694621,-0.040412,-0.679429,9.72576045989990,-2.72241902351379,0.32312554121017,3.29611158370972,3.73616337776184,1.25042510032654
666,3824594408,0.232926,-0.694587,-0.040413,-0.679457,9.73275852203369,-2.69568753242493,0.31257075071335,3.31062102317810,3.69095706939697,1.29058563709259
667,3824611075,0.232925,-0.694563,-0.040394,-0.679483,9.72763156890869,-2.68688559532166,0.31729608774185,3.13138318061829,3.65004038810730,1.29388964176178
668,3824627742,0.233026,-0.694542,-0.040490,-0.679463,9.73229980468750,-2.70270252227783,0.31032353639603,2.99124288558960,3.58764743804932,1.24371421337128
669,3824644409,0.232937,-0.694536,-0.040377,-0.679507,9.73308181762695,-2.72509455680847,0.29636263847351,2.93923711776733,3.57327961921692,1.33914744853973
670,3824661076,0.232896,-0.694523,-0.040328,-0.679537,9.73520565032959,-2.71855807304382,0.32734695076942,3.05605602264404,3.57626271247864,1.25112915039062
671,3824677743,0.232876,-0.694521,-0.040289,-0.679549,9.73528480529785,-2.69978237152100,0.34220960736275,2.92125701904297,3.50482964515686,1.33115613460541
672,3824694410,0.232852,-0.694524,-0.040241,-0.679556,9.74639797210693,-2.71861553192139,0.32085719704628,2.84455966949463,3.47158432006836,1.36300563812256
673,3824711077,0.232883,-0.694519,-0.040275,-0.679548,9.72626495361328,-2.73075318336487,0.32458293437958,2.72656202316284,3.54199361801147,1.21150648593903
674,3824727744,0.232903,-0.694503,-0.040287,-0.679558,9.71796512603760,-2.74464178085327,0.31356346607208,3.05674743652344,3.57519984245300,1.25557291507721
675,3824744411,0.232843,-0.694483,-0.040244,-0.679602,9.72238445281982,-2.73224544525146,0.31271582841873,3.06336832046509,3.64609551429749,1.11927497386932
676,3824761078,0.232898,-0.694464,-0.040328,-0.679597,9.69458770751953,-2.72016334533691,0.33676734566689,3.43275523185730,3.45362901687622,1.09408485889435
677,3824777745,0.232916,-0.694460,-0.040357,-0.679594,9.67683315277100,-2.67672061920166,0.32300895452499,3.37187361717224,3.35700559616089,1.19654858112335
678,3824794412,0.232900,-0.694432,-0.040316,-0.679630,9.77377796173096,-2.71614742279053,0.31515225768089,3.25317168235779,3.66440939903259,1.32156419754028
679,3824811079,0.232959,-0.694384,-0.040347,-0.679657,9.80370903015137,-2.74760127067566,0.29608076810837,3.28467583656311,3.80684185028076,1.30946242809296
680,3824827746,0.232868,-0.694385,-0.040320,-0.679688,9.79648780822754,-2.69906759262085,0.32813063263893,2.79832839965820,3.49710702896118,0.91973930597305
681,3824844413,0.232755,-0.694403,-0.040297,-0.679710,9.73787021636963,-2.74448990821838,0.32559117674828,2.41005253791809,3.43499588966370,0.79736179113388
682,3824861080,0.232691,-0.694397,-0.040327,-0.679737,9.66629219055176,-2.77713298797607,0.31089100241661,3.03707766532898,3.47377395629883,0.76798409223557
683,3824877747,0.232750,-0.694378,-0.040453,-0.679728,9.69186592102051,-2.75776243209839,0.33737114071846,4.09830141067505,3.24254274368286,0.93915379047394
684,3824894414,0.232945,-0.694320,-0.040654,-0.679708,9.72856521606445,-2.70162105560303,0.30756172537804,4.96173048019409,3.33929419517517,1.20753633975983
685,3824911081,0.233096,-0.694252,-0.040788,-0.679718,9.76707935333252,-2.62519907951355,0.31339132785797,4.64818048477173,3.57207536697388,1.28715348243713
686,3824927748,0.233120,-0.694244,-0.040800,-0.679718,9.75202751159668,-2.60547733306885,0.31905665993690,3.18433713912964,3.45862364768982,1.29957556724548
687,3824944415,0.233004,-0.694294,-0.040626,-0.679717,9.74295330047607,-2.62654471397400,0.31345865130424,1.74948823451996,3.38556361198425,1.55519020557404
688,3824961082,0.232845,-0.694371,-0.040384,-0.679707,9.74074172973633,-2.68735408782959,0.33451980352402,1.19001722335815,3.31474471092224,1.70616447925568
689,3824977749,0.232759,-0.694427,-0.040198,-0.679690,9.74724006652832,-2.77149033546448,0.31703636050224,1.74307215213776,3.33587455749512,1.77896833419800
690,3824994416,0.232758,-0.694447,-0.040129,-0.679674,9.72348022460938,-2.76938438415527,0.33257016539574,2.88484835624695,3.30953288078308,1.61266541481018
691,3825011083,0.232906,-0.694447,-0.040251,-0.679616,9.75380039215088,-2.78901743888855,0.32669353485107,3.72821044921875,3.15734195709229,1.42658901214600
692,3825027750,0.233008,-0.694458,-0.040381,-0.679562,9.71561431884766,-2.76390004158020,0.34328773617744,4.20405626296997,2.91207456588745,1.19433307647705
693,3825044417,0.233137,-0.694465,-0.040532,-0.679501,9.68624496459961,-2.70845937728882,0.30702772736549,4.26775503158569,2.92430448532104,1.22444093227386
694,3825061084,0.233266,-0.694442,-0.040607,-0.679477,9.70767021179199,-2.69756221771240,0.28388985991478,3.81982731819153,3.39833211898804,1.51322424411774
695,3825077751,0.233315,-0.694412,-0.040636,-0.679488,9.74884033203125,-2.70215058326721,0.30748555064201,3.32501530647278,3.61496400833130,1.30530011653900
696,3825094418,0.233276,-0.694399,-0.040594,-0.679518,9.75984382629395,-2.69015812873840,0.33777725696564,2.71593260765076,3.67138886451721,1.21785843372345
697,3825111085,0.233235,-0.694416,-0.040578,-0.679516,9.73664283752441,-2.69564867019653,0.32719290256500,2.28893017768860,3.47793602943420,1.12222051620483
698,3825127752,0.233085,-0.694462,-0.040447,-0.679528,9.71993446350098,-2.73671460151672,0.29989695549011,2.28355121612549,3.25516915321350,1.19108021259308
699,3825144419,0.233026,-0.694510,-0.040422,-0.679501,9.70007038116455,-2.76789474487305,0.29555845260620,2.83929610252380,3.01318049430847,1.15695130825043
700,3825161086,0.233084,-0.694513,-0.040533,-0.679471,9.69333171844482,-2.75372838973999,0.28257441520691,3.82382202148438,3.10944557189941,1.03984987735748
701,3825177753,0.233157,-0.694500,-0.040666,-0.679451,9.70979881286621,-2.70064568519592,0.29517644643784,4.25703573226929,3.13568663597107,0.99073773622513
702,3825194420,0.233177,-0.694499,-0.040744,-0.679441,9.72185897827148,-2.65264081954956,0.30053704977036,3.66209125518799,3.21781325340271,0.98760008811951
703,3825211087,0.233137,-0.694505,-0.040758,-0.679447,9.73926067352295,-2.66115260124207,0.29715365171432,2.77147388458252,3.42904162406921,0.98195260763168
704,3825227754,0.233035,-0.694551,-0.040691,-0.679439,9.73856067657471,-2.69336819648743,0.29551771283150,2.04552006721497,3.28210139274597,1.11230850219727
705,3825244421,0.232821,-0.694631,-0.040509,-0.679442,9.75404644012451,-2.72223138809204,0.31192836165428,1.92291188240051,3.04467129707336,1.16913008689880
706,3825261088,0.232766,-0.694699,-0.040505,-0.679392,9.75439071655273,-2.74420452117920,0.32451644539833,2.29031372070312,2.96187901496887,1.09334230422974
707,3825277755,0.232762,-0.694747,-0.040544,-0.679341,9.74917316436768,-2.73100900650024,0.33147215843201,2.74566841125488,3.00179529190063,1.11894202232361
708,3825294422,0.232750,-0.694779,-0.040575,-0.679311,9.74381065368652,-2.75308632850647,0.32779332995415,3.30918669700623,3.01142644882202,1.11319220066071
709,3825311089,0.232732,-0.694802,-0.040628,-0.679290,9.75708484649658,-2.73225951194763,0.33130872249603,3.32719254493713,3.08939123153687,0.95390671491623
710,3825327756,0.232722,-0.694821,-0.040695,-0.679271,9.74144840240479,-2.72729301452637,0.35855740308762,3.28190922737122,3.13056397438049,0.91945755481720
711,3825344423,0.232682,-0.694846,-0.040712,-0.679258,9.74160957336426,-2.70362043380737,0.32621064782143,3.04374909400940,3.16256642341614,1.00747549533844
712,3825361090,0.232619,-0.694869,-0.040680,-0.679258,9.75343608856201,-2.71882176399231,0.34577143192291,2.99224257469177,3.22405004501343,1.13347733020782
713,3825377757,0.232588,-0.694865,-0.040676,-0.679273,9.76152801513672,-2.72062134742737,0.33919987082481,3.02949619293213,3.46673059463501,1.10393309593201
714,3825394424,0.232558,-0.694847,-0.040660,-0.679302,9.76234912872314,-2.72453713417053,0.34060493111610,2.99124288558960,3.62112355232239,1.13902235031128
715,3825411091,0.232582,-0.694816,-0.040707,-0.679323,9.75880718231201,-2.72580409049988,0.30484706163406,3.10876703262329,3.68464326858521,1.07980573177338
716,3825427758,0.232576,-0.694781,-0.040736,-0.679358,9.74981784820557,-2.73387193679810,0.32998302578926,3.34536480903625,3.66200160980225,1.02010273933411
717,3825444425,0.232677,-0.694730,-0.040870,-0.679369,9.74864768981934,-2.72138357162476,0.31048956513405,3.65132141113281,3.68983006477356,1.02480268478394
718,3825461092,0.232784,-0.694675,-0.041002,-0.679380,9.74865627288818,-2.70718312263489,0.32832148671150,3.70623493194580,3.70562005043030,1.05807352066040
719,3825477759,0.232809,-0.694606,-0.041038,-0.679440,9.72457981109619,-2.70220494270325,0.31490850448608,3.85273981094360,3.85654330253601,1.09461009502411
720,3825494426,0.232874,-0.694550,-0.041102,-0.679471,9.72819709777832,-2.68122839927673,0.30081006884575,3.60461616516113,3.78327822685242,1.17418873310089
721,3825511093,0.232909,-0.694501,-0.041140,-0.679507,9.73755836486816,-2.68361234664917,0.31082737445831,3.14694285392761,3.85628676414490,1.14584827423096
722,3825527760,0.232887,-0.694470,-0.041123,-0.679547,9.71916675567627,-2.68980669975281,0.31197968125343,2.89659142494202,3.77993464469910,1.15298116207123
723,3825544427,0.232859,-0.694446,-0.041084,-0.679583,9.71887493133545,-2.69183492660522,0.30135011672974,2.82593894004822,3.74275851249695,1.23577439785004
724,3825561094,0.232919,-0.694439,-0.041169,-0.679566,9.72902584075928,-2.71083426475525,0.30215731263161,2.96916556358337,3.47093129158020,1.12111926078796
725,3825577761,0.232971,-0.694428,-0.041261,-0.679553,9.72333717346191,-2.70698928833008,0.28008687496185,3.28452157974243,3.40584897994995,1.05150365829468
726,3825594428,0.233014,-0.694423,-0.041348,-0.679537,9.73845863342285,-2.69818639755249,0.30609634518623,3.37785387039185,3.32107019424438,1.04168128967285
727,3825611095,0.233000,-0.694428,-0.041386,-0.679535,9.75425815582275,-2.69429397583008,0.30723682045937,3.34250903129578,3.27110075950623,1.01649141311646
728,3825627762,0.232918,-0.694452,-0.041357,-0.679540,9.75501346588135,-2.69618439674377,0.31210389733315,2.87975120544434,3.24269604682922,1.01861703395844
729,3825644429,0.232837,-0.694471,-0.041329,-0.679550,9.70729923248291,-2.71393251419067,0.32475367188454,2.63427901268005,3.36486864089966,0.99662864208221
730,3825661096,0.232694,-0.694483,-0.041243,-0.679592,9.70819854736328,-2.69055557250977,0.33155626058578,2.67965197563171,3.44858360290527,0.95753085613251
731,3825677763,0.232678,-0.694475,-0.041237,-0.679607,9.66724205017090,-2.71612548828125,0.32486188411713,3.04914093017578,3.50891447067261,1.18084800243378
732,3825694430,0.232760,-0.694447,-0.041334,-0.679602,9.72167301177979,-2.70743775367737,0.33742210268974,3.66008067131042,3.46848464012146,1.15363442897797
733,3825711097,0.232835,-0.694391,-0.041404,-0.679628,9.82567214965820,-2.70237135887146,0.28956392407417,3.90628290176392,3.69214797019958,1.21095573902130
734,3825727764,0.232876,-0.694344,-0.041501,-0.679657,9.83929920196533,-2.67897033691406,0.31637135148048,3.54550218582153,3.69100785255432,0.91049313545227
735,3825744431,0.232817,-0.694355,-0.041527,-0.679664,9.76617813110352,-2.65199685096741,0.35267189145088,2.12481641769409,3.55191779136658,0.80601876974106
736,3825761098,0.232652,-0.694392,-0.041421,-0.679689,9.69887828826904,-2.71878123283386,0.32557252049446,1.60258686542511,3.51255178451538,0.95224195718765
737,3825777765,0.232533,-0.694374,-0.041353,-0.679752,9.67349147796631,-2.78251218795776,0.30563735961914,2.68255925178528,3.73630380630493,0.93144434690475
738,3825794432,0.232584,-0.694313,-0.041465,-0.679790,9.67451095581055,-2.75710487365723,0.33062034845352,4.29738855361938,3.60689568519592,0.88828694820404
739,3825811099,0.232774,-0.694223,-0.041700,-0.679803,9.71101570129395,-2.66632890701294,0.33898666501045,5.00815439224243,3.63921952247620,0.95896518230438
740,3825827766,0.232861,-0.694150,-0.041792,-0.679842,9.75351047515869,-2.59787130355835,0.30520239472389,4.54388523101807,3.66415309906006,1.15300691127777
741,3825844433,0.232829,-0.694135,-0.041766,-0.679870,9.77010917663574,-2.60536289215088,0.29907983541489,3.41432690620422,3.47898602485657,1.20299017429352
742,3825861100,0.232773,-0.694167,-0.041652,-0.679863,9.75479698181152,-2.62989592552185,0.29882591962814,2.34796738624573,3.36376714706421,1.55671429634094
743,3825877767,0.232663,-0.694228,-0.041464,-0.679850,9.75662231445312,-2.66395998001099,0.30899468064308,1.73584938049316,3.29240989685059,1.67736279964447
744,3825894434,0.232633,-0.694305,-0.041345,-0.679789,9.73605728149414,-2.71563124656677,0.31562569737434,1.78845822811127,3.07115530967712,1.77807235717773
745,3825911101,0.232626,-0.694365,-0.041269,-0.679735,9.74177455902100,-2.74129295349121,0.32436934113503,2.38299274444580,3.05747771263123,1.67092132568359
746,3825927768,0.232630,-0.694416,-0.041252,-0.679683,9.72253894805908,-2.73813056945801,0.34630915522575,2.99559712409973,2.93994069099426,1.45130515098572
747,3825944435,0.232681,-0.694458,-0.041314,-0.679618,9.66066169738770,-2.73084020614624,0.32469105720520,3.49143362045288,2.83670926094055,1.30673432350159
748,3825961102,0.232766,-0.694464,-0.041374,-0.679580,9.68900585174561,-2.71095275878906,0.31661245226860,3.96939253807068,3.07110381126404,1.42680692672729
749,3825977769,0.232933,-0.694438,-0.041490,-0.679541,9.77840423583984,-2.71313071250916,0.31479963660240,4.13992166519165,3.29864692687988,1.51461994647980
750,3825994436,0.232977,-0.694415,-0.041525,-0.679548,9.78952884674072,-2.68512511253357,0.31897187232971,3.62472248077393,3.47121286392212,1.28017413616180
751,3826011103,0.232956,-0.694415,-0.041521,-0.679555,9.77985858917236,-2.68847417831421,0.30603775382042,2.71011829376221,3.51028490066528,1.14409387111664
752,3826027770,0.232882,-0.694453,-0.041452,-0.679546,9.75222110748291,-2.70111393928528,0.32653975486755,2.04385495185852,3.35818338394165,1.25112903118134
753,3826044437,0.232746,-0.694530,-0.041324,-0.679522,9.74738693237305,-2.73693084716797,0.32611638307571,1.86774230003357,3.06123018264771,1.29496562480927
754,3826061104,0.232697,-0.694566,-0.041296,-0.679504,9.71577262878418,-2.75169944763184,0.32842677831650,2.49618792533875,3.22942829132080,1.18156504631042
755,3826077771,0.232725,-0.694547,-0.041325,-0.679512,9.69742679595947,-2.72176313400269,0.32432848215103,3.64120459556580,3.42641639709473,1.23355901241302
756,3826094438,0.232753,-0.694504,-0.041367,-0.679543,9.70525074005127,-2.69420552253723,0.32101580500603,4.05422163009644,3.53847146034241,1.14433705806732
757,3826111105,0.232796,-0.694472,-0.041450,-0.679556,9.72280216217041,-2.66292643547058,0.32156655192375,3.90332412719727,3.44374299049377,1.03251206874847
758,3826127772,0.232754,-0.694480,-0.041429,-0.679564,9.75333309173584,-2.66137528419495,0.30526289343834,3.16400146484375,3.32356858253479,1.15177774429321
759,3826144439,0.232670,-0.694517,-0.041337,-0.679561,9.75933742523193,-2.66860413551331,0.31414118409157,2.35580468177795,3.29894113540649,1.32441985607147
760,3826161106,0.232596,-0.694574,-0.041242,-0.679533,9.76013755798340,-2.69055914878845,0.31003311276436,2.02325010299683,3.18870496749878,1.41325771808624
761,3826177773,0.232523,-0.694630,-0.041125,-0.679508,9.75898456573486,-2.70600366592407,0.30487436056137,2.05888938903809,3.21409893035889,1.51541364192963
762,3826194440,0.232465,-0.694666,-0.041051,-0.679496,9.76067829132080,-2.71704077720642,0.31633719801903,2.53903818130493,3.24557733535767,1.37296879291534
