sep=,
DeviceTag:,C
FirmwareVersion:,3.0.0
AppVersion:,2023.6.0
StartTime: ,2024-03-14_11:59:11_000 EDT
© Movella Technologies B. V. 2005-2024

PacketCounter,SampleTimeFine,Quat_W,Quat_X,Quat_Y,Quat_Z,Acc_X,Acc_Y,Acc_Z,Gyr_X,Gyr_Y,Gyr_Z
0,3813477519,0.609862,0.393519,-0.583710,0.363998,0.00000000000000,0.00000000000000,0.00000000000000,0.00000000000000,0.00000000000000,0.00000000000000
1,3813494186,0.609778,0.393489,-0.583841,0.363960,9.87114143371582,0.54093754291534,0.09007259458303,0.87282949686050,-0.97163689136505,0.87582617998123
2,3813510853,0.609688,0.393474,-0.583977,0.363910,9.89694118499756,0.55358809232712,0.09357817471027,0.81156396865845,-1.08558797836304,0.79021584987640
3,3813527520,0.609628,0.393455,-0.584087,0.363853,9.89673805236816,0.56414371728897,0.10622474551201,0.93143153190613,-0.86198902130127,0.63406801223755
4,3813544187,0.609528,0.393487,-0.584184,0.363830,9.89428424835205,0.56036663055420,0.07974458485842,1.11971032619476,-1.01726591587067,0.62985467910767
5,3813560854,0.609462,0.393503,-0.584255,0.363811,9.87796306610107,0.54851448535919,0.09723284840584,1.17174267768860,-0.71677786111832,0.56009852886200
6,3813577521,0.609394,0.393520,-0.584325,0.363794,9.90052604675293,0.53282123804092,0.05493111535907,1.15021514892578,-0.71927511692047,0.56780797243118
7,3813594188,0.609350,0.393501,-0.584406,0.363757,9.88601398468018,0.52988421916962,0.03491858765483,0.92445200681686,-0.62665951251984,0.59685277938843
8,3813610855,0.609286,0.393486,-0.584505,0.363721,9.90781021118164,0.52880823612213,0.06845070421696,0.87340581417084,-0.79610025882721,0.68489634990692
9,3813627522,0.609202,0.393465,-0.584629,0.363687,9.91344738006592,0.55618226528168,0.07694459706545,1.04517745971680,-0.94409042596817,0.83343726396561
10,3813644189,0.609118,0.393500,-0.584695,0.363683,9.91811752319336,0.56831145286560,0.07923372089863,1.28542459011078,-0.78127062320709,0.57782256603241
11,3813660856,0.609078,0.393506,-0.584754,0.363646,9.91298866271973,0.55833411216736,0.08248915523291,1.23983383178711,-0.56566280126572,0.42867979407310
12,3813677523,0.609055,0.393511,-0.584795,0.363616,9.89689254760742,0.56360292434692,0.09136550128460,1.05969977378845,-0.41941437125206,0.36624881625175
13,3813694190,0.608843,0.393735,-0.584790,0.363737,9.88053226470947,0.52041274309158,-0.11675383895636,3.27031898498535,-1.11588764190674,0.47781768441200
14,3813710857,0.608715,0.393856,-0.584924,0.363604,9.88783168792725,0.55545514822006,0.25104412436485,1.11102771759033,-1.79906821250916,-0.01523315440863
15,3813727524,0.608816,0.393746,-0.584967,0.363485,9.88704013824463,0.50304365158081,-0.05190507322550,-0.12668679654598,0.11815137416124,0.15573801100254
16,3813744191,0.608847,0.393496,-0.585248,0.363250,9.86071014404297,0.48280471563339,-0.00098003866151,-1.53851020336151,-1.12298250198364,1.04495978355408
17,3813760858,0.608723,0.393448,-0.585443,0.363195,9.84465599060059,0.55259370803833,-0.01080998219550,0.47908547520638,-1.41413450241089,1.14504110813141
18,3813777525,0.608455,0.393504,-0.585680,0.363202,9.92316246032715,0.54984945058823,0.06983965635300,1.43583512306213,-2.25640821456909,1.45805418491364
19,3813794192,0.608238,0.393635,-0.585781,0.363261,9.95550251007080,0.53292626142502,0.06359840184450,2.30386233329773,-1.52138793468475,0.88157624006271
20,3813810859,0.608032,0.393824,-0.585835,0.363315,9.90680122375488,0.52567064762115,0.03540117293596,2.55989980697632,-1.44594573974609,0.46740612387657
21,3813827526,0.607846,0.393979,-0.585924,0.363314,9.91902923583984,0.53106069564819,0.06825147569180,1.98375463485718,-1.58022022247314,0.41997143626213
22,3813844193,0.607751,0.393999,-0.586036,0.363270,9.93862152099609,0.53231531381607,0.05776360258460,1.10380494594574,-1.07536852359772,0.62250387668610
23,3813860860,0.607686,0.393984,-0.586127,0.363249,9.93726348876953,0.54767459630966,0.02843185327947,0.89996635913849,-0.73042947053909,0.72409665584564
24,3813877527,0.607613,0.394022,-0.586164,0.363270,9.91081523895264,0.54601353406906,0.02441052533686,1.47365212440491,-0.54756748676300,0.56199383735657
25,3813894194,0.607528,0.394118,-0.586146,0.363337,9.88402557373047,0.52715164422989,0.02096935361624,2.11833691596985,-0.39172706007957,0.40879151225090
26,3813910861,0.607438,0.394187,-0.586153,0.363402,9.86763000488281,0.53770941495895,-0.00888693146408,1.99873828887939,-0.44345191121101,0.57901352643967
27,3813927528,0.607391,0.394201,-0.586188,0.363408,9.88348770141602,0.55146133899689,-0.02458589524031,1.27817606925964,-0.41854351758957,0.52832591533661
28,3813944195,0.607349,0.394207,-0.586272,0.363336,9.91744613647461,0.53719794750214,-0.00042193528498,0.74367743730545,-0.79262977838516,0.35007432103157
29,3813960862,0.607340,0.394183,-0.586342,0.363264,9.92751884460449,0.55026984214783,0.02660313248634,0.74580335617065,-0.51410448551178,0.35760447382927
30,3813977529,0.607353,0.394193,-0.586345,0.363228,9.95140647888184,0.55158203840256,0.05062170326710,1.11604773998260,-0.14022311568260,0.13024057447910
31,3813994196,0.607322,0.394322,-0.586253,0.363287,9.91786956787109,0.51110392808914,-0.03639042004943,2.28371167182922,0.03786197304726,-0.10234834998846
32,3814010863,0.607382,0.394365,-0.586145,0.363315,9.90496635437012,0.54732429981232,0.09427689015865,1.43811464309692,0.58933538198471,-0.15398995578289
33,3814027530,0.607440,0.394335,-0.586123,0.363285,9.89362812042236,0.48905223608017,-0.08061837404966,1.04360222816467,0.27523404359818,0.14060091972351
34,3814044197,0.607419,0.394369,-0.586140,0.363256,9.90244579315186,0.50593942403793,0.04496081918478,1.20068478584290,-0.37692284584045,0.18319483101368
35,3814060864,0.607427,0.394467,-0.586062,0.363261,9.89600181579590,0.49287015199661,0.05424967780709,1.85418033599854,0.06948725134134,-0.25663283467293
36,3814077531,0.607371,0.394586,-0.586016,0.363302,9.89496803283691,0.53277450799942,0.05965908616781,2.06334614753723,-0.28384637832642,0.04699930176139
37,3814094198,0.607337,0.394685,-0.585949,0.363359,9.90962696075439,0.54588854312897,0.06287682801485,2.03964138031006,-0.01487457286566,0.08258814364672
38,3814110865,0.607361,0.394719,-0.585903,0.363355,9.92949390411377,0.55153357982635,0.02417358383536,1.41173374652863,0.14053688943386,0.01033472456038
39,3814127532,0.607425,0.394732,-0.585851,0.363318,9.92053985595703,0.54281711578369,0.03484258055687,0.85447812080383,0.26650017499924,-0.16419662535191
40,3814144199,0.607506,0.394723,-0.585807,0.363263,9.88781261444092,0.54902291297913,0.05361092463136,0.74292200803757,0.31584304571152,-0.17684929072857
41,3814160866,0.607587,0.394712,-0.585746,0.363239,9.90202903747559,0.52903926372528,0.04508345201612,1.02922058105469,0.48778104782104,-0.07346362620592
42,3814177533,0.607641,0.394716,-0.585701,0.363217,9.91400432586670,0.51730835437775,0.05455985665321,1.15186715126038,0.27591279149055,-0.02277609333396
43,3814194200,0.607665,0.394772,-0.585629,0.363231,9.90687751770020,0.53026449680328,0.00744687858969,1.57783174514771,0.23572647571564,-0.07451373338699
44,3814210867,0.607688,0.394841,-0.585559,0.363230,9.89958858489990,0.53262323141098,0.01681736111641,1.46545624732971,0.14405862987041,-0.18832378089428
45,3814227534,0.607754,0.394852,-0.585524,0.363165,9.89033603668213,0.53355729579926,0.02659057453275,0.95149904489517,0.15242117643356,-0.22833082079887
46,3814244201,0.607821,0.394848,-0.585496,0.363102,9.90496730804443,0.54654103517532,0.02507994137704,0.57705408334732,0.15155035257339,-0.15411800146103
47,3814260868,0.607852,0.394902,-0.585448,0.363069,9.89028453826904,0.53127551078796,-0.01097124721855,1.15636229515076,0.02580479718745,-0.21985302865505
48,3814277535,0.607855,0.394999,-0.585382,0.363064,9.89472961425781,0.53308236598969,0.01967113651335,1.61151266098022,-0.03413532674313,-0.25660723447800
49,3814294202,0.607862,0.395081,-0.585342,0.363030,9.88873195648193,0.53980809450150,0.01206161361188,1.38370037078857,-0.16997227072716,-0.25459662079811
50,3814310869,0.607886,0.395123,-0.585313,0.362989,9.89470386505127,0.56091076135635,0.00415072403848,1.24978435039520,-0.05308872088790,-0.13959561288357
51,3814327536,0.607916,0.395172,-0.585292,0.362918,9.89593791961670,0.55326163768768,0.00480403238907,1.09034538269043,-0.16639930009842,-0.27859574556351
52,3814344203,0.607954,0.395225,-0.585261,0.362848,9.88324737548828,0.55820471048355,0.01660331338644,1.15542733669281,-0.09789814054966,-0.33957958221436
53,3814360870,0.607988,0.395283,-0.585240,0.362762,9.87657070159912,0.58475857973099,0.02831848897040,1.13680684566498,-0.20713630318642,-0.38997259736061
54,3814377537,0.607997,0.395353,-0.585212,0.362715,9.89896106719971,0.58170145750046,0.06905116140842,1.32554686069489,-0.20846816897392,-0.23543836176395
55,3814394204,0.607987,0.395411,-0.585192,0.362701,9.91522884368896,0.56318414211273,0.04722398519516,1.44860315322876,-0.20001599192619,0.02215498685837
56,3814410871,0.607987,0.395421,-0.585206,0.362668,9.88913726806641,0.59629833698273,0.02960510924459,1.27135014533997,-0.21754784882069,0.21072848141193
57,3814427538,0.607985,0.395440,-0.585218,0.362632,9.86932182312012,0.58859872817993,0.04680828377604,1.10675036907196,-0.26568692922592,0.15354813635349
58,3814444205,0.607967,0.395443,-0.585276,0.362565,9.89388561248779,0.55666512250900,0.04460143670440,0.81203770637512,-0.57339787483215,0.25432130694389
59,3814460872,0.607949,0.395437,-0.585323,0.362525,9.92444896697998,0.60133969783783,0.05824787542224,0.92409336566925,-0.42154020071030,0.37666031718254
60,3814477539,0.607937,0.395463,-0.585342,0.362487,9.89758682250977,0.59387648105621,0.02798597514629,1.14593780040741,-0.35584360361099,0.15768457949162
61,3814494206,0.607961,0.395467,-0.585342,0.362442,9.90820121765137,0.60099774599075,0.02954155392945,0.86576044559479,-0.10481355339289,0.08162767440081
62,3814510873,0.607994,0.395431,-0.585352,0.362408,9.88289165496826,0.57794368267059,0.01129755470902,0.78551590442657,0.02960828319192,0.29250982403755
63,3814527540,0.607810,0.395633,-0.585321,0.362547,9.85860061645508,0.55356138944626,-0.18187569081783,3.12629890441895,-0.80046725273132,0.48702546954155
64,3814544207,0.607777,0.395646,-0.585438,0.362400,9.93695449829102,0.58923578262329,0.23185420036316,0.51642882823944,-1.11008632183075,0.07664600014687
65,3814560874,0.607929,0.395475,-0.585477,0.362269,9.87425518035889,0.50646632909775,-0.09195490181446,-0.51237565279007,0.46136152744293,0.21264946460724
66,3814577541,0.608008,0.395235,-0.585643,0.362130,9.87743091583252,0.59362345933914,-0.03603389859200,-1.14900469779968,-0.23061032593250,0.98355311155319
67,3814594208,0.608007,0.395126,-0.585761,0.362060,9.84827041625977,0.53722351789474,-0.03882853314281,0.04466855153441,-0.48085919022560,0.81212741136551
68,3814610875,0.607854,0.395047,-0.585951,0.362094,9.89561557769775,0.55593913793564,0.00360038480721,0.87340593338013,-1.18543899059296,1.70074725151062
69,3814627542,0.607717,0.395072,-0.586031,0.362169,9.92154502868652,0.59262752532959,-0.00165692530572,1.71575641632080,-0.80441164970398,1.11301279067993
70,3814644209,0.607566,0.395181,-0.586109,0.362176,9.88816356658936,0.56874239444733,-0.01896197907627,1.86510396003723,-1.25272357463837,0.52221739292145
71,3814660876,0.607435,0.395293,-0.586169,0.362178,9.91091728210449,0.56620419025421,0.02113473974168,1.73394155502319,-1.11609268188477,0.38798120617867
72,3814677543,0.607407,0.395283,-0.586229,0.362138,9.94289493560791,0.55044841766357,0.05412133783102,0.95878589153290,-0.50820082426071,0.45226907730103
73,3814694210,0.607405,0.395228,-0.586269,0.362136,9.92388439178467,0.56086450815201,-0.00872244685888,0.80388009548187,-0.10654242336750,0.67189794778824
74,3814710877,0.607379,0.395262,-0.586240,0.362189,9.88333320617676,0.55513501167297,-0.02524913102388,1.53330433368683,0.00321439374238,0.41212114691734
75,3814727544,0.607320,0.395349,-0.586187,0.362279,9.87049102783203,0.54073995351791,-0.01513590291142,2.14859819412231,-0.04881140589714,0.37591764330864
76,3814744211,0.607240,0.395405,-0.586174,0.362374,9.86236095428467,0.55208641290665,-0.02971977554262,1.84803295135498,-0.22354121506214,0.67545807361603
77,3814760878,0.607209,0.395361,-0.586236,0.362374,9.85593795776367,0.54900479316711,-0.03012377582490,1.04977500438690,-0.32340517640114,0.76465439796448
78,3814777545,0.607188,0.395281,-0.586353,0.362307,9.90959453582764,0.57820045948029,0.00879205204546,0.33297795057297,-0.61367392539978,0.75574117898941
79,3814794212,0.607195,0.395199,-0.586442,0.362240,9.91288280487061,0.59468775987625,0.01430719625205,0.49747550487518,-0.37341398000717,0.62150490283966
80,3814810879,0.607232,0.395150,-0.586458,0.362205,9.93935298919678,0.56680381298065,0.02412835136056,0.66386830806732,0.04911234974861,0.34714168310165
81,3814827546,0.607257,0.395186,-0.586385,0.362242,9.90849113464355,0.51262050867081,-0.08772316575050,1.66437733173370,0.35563236474991,0.09554817527533
82,3814844213,0.607267,0.395176,-0.586351,0.362291,9.87497997283936,0.56235247850418,0.04877381026745,1.34939229488373,0.28243124485016,0.47364282608032
83,3814860880,0.607243,0.395153,-0.586377,0.362317,9.86685562133789,0.53338134288788,-0.00998079311103,1.19443547725677,-0.13629157841206,0.67325550317764
84,3814877547,0.607198,0.395074,-0.586491,0.362292,9.90660476684570,0.53770864009857,0.08323031663895,0.59261381626129,-0.58798438310623,0.98295134305954
85,3814894214,0.607192,0.395046,-0.586493,0.362329,9.88224983215332,0.54815912246704,-0.01005351543427,1.27583277225494,0.08043668419123,0.62731903791428
86,3814910881,0.607120,0.395097,-0.586511,0.362366,9.90185737609863,0.53876256942749,0.03280120715499,1.68006503582001,-0.45157107710838,0.52034753561020
87,3814927548,0.607091,0.395092,-0.586522,0.362401,9.89381694793701,0.57612073421478,0.02001487649977,1.36998486518860,-0.11089657992125,0.61378264427185
88,3814944215,0.607087,0.395014,-0.586579,0.362401,9.91298675537109,0.58352100849152,0.01756379380822,0.69255453348160,-0.12132094055414,0.82175785303116
89,3814960882,0.607121,0.394918,-0.586615,0.362390,9.91616439819336,0.54876184463501,-0.00094769493444,0.36567249894142,0.11761350929737,0.70126289129257
90,3814977549,0.607175,0.394820,-0.586634,0.362375,9.90687751770020,0.56869250535965,0.04782342165709,0.63399112224579,0.29126760363579,0.58845174312592
91,3814994216,0.607209,0.394764,-0.586630,0.362387,9.90766716003418,0.56474012136459,0.04526347294450,0.91432213783264,0.26730692386627,0.52955538034439
92,3815010883,0.607260,0.394697,-0.586637,0.362363,9.90678405761719,0.53740036487579,0.01393686514348,0.68521654605865,0.21385322511196,0.40259319543839
93,3815027550,0.607298,0.394616,-0.586671,0.362333,9.89320945739746,0.53736090660095,0.00106928602327,0.49504223465919,0.06992267072201,0.54762512445450
94,3815044217,0.607313,0.394539,-0.586727,0.362300,9.88132858276367,0.54716688394547,-0.01598207093775,0.36737573146820,-0.14593476057053,0.62436074018478
95,3815060884,0.607322,0.394473,-0.586790,0.362255,9.87421226501465,0.54651981592178,-0.02804852090776,0.42969143390656,-0.24722017347813,0.57164978981018
96,3815077551,0.607339,0.394400,-0.586861,0.362192,9.89507198333740,0.55268496274948,-0.02942503429949,0.48726883530617,-0.27626496553421,0.52573907375336
97,3815094218,0.607350,0.394368,-0.586896,0.362152,9.91665840148926,0.53301221132278,0.00282162753865,0.66609662771225,-0.19377927482128,0.37662193179131
98,3815110885,0.607345,0.394366,-0.586906,0.362146,9.91838836669922,0.54131472110748,0.00755112012848,0.98391181230545,-0.14817586541176,0.36029380559921
99,3815127552,0.607346,0.394346,-0.586936,0.362116,9.91444683074951,0.54795092344284,0.00285556400195,0.92050772905350,-0.20967197418213,0.38374230265617
100,3815144219,0.607387,0.394277,-0.586972,0.362064,9.90963840484619,0.54388743638992,-0.00862906407565,0.58954024314880,-0.00735724763945,0.39960929751396
101,3815160886,0.607421,0.394199,-0.587012,0.362027,9.90796470642090,0.55795985460281,0.02507278881967,0.39560094475746,-0.00421969220042,0.52813380956650
102,3815177553,0.607455,0.394116,-0.587062,0.361979,9.90590858459473,0.55189096927643,0.01489163003862,0.41766625642776,-0.05640556290746,0.52769845724106
103,3815194220,0.607488,0.394057,-0.587081,0.361957,9.90536117553711,0.54056525230408,-0.01395825762302,0.50133007764816,0.06204675883055,0.45999121665955
104,3815210887,0.607529,0.393975,-0.587113,0.361926,9.89063739776611,0.55113643407822,0.00779970828444,0.63707745075226,0.10015845298767,0.52801853418350
105,3815227554,0.607569,0.393927,-0.587123,0.361896,9.88994026184082,0.54993844032288,-0.02534100413322,0.55405390262604,0.08750578016043,0.34543845057487
106,3815244221,0.607610,0.393868,-0.587145,0.361853,9.90119075775146,0.51507395505905,-0.01029232423753,0.48844695091248,0.03617793321609,0.35763010382652
107,3815260888,0.607635,0.393795,-0.587172,0.361848,9.91259956359863,0.54493170976639,0.02849164418876,0.54238730669022,0.08161486685276,0.62690919637680
108,3815277555,0.607720,0.393726,-0.587150,0.361817,9.91626167297363,0.55362194776535,0.02281977795064,0.62014746665955,0.46799522638321,0.22216455638409
109,3815294222,0.607860,0.393610,-0.587128,0.361744,9.90142726898193,0.55091112852097,0.02965391054749,-0.04942610487342,0.67968416213989,0.09613726288080
110,3815310889,0.607924,0.393520,-0.587132,0.361728,9.94037246704102,0.54077976942062,-0.02047378756106,0.46688106656075,0.35369855165482,0.49492698907852
111,3815327556,0.607845,0.393659,-0.587055,0.361834,9.85792922973633,0.57327950000763,-0.08697148412466,2.54909110069275,-0.11978419125080,0.21028025448322
112,3815344223,0.607939,0.393624,-0.587065,0.361698,9.99491691589355,0.50620853900909,0.22261175513268,0.19752514362335,-0.00646080356091,-0.28288584947586
113,3815360890,0.608182,0.393407,-0.587012,0.361611,9.83971309661865,0.51255363225937,-0.12108027935028,-0.78635466098785,1.43931853771210,0.10759894549847
114,3815377557,0.608351,0.393213,-0.587043,0.361489,9.89283943176270,0.53987902402878,-0.01334543339908,-0.76989853382111,0.63431131839752,0.27890947461128
115,3815394224,0.608417,0.393107,-0.587059,0.361465,9.85871028900146,0.52537333965302,-0.00815760251135,0.34700083732605,0.33393836021423,0.54689514636993
116,3815410891,0.608316,0.393093,-0.587106,0.361574,9.92362308502197,0.54340803623199,0.04212997853756,1.59464657306671,-0.34783965349197,1.23509550094604
117,3815427558,0.608237,0.393196,-0.587035,0.361710,9.92108821868896,0.56606435775757,0.03821907937527,2.42465186119080,0.02265443466604,0.50230348110199
118,3815444225,0.608125,0.393364,-0.586977,0.361809,9.91232013702393,0.54617762565613,0.04919578135014,2.49175691604614,-0.43292504549026,0.19959977269173
119,3815460892,0.608085,0.393463,-0.586916,0.361869,9.95923042297363,0.55964803695679,0.06635205447674,2.04662108421326,-0.05520176887512,0.13155962526798
120,3815477559,0.608142,0.393472,-0.586820,0.361920,9.94542598724365,0.51955741643906,0.02040074579418,1.48376929759979,0.68410241603851,0.11897098273039
121,3815494226,0.608212,0.393455,-0.586715,0.361990,9.91084575653076,0.52067440748215,-0.01171334460378,1.40416502952576,0.88654512166977,0.24358958005905
122,3815510893,0.608276,0.393516,-0.586549,0.362087,9.88081550598145,0.53596991300583,-0.00657604355365,2.24702811241150,1.01518499851227,-0.10106130689383
123,3815527560,0.608271,0.393653,-0.586355,0.362260,9.86652946472168,0.51851117610931,0.01048848871142,2.82467079162598,0.84518074989319,-0.00272134901024
124,3815544227,0.608256,0.393715,-0.586233,0.362414,9.86598205566406,0.53365421295166,0.00013280619169,2.39034366607666,0.65113890171051,0.44686481356621
125,3815560894,0.608285,0.393711,-0.586163,0.362483,9.89319992065430,0.55158621072769,0.00626098783687,1.47777593135834,0.54616522789001,0.38663649559021
126,3815577561,0.608351,0.393654,-0.586128,0.362490,9.90716648101807,0.55572652816772,0.04973017796874,0.92564290761948,0.51083248853683,0.34312051534653
127,3815594228,0.608423,0.393610,-0.586062,0.362526,9.94974422454834,0.57256913185120,0.07116487622261,0.98278480768204,0.70533531904221,0.31663697957993
128,3815610895,0.608503,0.393620,-0.585936,0.362583,9.94938659667969,0.55232995748520,0.04085959494114,1.48638188838959,0.91423255205154,0.00147273030598
129,3815627562,0.608556,0.393726,-0.585728,0.362715,9.87731456756592,0.52189034223557,0.02971996739507,2.30899763107300,1.09966838359833,-0.23315881192684
130,3815644229,0.608623,0.393770,-0.585554,0.362837,9.87888050079346,0.55533945560455,0.03539869561791,2.06164312362671,1.15602922439575,0.04103154316545
131,3815660896,0.608680,0.393719,-0.585517,0.362855,9.86959171295166,0.50653475522995,0.05341028794646,0.98745912313461,0.50163745880127,0.38087362051010
132,3815677563,0.608732,0.393678,-0.585445,0.362929,9.95701980590820,0.51467519998550,0.12837055325508,1.29719364643097,0.75115638971329,0.49102103710175
133,3815694230,0.608808,0.393701,-0.585292,0.363024,9.83539676666260,0.55475592613220,0.00343471998349,1.75331723690033,1.07756459712982,0.04756277799606
134,3815710897,0.608824,0.393765,-0.585187,0.363097,9.92242622375488,0.55045479536057,0.10059422254562,1.75627565383911,0.46914783120155,0.06322495639324
135,3815727564,0.608907,0.393726,-0.585113,0.363118,9.90220928192139,0.58447128534317,0.08954019844532,1.04448604583740,0.73649317026138,0.18191422522068
136,3815744231,0.609025,0.393622,-0.585050,0.363135,9.92957305908203,0.57794505357742,0.06664815545082,0.54941797256470,0.97300082445145,0.36427658796310
137,3815760898,0.609176,0.393527,-0.584945,0.363154,9.92349624633789,0.55706381797791,0.06368900835514,0.65444290637970,1.26985204219818,0.14395618438721
138,3815777565,0.609308,0.393477,-0.584829,0.363172,9.89711666107178,0.54017543792725,0.09802521765232,0.84816449880600,1.12010729312897,-0.02298099361360
139,3815794232,0.609450,0.393395,-0.584719,0.363201,9.90162467956543,0.53668749332428,0.08192918449640,0.93573433160782,1.25885140895844,0.14370004832745
140,3815810899,0.609561,0.393307,-0.584645,0.363228,9.89777469635010,0.54459553956985,0.07640805095434,0.80594193935394,0.98740792274475,0.33729365468025
141,3815827566,0.609674,0.393210,-0.584587,0.363236,9.87088966369629,0.57157766819000,0.04934201017022,0.86687457561493,0.91327196359634,0.32795777916908
142,3815844233,0.609751,0.393152,-0.584547,0.363235,9.86732387542725,0.56221354007721,0.07131104171276,0.86698985099792,0.55774211883545,0.27504193782806
143,3815860900,0.609826,0.393140,-0.584465,0.363254,9.89409065246582,0.56515246629715,0.08460200577974,1.19508850574493,0.66149920225143,0.05892202258110
144,3815877567,0.609908,0.393138,-0.584392,0.363237,9.88947105407715,0.56179267168045,0.06340217590332,1.22364687919617,0.54430830478668,-0.11572460085154
145,3815894234,0.609965,0.393166,-0.584287,0.363280,9.90817832946777,0.54358702898026,0.06925351917744,1.57023787498474,0.65485274791718,-0.01214682497084
146,3815910901,0.610009,0.393198,-0.584187,0.363332,9.89492702484131,0.55065643787384,0.07169323414564,1.64822864532471,0.59363842010498,0.05053385719657
147,3815927568,0.610040,0.393214,-0.584105,0.363394,9.90157699584961,0.56882601976395,0.09909953922033,1.55536961555481,0.52878695726395,0.24294927716255
148,3815944235,0.610071,0.393205,-0.584051,0.363439,9.91809940338135,0.57107847929001,0.12099730968475,1.31203627586365,0.43174049258232,0.34295403957367
149,3815960902,0.610174,0.393121,-0.583998,0.363441,9.93327713012695,0.58734375238419,0.12023574858904,0.95730030536652,0.80592918395996,0.29475092887878
150,3815977569,0.610298,0.393061,-0.583892,0.363468,9.91379833221436,0.57559448480606,0.07053095847368,1.01142001152039,1.10174310207367,0.10220748186111
151,3815994236,0.610414,0.393006,-0.583797,0.363486,9.87379837036133,0.55864131450653,0.08278332650661,0.92251813411713,0.98963624238968,0.09344793111086
152,3816010903,0.610528,0.392938,-0.583711,0.363506,9.87833499908447,0.55598372220993,0.07556466013193,0.95947736501694,0.98277211189270,0.18232400715351
153,3816027570,0.610596,0.392876,-0.583659,0.363542,9.87937545776367,0.55704385042191,0.08119747042656,1.09761953353882,0.68896883726120,0.43544149398804
154,3816044237,0.610643,0.392861,-0.583578,0.363610,9.90552234649658,0.57486402988434,0.09634406864643,1.58618175983429,0.69599956274033,0.35462066531181
155,3816060904,0.610700,0.392874,-0.583456,0.363696,9.91039085388184,0.56772047281265,0.11094068735838,1.67300868034363,0.87211239337921,0.18669095635414
156,3816077571,0.610835,0.392806,-0.583317,0.363765,9.90528488159180,0.57745444774628,0.14073611795902,1.25582873821259,1.42423236370087,0.19306850433350
157,3816094238,0.610913,0.392773,-0.583186,0.363880,9.92333793640137,0.56473016738892,0.10258293896914,1.52387857437134,1.19045245647430,0.40899634361267
158,3816110905,0.610917,0.392913,-0.582983,0.364049,9.82233428955078,0.52121639251709,0.00322308717296,2.95106983184814,0.91329771280289,-0.06113111600280
159,3816127572,0.610969,0.392958,-0.582874,0.364086,9.94137096405029,0.49700871109962,0.14211811125278,1.70006847381592,0.59298521280289,-0.10554352402687
160,3816144239,0.611230,0.392662,-0.582950,0.363846,9.73268032073975,0.57155805826187,0.05669385194778,-1.92024159431458,0.76049220561981,0.07225342094898
161,3816160906,0.611286,0.392417,-0.583125,0.363735,9.92360019683838,0.52750682830811,0.09909220039845,-0.83523654937744,-0.25845137238503,1.19305229187012
162,3816177573,0.611283,0.392201,-0.583320,0.363662,9.87028217315674,0.61435109376907,0.09651662409306,-0.59238970279694,-0.55667287111282,1.43764090538025
163,3816194240,0.611183,0.392247,-0.583323,0.363774,9.94863128662109,0.56538963317871,0.09571237117052,2.13029789924622,-0.28548556566238,0.89047670364380
164,3816210907,0.611083,0.392437,-0.583203,0.363930,9.87487983703613,0.55159151554108,0.05521748960018,3.12102270126343,-0.01492580119520,0.16242294013500
165,3816227574,0.610974,0.392623,-0.583140,0.364015,9.88208484649658,0.55381941795349,0.07722247391939,2.74157071113586,-0.46851390600204,0.05655283853412
166,3816244241,0.610936,0.392638,-0.583165,0.364022,9.90181827545166,0.52054113149643,0.12325417250395,1.34516620635986,-0.33581453561783,0.47301536798477
167,3816260908,0.610950,0.392560,-0.583210,0.364010,9.89999771118164,0.53254193067551,0.08309286087751,0.58440500497818,-0.03235524520278,0.69147890806198
168,3816277575,0.610934,0.392493,-0.583282,0.363994,9.83809661865234,0.54673135280609,0.07264593243599,0.79829657077789,-0.29356634616852,0.78419673442841
169,3816294242,0.610854,0.392462,-0.583375,0.364013,9.83498287200928,0.54790055751801,0.06337845325470,1.14853739738464,-0.64214241504669,1.00281405448914
170,3816310909,0.610742,0.392443,-0.583462,0.364081,9.84321308135986,0.55247426033020,0.05783781781793,1.37351930141449,-0.64864784479141,1.21807563304901
171,3816327576,0.610626,0.392447,-0.583564,0.364108,9.86342716217041,0.56018042564392,0.06101559102535,1.23353314399719,-0.89657890796661,1.00488865375519
172,3816344243,0.610543,0.392428,-0.583696,0.364056,9.90218830108643,0.56452661752701,0.09889956563711,0.78849965333939,-1.04145717620850,0.76450067758560
173,3816360910,0.610527,0.392374,-0.583804,0.363966,9.93800926208496,0.56224453449249,0.10530751198530,0.35168802738190,-0.68399357795715,0.51952803134918
174,3816377577,0.610518,0.392315,-0.583897,0.363898,9.93671417236328,0.55859345197678,0.12877590954304,0.32803463935852,-0.53350609540939,0.56607902050018
175,3816394244,0.610457,0.392371,-0.583922,0.363900,9.90659427642822,0.52391731739044,-0.01546192355454,1.57867729663849,-0.53636193275452,0.34807661175728
176,3816410911,0.610482,0.392280,-0.584020,0.363798,9.88615703582764,0.57144933938980,0.21513390541077,0.05861467123032,-0.41388198733330,0.48019966483116
177,3816427578,0.610515,0.392098,-0.584181,0.363680,9.89211082458496,0.52477014064789,0.07053109258413,-0.45231392979622,-0.46658009290695,0.93786025047302
178,3816444245,0.610480,0.392023,-0.584314,0.363606,9.89459705352783,0.48454490303993,0.07448020577431,0.43376383185387,-0.75917965173721,0.77959936857224
179,3816460912,0.610451,0.391987,-0.584422,0.363521,9.83269882202148,0.53868132829666,0.10638391971588,0.54569143056870,-0.76513457298279,0.49696317315102
180,3816477579,0.610317,0.392023,-0.584552,0.363497,9.86907482147217,0.51867079734802,0.09782757610083,1.15746343135834,-1.30291152000427,0.77865165472031
181,3816494246,0.610190,0.392019,-0.584725,0.363437,9.89865016937256,0.57527899742126,0.11281328648329,0.92095571756363,-1.44630420207977,0.89109128713608
182,3816510913,0.610125,0.391962,-0.584865,0.363382,9.94141578674316,0.53282159566879,0.10919184982777,0.46556207537651,-0.91701781749725,0.88614809513092
183,3816527580,0.610102,0.391887,-0.585000,0.363284,9.90050792694092,0.53262180089951,0.10285499691963,0.10804717242718,-0.80151730775833,0.65252190828323
184,3816544247,0.610088,0.391833,-0.585101,0.363203,9.90635871887207,0.51331186294556,0.11788586527109,0.25030013918877,-0.63386946916580,0.53216785192490
185,3816560914,0.610043,0.391786,-0.585203,0.363166,9.89241695404053,0.51633530855179,0.08887264877558,0.59780043363571,-0.65562748908997,0.75761085748672
186,3816577581,0.609966,0.391731,-0.585320,0.363164,9.89123725891113,0.52879375219345,0.07698704302311,0.70802468061447,-0.73880475759506,1.06025063991547
187,3816594248,0.609879,0.391684,-0.585458,0.363141,9.89659595489502,0.52011513710022,0.05997867882252,0.65732431411743,-0.93703430891037,1.02348351478577
188,3816610915,0.609792,0.391655,-0.585584,0.363113,9.87495136260986,0.54030317068100,0.04450195655227,0.63662928342819,-0.95541137456894,0.89438271522522
189,3816627582,0.609706,0.391629,-0.585730,0.363051,9.89632606506348,0.54015552997589,0.04818915948272,0.61339855194092,-1.12918066978455,0.79594027996063
190,3816644249,0.609626,0.391627,-0.585860,0.362977,9.90348339080811,0.54913061857224,0.06927325576544,0.66395807266235,-1.12614560127258,0.58642840385437
191,3816660916,0.609512,0.391688,-0.585965,0.362934,9.91849136352539,0.52429282665253,0.03497705981135,1.25021982192993,-1.22577893733978,0.48787069320679
192,3816677583,0.609391,0.391748,-0.586058,0.362922,9.90279483795166,0.52513974905014,0.07248444855213,1.46336841583252,-1.11623322963715,0.60476696491241
193,3816694250,0.609282,0.391780,-0.586167,0.362894,9.91284179687500,0.51131671667099,0.07310342043638,1.25535535812378,-1.11527311801910,0.66219079494476
194,3816710917,0.609210,0.391784,-0.586273,0.362841,9.91071701049805,0.50447875261307,0.06512004137039,0.92022585868835,-0.93973636627197,0.56922942399979
195,3816727584,0.609126,0.391841,-0.586350,0.362794,9.92000579833984,0.53284549713135,0.03660696372390,0.92765349149704,-1.00825023651123,0.33063432574272
196,3816744251,0.609062,0.391864,-0.586438,0.362735,9.88675975799561,0.51621669530869,0.01407965831459,0.96892851591110,-0.90229052305222,0.40174800157547
197,3816760918,0.608978,0.391919,-0.586540,0.362651,9.90350341796875,0.52159255743027,0.05800452083349,1.10480380058289,-1.18833339214325,0.25455182790756
198,3816777585,0.608888,0.391983,-0.586605,0.362628,9.90307044982910,0.53685921430588,0.06033702567220,1.28655135631561,-0.92622566223145,0.38887760043144
199,3816794252,0.608787,0.392084,-0.586631,0.362647,9.90808200836182,0.53834092617035,0.04228767007589,1.71498787403107,-0.78322988748550,0.33231195807457
200,3816810919,0.608741,0.392142,-0.586662,0.362611,9.90905952453613,0.53108841180801,0.08409785479307,1.32526516914368,-0.61599183082581,0.15782545506954
201,3816827586,0.608671,0.392182,-0.586709,0.362608,9.92199230194092,0.52663069963455,0.04361809045076,1.24723613262177,-0.65533304214478,0.46767511963844
202,3816844253,0.608454,0.392412,-0.586720,0.362705,9.88117408752441,0.53267788887024,-0.06238926947117,2.97002291679382,-1.29872393608093,0.39466607570648
203,3816860920,0.608431,0.392428,-0.586832,0.362546,9.97802257537842,0.50740671157837,0.22739312052727,0.40147909522057,-1.09058237075806,-0.02874385379255
204,3816877587,0.608617,0.392199,-0.586910,0.362357,9.82527637481689,0.47915804386139,-0.07926284521818,-1.26373696327209,0.42535009980202,0.22122968733311
205,3816894254,0.608589,0.392097,-0.587082,0.362234,9.88343429565430,0.49160069227219,-0.07156131416559,-0.31025308370590,-0.98627465963364,0.77135205268860
206,3816910921,0.608452,0.392091,-0.587274,0.362160,9.86112403869629,0.54641461372375,0.03447036445141,0.77650016546249,-1.59563910961151,0.91693454980850
207,3816927588,0.608202,0.392215,-0.587427,0.362198,9.93227386474609,0.53014642000198,0.09841146320105,2.03656816482544,-1.92113804817200,1.03686606884003
208,3816944255,0.608005,0.392360,-0.587477,0.362291,9.94672393798828,0.51960510015488,0.05060756206512,2.30278658866882,-1.18470895290375,0.76698505878448
209,3816960922,0.607810,0.392564,-0.587535,0.362304,9.90853023529053,0.49901536107063,0.02035454101861,2.41190958023071,-1.56768310070038,0.21924470365047
210,3816977589,0.607671,0.392674,-0.587606,0.362301,9.92376804351807,0.51671439409256,0.05808255821466,1.71912443637848,-1.20582675933838,0.42235344648361
211,3816994256,0.607606,0.392698,-0.587673,0.362276,9.92384815216064,0.52514237165451,0.04952520504594,1.17768478393555,-0.72894382476807,0.48187732696533
212,3817010923,0.607569,0.392684,-0.587722,0.362274,9.92818450927734,0.52900749444962,0.02324644289911,0.87218910455704,-0.40375217795372,0.61508888006210
213,3817027590,0.607519,0.392765,-0.587713,0.362284,9.89962291717529,0.52512085437775,-0.00430260878056,1.66312253475189,-0.39809182286263,0.15425248444080
214,3817044257,0.607420,0.392881,-0.587694,0.362354,9.90120601654053,0.50981760025024,-0.01781484484673,2.15147972106934,-0.48991337418556,0.36626160144806
215,3817060924,0.607326,0.392961,-0.587688,0.362435,9.86226749420166,0.52476370334625,-0.02158887870610,1.92387223243713,-0.40357288718224,0.57066375017166
216,3817077591,0.607266,0.392988,-0.587743,0.362419,9.88342571258545,0.54487979412079,-0.00432749278843,1.18485629558563,-0.64462685585022,0.47015953063965
217,3817094258,0.607238,0.392989,-0.587805,0.362363,9.91652488708496,0.54365795850754,0.01541921962053,0.83969950675964,-0.58990526199341,0.33880475163460
218,3817110925,0.607222,0.393002,-0.587829,0.362337,9.91328716278076,0.53739666938782,0.02643053419888,1.04024684429169,-0.33069196343422,0.29028153419495
219,3817127592,0.607220,0.393066,-0.587787,0.362339,9.91426467895508,0.49415841698647,-0.00875760894269,1.56360411643982,-0.04669835045934,-0.01524595823139
220,3817144259,0.607175,0.393179,-0.587746,0.362358,9.87323665618896,0.52993506193161,0.00312237697653,1.85273301601410,-0.30342724919319,-0.03573611751199
221,3817160926,0.607150,0.393219,-0.587713,0.362411,9.88772296905518,0.51511210203171,-0.02013965509832,1.65224957466125,0.01627686992288,0.37222933769226
222,3817177593,0.607068,0.393260,-0.587770,0.362411,9.88624668121338,0.48494270443916,-0.03935150802135,1.24184477329254,-0.73895841836929,0.53495967388153
223,3817194260,0.607005,0.393307,-0.587801,0.362416,9.94480133056641,0.48461043834686,0.06840720772743,1.38654351234436,-0.55365049839020,0.41737172007561
224,3817210927,0.606930,0.393426,-0.587779,0.362449,9.87881374359131,0.54429167509079,-0.01918070018291,1.86529612541199,-0.49243614077568,0.12642428278923
225,3817227594,0.606834,0.393583,-0.587762,0.362465,9.93833351135254,0.53290140628815,0.02056909166276,2.07918763160706,-0.72768884897232,-0.03216314688325
226,3817244261,0.606792,0.393652,-0.587746,0.362487,9.90767955780029,0.55951964855194,0.00971050187945,1.46943914890289,-0.29597395658493,0.21314890682697
227,3817260928,0.606807,0.393618,-0.587776,0.362450,9.91268348693848,0.55145394802094,0.00408626114950,0.74716079235077,-0.14190076291561,0.37129446864128
228,3817277595,0.606869,0.393556,-0.587789,0.362393,9.92196559906006,0.52152204513550,0.00671281851828,0.41332492232323,0.13524785637856,0.23817248642445
229,3817294262,0.606919,0.393494,-0.587774,0.362399,9.90426349639893,0.52749055624008,-0.00715956697240,0.59239608049393,0.36352100968361,0.45220500230789
230,3817310929,0.606964,0.393429,-0.587765,0.362410,9.89531898498535,0.51741188764572,0.01824475266039,0.87441754341125,0.34773081541061,0.51635199785233
231,3817327596,0.606995,0.393363,-0.587769,0.362424,9.89187431335449,0.49563458561897,-0.00527548277751,0.81733971834183,0.24939085543156,0.60353767871857
232,3817344263,0.607022,0.393307,-0.587768,0.362439,9.88816833496094,0.52328902482986,-0.00732581969351,0.78524696826935,0.22297136485577,0.56385082006454
233,3817360930,0.607040,0.393296,-0.587756,0.362440,9.89393997192383,0.51372611522675,-0.01990063115954,1.00464522838593,0.08796680718660,0.31241089105606
234,3817377597,0.607064,0.393266,-0.587763,0.362421,9.89336872100830,0.50514113903046,-0.02807574905455,0.85771805047989,0.02922408469021,0.34566897153854
235,3817394264,0.607062,0.393262,-0.587758,0.362438,9.89962291717529,0.49231833219528,-0.01288489717990,1.09709429740906,0.00603178981692,0.41957440972328
236,3817410931,0.607034,0.393279,-0.587757,0.362467,9.89453411102295,0.51685279607773,0.00758363353088,1.36545157432556,-0.14455167949200,0.45776301622391
237,3817427598,0.606998,0.393269,-0.587781,0.362500,9.90623188018799,0.53166860342026,0.01731793209910,1.33478021621704,-0.18846464157104,0.68086236715317
238,3817444265,0.606978,0.393267,-0.587784,0.362530,9.90453433990479,0.54220330715179,0.03807477280498,1.18367815017700,-0.07904719561338,0.53141230344772
239,3817460932,0.606990,0.393260,-0.587774,0.362534,9.91454982757568,0.53740900754929,0.00976593885571,0.99994546175003,0.04990634694695,0.33333647251129
240,3817477599,0.607030,0.393261,-0.587758,0.362493,9.90545177459717,0.52639156579971,-0.01929049380124,0.87477612495422,0.05309512466192,0.02444732002914
241,3817494266,0.607047,0.393300,-0.587742,0.362449,9.89553165435791,0.49809294939041,-0.02080090343952,0.98616576194763,-0.15287579596043,-0.08463075757027
242,3817510933,0.607051,0.393315,-0.587746,0.362419,9.91118049621582,0.51091164350510,0.03752840682864,1.03914558887482,-0.18512217700481,0.15617342293262
243,3817527600,0.607041,0.393321,-0.587752,0.362419,9.90854358673096,0.52001017332077,0.00693515967578,1.19081127643585,-0.14424432814121,0.36238127946854
244,3817544267,0.607046,0.393357,-0.587726,0.362413,9.92141056060791,0.52944332361221,0.01438573002815,1.19303965568542,-0.04567384719849,0.08996461331844
245,3817560934,0.607125,0.393335,-0.587686,0.362370,9.90909862518311,0.52622789144516,0.03673485293984,0.64325010776520,0.35834729671478,-0.05467670783401
246,3817577601,0.606997,0.393493,-0.587637,0.362493,9.88390159606934,0.48074939846992,-0.18666990101337,2.67870426177979,-0.44674316048622,0.40483433008194
247,3817594268,0.606949,0.393596,-0.587691,0.362374,9.91795158386230,0.56986892223358,0.21284504234791,0.89792984724045,-1.06731307506561,-0.30340158939362
248,3817610935,0.607118,0.393507,-0.587652,0.362251,9.90853309631348,0.45584842562675,-0.03383092209697,-0.08675660938025,0.67235893011093,-0.33485400676727
249,3817627602,0.607230,0.393307,-0.587763,0.362099,9.86512470245361,0.52247154712677,-0.08235391229391,-0.89071363210678,0.01157693937421,0.53620177507401
250,3817644269,0.607266,0.393292,-0.587767,0.362048,9.84699058532715,0.50514644384384,-0.05609996244311,0.66504657268524,-0.04142213985324,0.11196590214968
251,3817660936,0.607146,0.393324,-0.587848,0.362084,9.91088199615479,0.51034820079803,0.00754109350964,1.44569599628448,-0.87040269374847,0.88034689426422
252,3817677603,0.607023,0.393473,-0.587830,0.362157,9.93350028991699,0.53471881151199,0.01362793706357,2.33618545532227,-0.66415649652481,0.29995033144951
253,3817694270,0.606914,0.393680,-0.587786,0.362187,9.88810348510742,0.50858300924301,-0.03302297368646,2.32416057586670,-0.76081889867783,-0.21209236979485
254,3817710937,0.606817,0.393846,-0.587780,0.362179,9.91016292572021,0.54044556617737,-0.01954499445856,2.00213217735291,-0.87290006875992,-0.13738012313843
255,3817727604,0.606794,0.393913,-0.587769,0.362163,9.91851329803467,0.52207177877426,0.00062014645664,1.17251098155975,-0.33530220389366,0.03496133536100
256,3817744271,0.606786,0.393895,-0.587808,0.362132,9.91115951538086,0.52004522085190,-0.01466708257794,0.80496871471405,-0.29602515697479,0.41135272383690
257,3817760938,0.606780,0.393932,-0.587779,0.362150,9.88063907623291,0.54596382379532,-0.06338650733232,1.41425633430481,-0.01387567911297,0.20519614219666
258,3817777605,0.606734,0.394047,-0.587708,0.362216,9.88097381591797,0.50876694917679,-0.05166476219893,2.13011884689331,-0.06652259081602,0.08162768185139
259,3817794272,0.606669,0.394139,-0.587670,0.362286,9.88047599792480,0.50240498781204,-0.05236642062664,2.07629370689392,-0.20393474400043,0.32117047905922
260,3817810939,0.606619,0.394189,-0.587682,0.362297,9.88706779479980,0.54373109340668,-0.02936058677733,1.42780554294586,-0.41197389364243,0.34209600090981
261,3817827606,0.606603,0.394222,-0.587706,0.362248,9.89400482177734,0.55042320489883,0.03033276647329,0.99104499816895,-0.44555211067200,0.10490961372852
262,3817844273,0.606602,0.394225,-0.587732,0.362204,9.91553974151611,0.55310708284378,0.00998977757990,0.93195647001266,-0.29871448874474,0.22432881593704
263,3817860940,0.606632,0.394245,-0.587708,0.362171,9.92011547088623,0.56299501657486,0.01771263778210,1.10890185832977,0.01945284567773,-0.01309449318796
264,3817877607,0.606639,0.394348,-0.587608,0.362209,9.90351390838623,0.49804851412773,-0.11148077994585,1.97549474239349,0.23344692587852,-0.20607337355614
265,3817894274,0.606617,0.394452,-0.587513,0.362287,9.87222385406494,0.55185747146606,-0.00948357675225,1.92490959167480,0.18288744986057,0.04528325051069
266,3817910941,0.606585,0.394494,-0.587528,0.362271,9.85168170928955,0.52785670757294,-0.00526646990329,1.27384769916534,-0.40619823336601,0.22614735364914
267,3817927608,0.606538,0.394504,-0.587582,0.362250,9.94286918640137,0.50931847095490,0.03218410164118,0.99052000045776,-0.56397247314453,0.48313236236572
268,3817944275,0.606554,0.394504,-0.587563,0.362255,9.87703418731689,0.52943950891495,-0.03586316108704,1.26513934135437,0.10279656946659,0.27572071552277
269,3817960942,0.606501,0.394577,-0.587569,0.362254,9.90665149688721,0.52113199234009,-0.01364041958004,1.59942376613617,-0.48457315564156,0.18973889946938
270,3817977609,0.606459,0.394607,-0.587587,0.362262,9.89551258087158,0.54944354295731,0.01381070446223,1.36958801746368,-0.35813599824905,0.40401476621628
271,3817994276,0.606460,0.394562,-0.587641,0.362223,9.91202259063721,0.54621005058289,0.01260862126946,0.66646802425385,-0.27521485090256,0.50937253236771
272,3818010943,0.606498,0.394471,-0.587685,0.362186,9.92702579498291,0.54834342002869,-0.01379700750113,0.43259847164154,0.03615232929587,0.58259928226471
273,3818027610,0.606552,0.394438,-0.587672,0.362153,9.90540409088135,0.55107563734055,0.00469198403880,0.74530392885208,0.19898505508900,0.16965851187706
274,3818044277,0.606593,0.394415,-0.587648,0.362148,9.89446353912354,0.52094775438309,0.01664068177342,0.97170722484589,0.24740585684776,0.24928838014603
275,3818060944,0.606628,0.394364,-0.587645,0.362151,9.88523578643799,0.50862753391266,0.01640107296407,0.81821054220200,0.22496914863586,0.46846908330917
276,3818077611,0.606649,0.394312,-0.587663,0.362141,9.89288902282715,0.51775819063187,-0.03270152583718,0.77958643436432,0.04958618432283,0.50851446390152
277,3818094278,0.606643,0.394283,-0.587687,0.362145,9.89061164855957,0.52971583604813,-0.05687407031655,0.77966332435608,-0.11598069220781,0.55331104993820
278,3818110945,0.606636,0.394267,-0.587704,0.362148,9.87989044189453,0.54158073663712,-0.04779406636953,1.05879056453705,-0.11503303050995,0.48662847280502
279,3818127612,0.606633,0.394256,-0.587730,0.362121,9.90402698516846,0.52258348464966,-0.03080253303051,0.86386519670486,-0.23011091351509,0.35468468070030
280,3818144279,0.606637,0.394232,-0.587758,0.362096,9.90119171142578,0.51012569665909,-0.03137619048357,0.87854117155075,-0.17094555497169,0.39967334270477
281,3818160946,0.606642,0.394214,-0.587770,0.362089,9.92428874969482,0.51975107192993,-0.02830210141838,0.97670179605484,-0.06542123109102,0.40655040740967
282,3818177613,0.606648,0.394186,-0.587787,0.362081,9.91164684295654,0.52054268121719,-0.01452073734254,0.88954180479050,-0.06857159733772,0.45334473252296
283,3818194280,0.606654,0.394115,-0.587845,0.362053,9.92520141601562,0.53479921817780,-0.00941378250718,0.61648476123810,-0.17280244827271,0.66033375263214
284,3818210947,0.606699,0.394030,-0.587885,0.362005,9.91784954071045,0.54416644573212,-0.01163340266794,0.32881587743759,0.03087611123919,0.48354217410088
285,3818227614,0.606763,0.393972,-0.587886,0.361960,9.89756488800049,0.54076206684113,-0.02871307171881,0.45133420825005,0.21154810488224,0.22900314629078
286,3818244281,0.606855,0.393896,-0.587879,0.361899,9.88983345031738,0.53517585992813,-0.04465610161424,0.38129624724388,0.36022979021072,0.14813104271889
287,3818260948,0.606912,0.393858,-0.587875,0.361851,9.88514137268066,0.51400470733643,-0.03743931278586,0.54849594831467,0.14822067320347,0.14580029249191
288,3818277615,0.606962,0.393794,-0.587888,0.361816,9.88627815246582,0.51698368787766,0.00138369644992,0.57738703489304,0.14951412379742,0.36665856838226
289,3818294282,0.607012,0.393709,-0.587903,0.361800,9.91017818450928,0.51511329412460,-0.00254268338904,0.55299097299576,0.24574100971222,0.53297460079193
290,3818310949,0.607087,0.393654,-0.587882,0.361768,9.93174266815186,0.53651332855225,-0.00842912029475,0.59284436702728,0.37635296583176,0.19486139714718
291,3818327616,0.607245,0.393530,-0.587844,0.361701,9.90668582916260,0.52446460723877,0.02851848676801,0.01189710013568,0.86177772283554,0.06337862461805
292,3818344283,0.607290,0.393480,-0.587831,0.361699,9.88945484161377,0.50120013952255,-0.08846683800220,0.81123095750809,0.28991013765335,0.39189994335175
293,3818360950,0.607198,0.393599,-0.587810,0.361759,9.85528659820557,0.58962202072144,-0.01793259195983,2.07989192008972,-0.48821008205414,0.28553035855293
294,3818377617,0.607323,0.393543,-0.587796,0.361635,9.98281478881836,0.47549608349800,0.14905273914337,-0.13661172986031,0.29776042699814,-0.29771560430527
295,3818394284,0.607548,0.393240,-0.587868,0.361468,9.82757949829102,0.50512796640396,-0.11861820518970,-1.70086884498596,0.84105694293976,0.50997442007065
296,3818410951,0.607693,0.393034,-0.587903,0.361391,9.89805126190186,0.53161388635635,-0.03779930993915,-0.65100431442261,0.67453604936600,0.58245837688446
297,3818427618,0.607703,0.392898,-0.588003,0.361359,9.88130187988281,0.50691771507263,-0.01575668156147,0.09545852243900,-0.19529043138027,1.00609242916107
298,3818444285,0.607614,0.392901,-0.588037,0.361450,9.94711017608643,0.55090367794037,0.05112619325519,1.53824734687805,-0.33073034882545,1.01959013938904
299,3818460952,0.607542,0.393033,-0.587963,0.361549,9.90377902984619,0.51458108425140,-0.01346588693559,2.30769157409668,-0.11331699043512,0.20517052710056
300,3818477619,0.607427,0.393215,-0.587921,0.361613,9.92116165161133,0.52426087856293,0.01905049011111,2.42152714729309,-0.63910734653473,0.04378491640091
301,3818494286,0.607391,0.393321,-0.587864,0.361651,9.93525314331055,0.54865819215775,0.06384550780058,1.96390461921692,-0.13237282633781,0.00813203025609
302,3818510953,0.607459,0.393297,-0.587803,0.361660,9.94275474548340,0.50992751121521,0.03661984205246,1.04293632507324,0.54776597023010,0.14475014805794
303,3818527620,0.607540,0.393265,-0.587724,0.361686,9.89231014251709,0.52690786123276,-0.03231395408511,1.09338045120239,0.74694317579269,0.16589346528053
304,3818544287,0.607553,0.393377,-0.587580,0.361778,9.87165355682373,0.52166873216629,-0.04261581227183,2.23148083686829,0.55309349298477,-0.14827832579613
305,3818560954,0.607520,0.393509,-0.587448,0.361906,9.84887313842773,0.51662921905518,0.00435408437625,2.53371047973633,0.37135848402977,0.06877008825541
306,3818577621,0.607500,0.393551,-0.587394,0.361981,9.85867881774902,0.51999139785767,-0.03081161901355,1.82683825492859,0.18428334593773,0.39145162701607
307,3818594288,0.607522,0.393537,-0.587381,0.361979,9.90417575836182,0.54386478662491,0.00018898630515,1.00289082527161,0.10570360720158,0.30362573266029
308,3818610955,0.607568,0.393493,-0.587380,0.361953,9.91595745086670,0.56069576740265,-0.00314317271113,0.76297670602798,0.17116965353489,0.29302209615707
309,3818627622,0.607635,0.393475,-0.587316,0.361964,9.93927860260010,0.56431943178177,0.03159347176552,1.00048327445984,0.54314291477203,0.11963691562414
310,3818644289,0.607733,0.393531,-0.587142,0.362019,9.93719005584717,0.52041953802109,-0.02644410729408,1.66807818412781,1.06678164005280,-0.36733093857765
311,3818660956,0.607794,0.393635,-0.586950,0.362115,9.88960933685303,0.54672777652740,0.02667652629316,2.28186106681824,0.98249030113220,-0.34700724482536
312,3818677623,0.607863,0.393694,-0.586782,0.362209,9.89322662353516,0.52371495962143,-0.03696194663644,1.98566305637360,1.02904140949249,-0.12783938646317
313,3818694290,0.607939,0.393624,-0.586769,0.362178,9.89969253540039,0.47423368692398,0.08231713622808,0.42760398983955,0.38363984227180,0.27123847603798
314,3818710957,0.608037,0.393581,-0.586652,0.362249,9.91972541809082,0.51477843523026,0.02603543922305,1.27031314373016,1.11928784847260,0.24403780698776
315,3818727624,0.608047,0.393625,-0.586585,0.362293,9.88227558135986,0.56338191032410,0.00775472121313,1.55679118633270,0.26528352499008,0.14970622956753
316,3818744291,0.608066,0.393690,-0.586485,0.362352,9.91909885406494,0.55725377798080,0.05411512404680,1.82353436946869,0.42304491996765,0.00827290210873
317,3818760958,0.608129,0.393655,-0.586433,0.362367,9.92351436614990,0.56426835060120,0.05268848687410,0.99281221628189,0.53949302434921,0.25019764900208
318,3818777625,0.608245,0.393563,-0.586381,0.362358,9.91257095336914,0.53476005792618,0.05080734938383,0.50465971231461,0.82680350542068,0.23976047337055
319,3818794292,0.608381,0.393480,-0.586294,0.362361,9.90851211547852,0.54851663112640,0.03919353336096,0.66304880380630,1.06566762924194,0.11899661272764
320,3818810959,0.608506,0.393433,-0.586174,0.362396,9.89083576202393,0.51925277709961,0.06611850857735,0.96730196475983,1.14752566814423,0.04126206040382
321,3818827626,0.608620,0.393366,-0.586086,0.362420,9.89213752746582,0.51260578632355,0.05891605094075,0.90321898460388,0.99716633558273,0.19473335146904
322,3818844293,0.608733,0.393296,-0.585989,0.362463,9.86138629913330,0.50368112325668,0.01881017349660,0.81612300872803,1.08364760875702,0.25681853294373
323,3818860960,0.608832,0.393201,-0.585951,0.362462,9.88491344451904,0.54809010028839,0.04417021200061,0.63107132911682,0.72576147317886,0.37485468387604
324,3818877627,0.608906,0.393134,-0.585914,0.362470,9.90227890014648,0.55457055568695,0.04186836630106,0.72551810741425,0.57938486337662,0.35892352461815
325,3818894294,0.608984,0.393117,-0.585834,0.362486,9.90077972412109,0.55572867393494,0.02520082145929,0.98100483417511,0.66649377346039,0.06659302115440
326,3818910961,0.609039,0.393124,-0.585751,0.362519,9.90394115447998,0.56066411733627,0.03641883656383,1.20106899738312,0.56623274087906,0.08812049031258
327,3818927628,0.609091,0.393141,-0.585662,0.362558,9.90162944793701,0.54546409845352,0.03343645855784,1.30701601505280,0.57035642862320,0.06958971917629
328,3818944295,0.609124,0.393170,-0.585564,0.362628,9.91625404357910,0.54574322700500,0.05211642012000,1.43721818923950,0.58563441038132,0.17061901092529
329,3818960962,0.609175,0.393161,-0.585488,0.362677,9.88682937622070,0.53599351644516,0.05730442702770,1.23605608940125,0.60435730218887,0.24631735682487
330,3818977629,0.609246,0.393120,-0.585438,0.362683,9.90099143981934,0.56013160943985,0.08111712336540,0.85112279653549,0.54996865987778,0.22276644408703
331,3818994296,0.609332,0.393057,-0.585388,0.362686,9.90826797485352,0.56809967756271,0.08435581624508,0.77564209699631,0.65540337562561,0.25720271468163
332,3819010963,0.609441,0.392996,-0.585315,0.362687,9.90180778503418,0.56277334690094,0.04638249799609,0.72312337160110,0.83201575279236,0.12267202883959
333,3819027630,0.609551,0.392943,-0.585241,0.362679,9.88895797729492,0.53910464048386,0.00957680121064,0.79408329725266,0.80586510896683,0.04954776540399
334,3819044297,0.609636,0.392892,-0.585172,0.362703,9.88024425506592,0.54362601041794,0.01191418245435,0.92472088336945,0.75693207979202,0.24594593048096
335,3819060964,0.609693,0.392857,-0.585106,0.362752,9.87998485565186,0.55497002601624,0.06085723638535,1.12597274780273,0.65879702568054,0.37075665593147
336,3819077631,0.609733,0.392866,-0.585026,0.362804,9.90826892852783,0.54916149377823,0.04623474925756,1.49852216243744,0.55274760723114,0.21089495718479
337,3819094298,0.609771,0.392889,-0.584930,0.362869,9.92710304260254,0.55689144134521,0.07818238437176,1.70145177841187,0.61415416002274,0.16643132269382
338,3819110965,0.609903,0.392883,-0.584774,0.362906,9.90247058868408,0.54256576299667,0.09878028184175,1.33819949626923,1.23860442638397,-0.22895832359791
339,3819127632,0.609918,0.392930,-0.584663,0.363009,9.91789627075195,0.54808229207993,0.01254707109183,2.02226376533508,0.62820273637772,0.25601175427437
340,3819144299,0.609961,0.393036,-0.584526,0.363043,9.83389949798584,0.53958994150162,0.11230055987835,1.96952688694000,0.51204901933670,-0.42326903343201
341,3819160966,0.610081,0.393020,-0.584416,0.363036,9.93737125396729,0.50892043113708,0.05293492972851,0.95197278261185,0.90079855918884,-0.21617756783962
342,3819177633,0.610308,0.392692,-0.584572,0.362757,9.79010295867920,0.55529081821442,0.05301223695278,-2.37764620780945,0.25698503851891,0.34728258848190
343,3819194300,0.610348,0.392576,-0.584629,0.362725,9.90578269958496,0.54811096191406,0.02432893775403,0.22568628191948,0.05805118009448,0.72418624162674
344,3819210967,0.610312,0.392498,-0.584752,0.362669,9.89125823974609,0.57173180580139,0.08022275567055,0.45868504047394,-0.67641228437424,0.84392559528351
345,3819227634,0.610207,0.392627,-0.584704,0.362785,9.96688556671143,0.55251049995422,0.08416571468115,2.50142574310303,-0.29174783825874,0.43965476751328
346,3819244301,0.610116,0.392870,-0.584540,0.362939,9.90515804290771,0.55704629421234,0.05772086977959,3.38547348976135,0.06678511202335,-0.20215462148190
347,3819260968,0.610013,0.393141,-0.584402,0.363040,9.91305446624756,0.55901038646698,0.08842265605927,3.21774888038635,-0.30525854229927,-0.44128757715225
348,3819277635,0.610016,0.393246,-0.584302,0.363084,9.91948413848877,0.53595113754272,0.11791937798262,2.04571223258972,0.22627539932728,-0.17034365236759
349,3819294302,0.610083,0.393235,-0.584242,0.363078,9.90847206115723,0.56011229753494,0.08205014467239,1.00821816921234,0.47005704045296,0.03260496631265
350,3819310969,0.610158,0.393221,-0.584174,0.363077,9.85083484649658,0.53372770547867,0.07551830261946,1.11848104000092,0.55908685922623,0.02502360939980
351,3819327636,0.610158,0.393251,-0.584126,0.363122,9.82393074035645,0.54736852645874,0.05923685058951,1.61737787723541,0.18999502062798,0.27789777517319
352,3819344303,0.610128,0.393273,-0.584092,0.363203,9.84854602813721,0.54929393529892,0.03438504785299,1.69444668292999,0.12002111226320,0.57688766717911
353,3819360970,0.610122,0.393269,-0.584091,0.363220,9.87161540985107,0.56657457351685,0.03286624699831,1.30077946186066,-0.01776881143451,0.44195994734764
354,3819377637,0.610148,0.393252,-0.584098,0.363183,9.90123367309570,0.56436485052109,0.01308534294367,0.75718826055527,-0.04874736815691,0.21414777636528
355,3819394304,0.610188,0.393220,-0.584117,0.363119,9.91691970825195,0.57986414432526,0.05825999379158,0.71806478500366,-0.06252700090408,0.14914272725582
356,3819410971,0.610219,0.393210,-0.584108,0.363093,9.91486740112305,0.56853711605072,0.06869103014469,0.93307065963745,0.05321038514376,0.17574153840542
357,3819427638,0.610191,0.393278,-0.584068,0.363132,9.89270687103271,0.53165465593338,-0.04452518746257,1.93849718570709,-0.06195071712136,0.19381128251553
358,3819444305,0.610267,0.393191,-0.584093,0.363057,9.83505630493164,0.57614129781723,0.17712239921093,0.20406919717789,0.15686498582363,0.25424444675446
359,3819460972,0.610320,0.393016,-0.584204,0.362980,9.87987613677979,0.50200444459915,0.03879669681191,-0.37305533885956,-0.08743534237146,0.88722378015518
360,3819477639,0.610285,0.392945,-0.584305,0.362953,9.86798000335693,0.52619636058807,0.02566638216376,0.56207066774368,-0.52410626411438,0.87856674194336
361,3819494306,0.610238,0.392953,-0.584368,0.362921,9.84642410278320,0.54520696401596,0.07434175163507,0.92732059955597,-0.62385493516922,0.46396121382713
362,3819510973,0.610128,0.392943,-0.584501,0.362903,9.89124298095703,0.57377886772156,0.11626827716827,1.04287242889404,-1.08166933059692,0.93897438049316
363,3819527640,0.610028,0.392932,-0.584624,0.362884,9.91091918945312,0.60866421461105,0.10345999151468,0.97091341018677,-1.00311493873596,0.89174449443817
364,3819544307,0.610019,0.392841,-0.584748,0.362799,9.94495773315430,0.58423411846161,0.09407059103251,0.13879519701004,-0.61842495203018,0.70634692907333
365,3819560974,0.610059,0.392735,-0.584846,0.362687,9.92912864685059,0.58385872840881,0.11060136556625,-0.12580318748951,-0.35002958774567,0.46387159824371
366,3819577641,0.610114,0.392648,-0.584909,0.362588,9.92231941223145,0.55898267030716,0.10771178454161,0.09813506156206,-0.15054506063461,0.30929899215698
367,3819594308,0.610126,0.392572,-0.584981,0.362534,9.89095592498779,0.52190452814102,0.12522804737091,0.41603991389275,-0.27398547530174,0.58988606929779
368,3819610975,0.610124,0.392474,-0.585073,0.362495,9.87035942077637,0.53286737203598,0.06416592001915,0.38622671365738,-0.31435108184814,0.82645779848099
369,3819627642,0.610075,0.392387,-0.585210,0.362451,9.87723159790039,0.53607267141342,0.07568575441837,0.40405315160751,-0.72804743051529,0.99802434444427
370,3819644309,0.610020,0.392324,-0.585341,0.362400,9.88904762268066,0.55500680208206,0.05047315359116,0.46255257725716,-0.81803768873215,0.87058854103088
371,3819660976,0.609981,0.392284,-0.585454,0.362326,9.91121673583984,0.56270754337311,0.06001970171928,0.46725243330002,-0.79367989301682,0.59361273050308
372,3819677643,0.609931,0.392269,-0.585556,0.362263,9.91121006011963,0.53192335367203,0.05289439111948,0.57851403951645,-0.83272653818130,0.53776425123215
373,3819694310,0.609879,0.392259,-0.585641,0.362223,9.92485332489014,0.55358856916428,0.03498348966241,0.81580293178558,-0.71152722835541,0.57454407215118
374,3819710977,0.609805,0.392282,-0.585709,0.362212,9.90160846710205,0.53966689109802,0.03836184740067,1.15988385677338,-0.73381024599075,0.57163697481155
375,3819727644,0.609711,0.392295,-0.585797,0.362215,9.89916706085205,0.54157322645187,0.04773287102580,1.28877985477448,-0.83530062437057,0.77206927537918
376,3819744311,0.609636,0.392319,-0.585865,0.362204,9.89319610595703,0.55442738533020,0.06184098124504,1.09786272048950,-0.74231368303299,0.57175230979919
377,3819760978,0.609591,0.392335,-0.585936,0.362148,9.90198802947998,0.55825549364090,0.07078753411770,0.98112010955811,-0.72750955820084,0.34267231822014
378,3819777645,0.609574,0.392364,-0.585964,0.362100,9.90124607086182,0.55747288465500,0.05789502337575,0.95777404308319,-0.45501598715782,0.14526242017746
379,3819794312,0.609559,0.392383,-0.585996,0.362052,9.88158798217773,0.54151231050491,0.03057323768735,1.00751399993896,-0.43211823701859,0.18931627273560
380,3819810979,0.609515,0.392421,-0.586037,0.362018,9.87752246856689,0.50666540861130,0.00200991285965,1.14285147190094,-0.59566819667816,0.26422059535980
381,3819827646,0.609433,0.392460,-0.586090,0.362029,9.88070869445801,0.50421291589737,0.04214391857386,1.39480364322662,-0.68303304910660,0.58179241418839
382,3819844313,0.609319,0.392522,-0.586161,0.362038,9.91107177734375,0.54819750785828,0.05464313924313,1.50528383255005,-0.95363122224808,0.60196244716644
383,3819860980,0.609223,0.392624,-0.586201,0.362027,9.91584014892578,0.54772615432739,0.04702281951904,1.56063318252563,-0.90398108959198,0.23330608010292
384,3819877647,0.609221,0.392640,-0.586227,0.361969,9.91745376586914,0.54846221208572,0.08501211553812,0.90118277072906,-0.37290173768997,0.10890520364046
385,3819894314,0.609123,0.392722,-0.586253,0.362002,9.91593551635742,0.53217440843582,-0.01030453015119,1.89042198657990,-0.67707812786102,0.46522906422615
386,3819910981,0.608938,0.392972,-0.586264,0.362025,9.84941101074219,0.56266224384308,0.05761340633035,2.70666074752808,-1.41733646392822,-0.07596087455750
387,3819927648,0.608967,0.392976,-0.586316,0.361888,9.97915363311768,0.47890746593475,0.12727709114552,0.47770240902901,-0.53975558280945,-0.18076801300049
388,3819944315,0.609128,0.392679,-0.586515,0.361617,9.80018043518066,0.50140225887299,-0.06679220497608,-2.14717030525208,-0.24211046099663,0.54023587703705
389,3819960982,0.609079,0.392602,-0.586669,0.361534,9.87806224822998,0.54316806793213,-0.04072670638561,0.07946339249611,-0.94286119937897,0.84179973602295
390,3819977649,0.608918,0.392589,-0.586887,0.361465,9.88029289245605,0.55704361200333,0.01563404314220,0.60623979568481,-1.78208696842194,1.09211277961731
391,3819994316,0.608698,0.392665,-0.587042,0.361501,9.94197463989258,0.53841644525528,0.06500504165888,1.75922095775604,-1.69091856479645,1.15147018432617
392,3820010983,0.608517,0.392847,-0.587058,0.361581,9.92336273193359,0.53848344087601,0.02005522325635,2.61227798461914,-1.09888088703156,0.43257290124893
393,3820027650,0.608329,0.393026,-0.587115,0.361612,9.90791034698486,0.53027385473251,0.02427011542022,2.30589866638184,-1.42153692245483,0.37397104501724
394,3820044317,0.608216,0.393107,-0.587184,0.361602,9.93621444702148,0.52881568670273,0.05847445875406,1.60081911087036,-1.03185224533081,0.44266420602798
395,3820060984,0.608177,0.393057,-0.587288,0.361552,9.93123340606689,0.53161472082138,0.06119336187840,0.52830028533936,-0.66998332738876,0.71465831995010
396,3820077651,0.608148,0.393019,-0.587362,0.361522,9.90475273132324,0.56324118375778,0.01343313697726,0.82604795694351,-0.47270154953003,0.63750004768372
397,3820094318,0.608082,0.393103,-0.587351,0.361561,9.88230228424072,0.53806948661804,-0.01817721128464,1.80160987377167,-0.38437619805336,0.30085960030556
398,3820110985,0.607981,0.393227,-0.587321,0.361643,9.86857414245605,0.51948189735413,-0.02057556062937,2.26093554496765,-0.43369346857071,0.35391628742218
399,3820127652,0.607888,0.393293,-0.587349,0.361682,9.87614727020264,0.55493474006653,-0.02198532596231,1.77972376346588,-0.61221390962601,0.54832947254181
400,3820144319,0.607822,0.393327,-0.587414,0.361650,9.89242649078369,0.55097979307175,-0.01635044068098,1.10890185832977,-0.76986002922058,0.40799748897552
401,3820160986,0.607786,0.393312,-0.587494,0.361597,9.90544891357422,0.56951403617859,0.01117961760610,0.80032002925873,-0.64828938245773,0.48598814010620
402,3820177653,0.607761,0.393318,-0.587531,0.361573,9.93048000335693,0.55301403999329,0.03315472975373,1.00044488906860,-0.40133181214333,0.37983638048172
403,3820194320,0.607737,0.393376,-0.587487,0.361621,9.92956638336182,0.51930063962936,-0.06868708133698,1.78361725807190,0.01710928417742,0.24734185636044
404,3820210987,0.607712,0.393438,-0.587465,0.361632,9.86577033996582,0.55035525560379,0.06694401055574,1.71553874015808,-0.18731209635735,0.14291886985302
405,3820227654,0.607692,0.393466,-0.587449,0.361660,9.88469886779785,0.53839832544327,-0.04681886732578,1.47880041599274,-0.06626645475626,0.35492798686028
406,3820244321,0.607630,0.393475,-0.587524,0.361634,9.88648414611816,0.50449061393738,0.00790542177856,1.05259239673615,-0.71873718500137,0.55479669570923
407,3820260988,0.607587,0.393531,-0.587508,0.361671,9.92574596405029,0.50894504785538,0.02207638695836,1.62640643119812,-0.21168254315853,0.33324682712555
408,3820277655,0.607475,0.393641,-0.587525,0.361712,9.88158607482910,0.54170995950699,0.00119779852685,1.94181406497955,-0.74528473615646,0.39041441679001
409,3820294322,0.607386,0.393745,-0.587519,0.361758,9.91471481323242,0.54935765266418,0.01019356679171,1.95503008365631,-0.53618258237839,0.32466655969620
410,3820310989,0.607340,0.393751,-0.587555,0.361770,9.91469860076904,0.56560641527176,0.01782218925655,1.18440806865692,-0.38132828474045,0.57821953296661
411,3820327656,0.607354,0.393692,-0.587606,0.361729,9.91915130615234,0.55454814434052,0.03052650578320,0.57592713832855,-0.17975632846355,0.51051235198975
412,3820344323,0.607396,0.393652,-0.587618,0.361681,9.90959548950195,0.55697637796402,0.01696910336614,0.51786315441132,0.01978580839932,0.23485563695431
413,3820360990,0.607438,0.393610,-0.587613,0.361665,9.90532875061035,0.53218477964401,0.02744394354522,0.77867722511292,0.18784353137016,0.32351395487785
414,3820377657,0.607454,0.393603,-0.587591,0.361680,9.89024639129639,0.51883614063263,0.01833414472640,1.16422533988953,0.14974465966225,0.33634597063065
415,3820394324,0.607460,0.393553,-0.587608,0.361697,9.89713096618652,0.50295209884644,0.01398578286171,0.91720360517502,0.06395491957664,0.64638775587082
416,3820410991,0.607471,0.393517,-0.587605,0.361722,9.89054870605469,0.53227573633194,-0.01431403588504,0.93424874544144,0.14494223892689,0.55761402845383
417,3820427658,0.607491,0.393477,-0.587617,0.361714,9.88359832763672,0.53238999843597,-0.02850743383169,0.70837044715881,0.04013510420918,0.45106521248817
418,3820444325,0.607527,0.393434,-0.587637,0.361669,9.91848659515381,0.53942435979843,-0.04129064828157,0.60385781526566,-0.01971537619829,0.28932106494904
419,3820460992,0.607534,0.393443,-0.587626,0.361665,9.88970088958740,0.52726447582245,-0.02946587838233,1.08839893341064,-0.02663080580533,0.24803338944912
420,3820477659,0.607497,0.393496,-0.587617,0.361683,9.88945770263672,0.51522588729858,-0.02868689596653,1.53076851367950,-0.25443014502525,0.27280086278915
421,3820494326,0.607457,0.393552,-0.587604,0.361709,9.91348171234131,0.52349913120270,-0.03006453253329,1.53997647762299,-0.24089387059212,0.28523585200310
422,3820510993,0.607432,0.393557,-0.587626,0.361711,9.91982841491699,0.54088616371155,0.00995102897286,1.18027150630951,-0.25929656624794,0.45324230194092
423,3820527660,0.607453,0.393539,-0.587627,0.361695,9.89808940887451,0.55133467912674,0.01829506829381,0.94275224208832,0.01932478323579,0.29963016510010
424,3820544327,0.607478,0.393499,-0.587647,0.361663,9.90704154968262,0.54965221881866,0.03718931972980,0.70493823289871,-0.03131792694330,0.35764288902283
425,3820560994,0.607527,0.393441,-0.587649,0.361641,9.92138290405273,0.55188387632370,0.01653638295829,0.65708100795746,0.21077972650528,0.36988583207130
426,3820577661,0.607577,0.393369,-0.587668,0.361603,9.91773509979248,0.54121965169907,0.00419457908720,0.55154389142990,0.13924343883991,0.40334877371788
427,3820594328,0.607623,0.393342,-0.587638,0.361606,9.89904975891113,0.53509521484375,-0.01119656860828,0.86624717712402,0.32306578755379,0.26787042617798
428,3820610995,0.607671,0.393326,-0.587590,0.361620,9.89796733856201,0.53188961744308,-0.02512266114354,1.05987906455994,0.40260601043701,0.21807932853699
429,3820627662,0.607707,0.393330,-0.587561,0.361602,9.89209175109863,0.51861947774887,-0.03598874062300,1.00232744216919,0.14289323985577,0.08301075547934
430,3820644329,0.607724,0.393321,-0.587561,0.361584,9.89788913726807,0.54203701019287,0.03893022611737,0.94218885898590,-0.01938241161406,0.25871387124062
431,3820660996,0.607754,0.393313,-0.587538,0.361580,9.90247917175293,0.55790424346924,0.03443697467446,1.00610518455505,0.16302482783794,0.22120407223701
432,3820677663,0.607786,0.393314,-0.587496,0.361592,9.91040134429932,0.54348176717758,0.00954488478601,1.03967070579529,0.26010975241661,0.20089322328568
433,3820694330,0.607873,0.393265,-0.587457,0.361562,9.90211772918701,0.55323892831802,0.03272580727935,0.56417083740234,0.48796030879021,0.09065613895655
434,3820710997,0.607828,0.393324,-0.587414,0.361644,9.89011859893799,0.52559071779251,-0.10180626809597,1.96974456310272,0.01686596125364,0.44315090775490
435,3820727664,0.607715,0.393477,-0.587414,0.361667,9.84783172607422,0.59928703308105,0.11491966992617,2.18686342239380,-0.84001338481903,0.09845522046089
436,3820744331,0.607794,0.393447,-0.587401,0.361588,9.99350070953369,0.47223460674286,0.11605865508318,0.38438254594803,0.16703321039677,-0.09712975472212
437,3820760998,0.607929,0.393189,-0.587533,0.361428,9.82691192626953,0.50952965021133,-0.09217909723520,-1.34886085987091,0.13387759029865,0.73975878953934
438,3820777665,0.607994,0.393063,-0.587593,0.361357,9.89374542236328,0.52631402015686,-0.02151446230710,-0.13375592231750,0.06903902441263,0.55256837606430
439,3820794332,0.607917,0.392954,-0.587767,0.361323,9.88192081451416,0.52404493093491,0.00470977369696,0.23416413366795,-0.92753177881241,1.30385291576385
440,3820810999,0.607763,0.392960,-0.587888,0.361378,9.93737983703613,0.56537783145905,0.03264439478517,1.42844593524933,-1.05695295333862,1.26009356975555
441,3820827666,0.607634,0.393072,-0.587927,0.361410,9.88381099700928,0.53958159685135,-0.02387188561261,1.96217596530914,-0.94283556938171,0.45162871479988
442,3820844333,0.607475,0.393243,-0.587967,0.361427,9.93767261505127,0.55260175466537,0.00287318252958,2.04421353340149,-1.26371133327484,0.22156266868114
443,3820861000,0.607406,0.393289,-0.588031,0.361389,9.94949531555176,0.56228274106979,0.06633300334215,1.12218201160431,-0.82859003543854,0.34072574973106
444,3820877667,0.607406,0.393242,-0.588115,0.361301,9.94128036499023,0.53556925058365,0.04668738692999,0.38070714473724,-0.53465867042542,0.39367997646332
445,3820894334,0.607420,0.393245,-0.588159,0.361205,9.90577220916748,0.56129324436188,0.01312824990600,0.58613377809525,-0.45417070388794,0.01313931401819
446,3820911001,0.607384,0.393373,-0.588130,0.361173,9.87891769409180,0.54305690526962,0.00156105682254,1.61687862873077,-0.49891617894173,-0.29625570774078
447,3820927668,0.607325,0.393484,-0.588132,0.361147,9.85378932952881,0.53198003768921,-0.02138153277338,1.60641562938690,-0.66258126497269,-0.06333379447460
448,3820944335,0.607279,0.393556,-0.588171,0.361082,9.86547660827637,0.53764855861664,-0.03107299655676,1.07201945781708,-0.77026987075806,-0.00164561590645
449,3820961002,0.607262,0.393605,-0.588228,0.360966,9.85796642303467,0.53800475597382,-0.00617368705571,0.66489285230637,-0.81301754713058,-0.13980051875114
450,3820977669,0.607235,0.393626,-0.588323,0.360833,9.89524269104004,0.54226201772690,-0.00804394111037,0.39116996526718,-0.98341876268387,0.02641949802637
451,3820994336,0.607215,0.393667,-0.588370,0.360746,9.92189884185791,0.55113661289215,0.01160421315581,0.80512237548828,-0.68396782875061,-0.00701147597283
452,3821011003,0.607215,0.393699,-0.588392,0.360674,9.92302894592285,0.53518646955490,-0.01750563085079,0.81278055906296,-0.43487161397934,-0.02661799639463
453,3821027670,0.607185,0.393813,-0.588359,0.360654,9.91423511505127,0.52944374084473,-0.05807837098837,1.60790121555328,-0.38773146271706,-0.22037808597088
454,3821044337,0.607174,0.393895,-0.588311,0.360660,9.89696884155273,0.55681204795837,-0.08293703198433,1.65027749538422,-0.09619490057230,-0.06213000416756
455,3821061004,0.607172,0.393894,-0.588388,0.360539,9.91526412963867,0.52470153570175,-0.00792848132551,0.40021124482155,-0.71796882152557,0.05764137953520
456,3821077671,0.607203,0.393927,-0.588376,0.360472,9.92580223083496,0.54422724246979,-0.03708169236779,0.77726852893829,-0.15906125307083,-0.18402084708214
457,3821094338,0.607194,0.394029,-0.588350,0.360418,9.88931465148926,0.57351672649384,-0.05899045988917,1.20149171352386,-0.40528896450996,-0.33895203471184
458,3821111005,0.607178,0.394123,-0.588341,0.360357,9.90910434722900,0.55540746450424,-0.01119562424719,1.20477020740509,-0.49355033040047,-0.28008127212524
459,3821127672,0.607214,0.394138,-0.588346,0.360271,9.92869949340820,0.58348327875137,-0.02695745043457,0.70874190330505,-0.21192589402199,-0.14812465012074
460,3821144339,0.607298,0.394107,-0.588353,0.360152,9.95412254333496,0.56443637609482,-0.01003483776003,0.26675623655319,0.00407241890207,-0.21462801098824
461,3821161006,0.607422,0.394070,-0.588314,0.360048,9.93642044067383,0.57992136478424,-0.02717559970915,0.27492669224739,0.40703698992729,-0.35472947359085
462,3821177673,0.607565,0.394070,-0.588211,0.359973,9.92236614227295,0.54741561412811,-0.00359381502494,0.58316272497177,0.73362451791763,-0.60631024837494
463,3821194340,0.607713,0.394079,-0.588076,0.359936,9.93230628967285,0.53910917043686,-0.00327454996295,0.88929849863052,0.97695791721344,-0.57665067911148
464,3821211007,0.607879,0.394052,-0.587927,0.359929,9.90060424804688,0.53789925575256,-0.00304178940132,0.86355787515640,1.27492332458496,-0.38848701119423
465,3821227674,0.608052,0.394061,-0.587763,0.359893,9.87600612640381,0.54070395231247,-0.03994872048497,0.97594618797302,1.20402741432190,-0.71338409185410
466,3821244341,0.608221,0.394011,-0.587635,0.359871,9.89538955688477,0.55959731340408,-0.04979707300663,0.68210458755493,1.21669280529022,-0.31719407439232
467,3821261008,0.608382,0.393987,-0.587506,0.359837,9.87808036804199,0.56289100646973,-0.04563486576080,0.64321172237396,1.08664441108704,-0.44626924395561
468,3821277675,0.608536,0.393944,-0.587423,0.359759,9.87931632995605,0.55165004730225,-0.03199775889516,0.33411765098572,0.79264897108078,-0.41433021426201
469,3821294342,0.608674,0.393892,-0.587349,0.359703,9.84911251068115,0.52006685733795,-0.02957639656961,0.53399914503098,0.78344124555588,-0.22584636509418
470,3821311009,0.608776,0.393857,-0.587273,0.359692,9.88261795043945,0.53912806510925,-0.05554806068540,0.87193310260773,0.72604316473007,-0.01890857517719
471,3821327676,0.608856,0.393838,-0.587184,0.359723,9.89412498474121,0.53727734088898,-0.01110305171460,1.07857632637024,0.75607407093048,0.11092860996723
472,3821344343,0.608951,0.393754,-0.587130,0.359743,9.87713813781738,0.53161340951920,-0.01799067668617,0.72225254774094,0.81193536520004,0.38434416055679
473,3821361010,0.609061,0.393655,-0.587091,0.359729,9.86153697967529,0.53837448358536,-0.02192527614534,0.48381108045578,0.75676560401917,0.30979838967323
474,3821377677,0.609151,0.393581,-0.587058,0.359712,9.88798809051514,0.56389325857162,0.01462687551975,0.51248455047607,0.56747502088547,0.25204178690910
475,3821394344,0.609251,0.393516,-0.586996,0.359715,9.90314197540283,0.57366746664047,0.00492998212576,0.53264164924622,0.75848156213760,0.20793668925762
476,3821411011,0.609347,0.393458,-0.586939,0.359707,9.91316127777100,0.57511079311371,0.04808191210032,0.71057307720184,0.68467867374420,0.14927081763744
477,3821427678,0.609472,0.393375,-0.586858,0.359719,9.92504596710205,0.58740282058716,0.00385871203616,0.67728948593140,1.02010262012482,0.20017604529858
478,3821444345,0.609594,0.393260,-0.586819,0.359703,9.89404010772705,0.53979635238647,0.03795448690653,0.37539252638817,0.83498680591583,0.32862371206284
479,3821461012,0.609703,0.393115,-0.586803,0.359701,9.91897583007812,0.57337427139282,0.04972406476736,0.23440742492676,0.79451870918274,0.60837841033936
480,3821477679,0.609828,0.392985,-0.586764,0.359695,9.92291641235352,0.58513146638870,0.08518989384174,0.33849743008614,0.91299021244049,0.42651546001434
481,3821494346,0.609974,0.392866,-0.586687,0.359703,9.94196605682373,0.58957213163376,0.08385867625475,0.37208852171898,1.15902590751648,0.28701591491699
482,3821511013,0.610153,0.392763,-0.586584,0.359679,9.92279815673828,0.59149026870728,0.09478401392698,0.30299821496010,1.27834260463715,-0.06713728606701
483,3821527680,0.610163,0.392813,-0.586454,0.359821,9.92358589172363,0.56355297565460,-0.09557834267616,2.21009421348572,0.77762717008591,0.36143359541893
484,3821544347,0.610224,0.392848,-0.586394,0.359776,9.88618850708008,0.63877701759338,0.21739435195923,1.04903209209442,0.23050148785114,-0.30107086896896
485,3821561014,0.610488,0.392711,-0.586249,0.359716,9.96231269836426,0.50337672233582,0.06595665216446,-0.06077253073454,1.78282308578491,-0.39886012673378
486,3821577681,0.610733,0.392448,-0.586237,0.359605,9.80760669708252,0.59758347272873,-0.10172440111637,-1.15889155864716,1.32162833213806,0.29873371124268
487,3821594348,0.610879,0.392344,-0.586186,0.359555,9.85163974761963,0.55802625417709,0.04072920233011,0.11647376418114,0.85231387615204,0.04980389773846
488,3821611015,0.610882,0.392247,-0.586246,0.359556,9.88805866241455,0.58717334270477,0.05275573581457,0.61100369691849,-0.05739165097475,0.89402395486832
489,3821627682,0.610790,0.392394,-0.586109,0.359777,9.97412681579590,0.57843059301376,0.12017685920000,3.12366080284119,0.36600545048714,0.53855824470520
490,3821644349,0.610706,0.392743,-0.585780,0.360074,9.94056034088135,0.56492948532104,0.10823654383421,4.88062763214111,0.92303037643433,-0.49617558717728
491,3821661016,0.610613,0.393139,-0.585432,0.360363,9.94197845458984,0.61102235317230,0.14723074436188,4.88480281829834,0.81001448631287,-0.75395464897156
492,3821677683,0.610601,0.393459,-0.585085,0.360599,9.93847370147705,0.57391482591629,0.07453202456236,4.26500177383423,1.19100344181061,-0.86577987670898
493,3821694350,0.610667,0.393588,-0.584833,0.360754,9.91931343078613,0.52102553844452,0.02468927018344,2.71329450607300,1.35452783107758,-0.36685711145401
494,3821711017,0.610747,0.393584,-0.584665,0.360898,9.89902877807617,0.57940608263016,0.01657543145120,1.92866182327271,1.36852490901947,0.30646878480911
495,3821727684,0.610767,0.393640,-0.584459,0.361135,9.86854648590088,0.59636485576630,0.03826425597072,2.64466524124146,1.37373733520508,0.50530022382736
496,3821744351,0.610763,0.393712,-0.584263,0.361381,9.84935188293457,0.57618904113770,0.02510480210185,2.92926049232483,1.22821855545044,0.56771832704544
497,3821761018,0.610783,0.393750,-0.584105,0.361560,9.85629081726074,0.57815456390381,0.02647568099201,2.28000426292419,1.06982970237732,0.45858258008957
498,3821777685,0.610842,0.393742,-0.584007,0.361628,9.87861061096191,0.61810833215714,0.06554227322340,1.51568281650543,0.79299485683441,0.25291264057159
499,3821794352,0.610902,0.393711,-0.583925,0.361693,9.91143608093262,0.60805535316467,0.08848599344492,1.25534236431122,0.77075016498566,0.36623597145081
500,3821811019,0.610994,0.393616,-0.583863,0.361742,9.92906093597412,0.61553227901459,0.08417985588312,0.87517315149307,0.93967878818512,0.53105372190475
501,3821827686,0.611134,0.393468,-0.583774,0.361809,9.94681930541992,0.59597241878510,0.07178065180779,0.71312165260315,1.42182517051697,0.63135313987732
502,3821844353,0.611269,0.393333,-0.583669,0.361897,9.86315822601318,0.61421954631805,0.09056685864925,0.80355989933014,1.49484670162201,0.63235187530518
503,3821861020,0.611414,0.393212,-0.583551,0.361975,9.82699012756348,0.57049930095673,0.00620432291180,0.81992661952972,1.52386617660522,0.47745910286903
504,3821877687,0.611495,0.393045,-0.583587,0.361961,9.86614322662354,0.55524116754532,0.12301696836948,-0.05202579498291,0.48638513684273,0.84583377838135
505,3821894354,0.611578,0.392982,-0.583488,0.362048,9.88661956787109,0.58712083101273,0.05964704975486,1.29104650020599,1.08040773868561,0.49041917920113
506,3821911021,0.611590,0.392895,-0.583532,0.362051,9.87609863281250,0.61817044019699,0.08727974444628,0.69232398271561,0.02702139504254,0.79276424646378
507,3821927688,0.611682,0.392692,-0.583551,0.362086,9.84647464752197,0.57212352752686,0.14114844799042,0.18337413668633,0.83275848627090,1.12877738475800
508,3821944355,0.611770,0.392484,-0.583624,0.362045,9.90136528015137,0.60212957859039,0.12471789121628,-0.37118563055992,0.39009419083595,0.98304098844528
509,3821961022,0.611886,0.392253,-0.583686,0.362000,9.91963005065918,0.60181224346161,0.10578510165215,-0.42492106556892,0.59440672397614,0.95955419540405
510,3821977689,0.612010,0.392121,-0.583656,0.361981,9.91658496856689,0.59936547279358,0.12846152484417,0.30666086077690,0.84255546331406,0.39899462461472
511,3821994356,0.612136,0.392028,-0.583573,0.362002,9.90842533111572,0.57957428693771,0.15850807726383,0.62642264366150,1.07911431789398,0.27117446064949
512,3822011023,0.612256,0.391912,-0.583508,0.362029,9.89700603485107,0.55483990907669,0.14006024599075,0.46576699614525,1.04607391357422,0.44393214583397
513,3822027690,0.612375,0.391763,-0.583491,0.362017,9.89310073852539,0.57273346185684,0.12719754874706,0.16244852542877,0.81988805532455,0.54446190595627
514,3822044357,0.612496,0.391584,-0.583508,0.361979,9.88097667694092,0.58028918504715,0.10096395760775,-0.15544986724854,0.69101774692535,0.64964050054550
515,3822061024,0.612602,0.391409,-0.583520,0.361970,9.89679908752441,0.56475901603699,0.11501175910234,0.02598408050835,0.72720855474472,0.77274793386459
516,3822077691,0.612672,0.391324,-0.583512,0.361958,9.87494945526123,0.57537955045700,0.12250655889511,0.49308288097382,0.42395418882370,0.43640196323395
517,3822094358,0.612737,0.391267,-0.583488,0.361946,9.89655113220215,0.55735409259796,0.11193590611219,0.68029886484146,0.40605092048645,0.29741463065147
518,3822111025,0.612803,0.391225,-0.583454,0.361937,9.90661430358887,0.54319965839386,0.13326546549797,0.75236022472382,0.42218691110611,0.21536438167095
519,3822127692,0.612869,0.391180,-0.583420,0.361928,9.89892768859863,0.56806266307831,0.14994321763515,0.61905890703201,0.41916459798813,0.22450810670853
520,3822144359,0.612967,0.391066,-0.583406,0.361908,9.92294025421143,0.56038480997086,0.15536855161190,0.35209777951241,0.62185066938400,0.43423768877983
521,3822161026,0.613111,0.390937,-0.583357,0.361881,9.89463043212891,0.55539184808731,0.13120380043983,0.29257383942604,0.97095173597336,0.25485914945602
522,3822177693,0.613265,0.390806,-0.583303,0.361850,9.88141536712646,0.55877512693405,0.08298193663359,0.18380951881409,1.03087270259857,0.21350744366646
523,3822194360,0.613371,0.390718,-0.583255,0.361840,9.86364841461182,0.54807704687119,0.09035635739565,0.51362425088882,0.75221937894821,0.25542265176773
524,3822211027,0.613427,0.390657,-0.583226,0.361859,9.86529254913330,0.57033514976501,0.09466614574194,0.88466262817383,0.49009901285172,0.45312702655792
525,3822227694,0.613445,0.390653,-0.583183,0.361902,9.89854335784912,0.57592421770096,0.08491120487452,1.30385291576385,0.30933737754822,0.37561026215553
526,3822244361,0.613476,0.390682,-0.583108,0.361940,9.87318420410156,0.58002698421478,0.09219709038734,1.38628745079041,0.40258044004440,0.10709951072931
527,3822261028,0.613527,0.390667,-0.583047,0.361968,9.85526657104492,0.57439261674881,0.12776379287243,1.20004463195801,0.51124227046967,0.23006606101990
528,3822277695,0.613438,0.390750,-0.582997,0.362109,9.90514945983887,0.56768506765366,0.05676575377584,2.36373209953308,-0.03756742924452,0.69128674268723
529,3822294362,0.613357,0.390898,-0.582968,0.362132,9.80841350555420,0.56762599945068,0.14495766162872,2.16839671134949,-0.57036286592484,-0.02794986031950
530,3822311029,0.613430,0.390828,-0.582954,0.362108,9.92669677734375,0.55397951602936,0.10113871842623,0.66812014579773,0.40680652856827,0.30060344934464
531,3822327696,0.613557,0.390502,-0.583212,0.361828,9.81103706359863,0.53359425067902,0.07735319435596,-2.34509253501892,-0.58023655414581,0.84706324338913
532,3822344363,0.613540,0.390371,-0.583348,0.361780,9.87261009216309,0.57568734884262,0.06944020092487,0.13184136152267,-0.50478148460388,1.06940710544586
533,3822361030,0.613398,0.390308,-0.583590,0.361697,9.89517688751221,0.60152560472488,0.12214691191912,0.26621842384338,-1.71672332286835,1.24977159500122
534,3822377697,0.613227,0.390386,-0.583692,0.361739,9.96445369720459,0.55595749616623,0.15543568134308,1.79155719280243,-1.26248204708099,0.90055531263351
535,3822394364,0.613029,0.390578,-0.583709,0.361840,9.92968368530273,0.57134962081909,0.15407499670982,2.83295702934265,-1.13322758674622,0.54058170318604
536,3822411031,0.612860,0.390778,-0.583749,0.361846,9.92665481567383,0.58459359407425,0.15629482269287,2.38680934906006,-1.39000773429871,0.09004144370556
537,3822427698,0.612777,0.390815,-0.583850,0.361784,9.93125915527344,0.58746987581253,0.17805434763432,0.96623903512955,-1.07649528980255,0.40665280818939
538,3822444365,0.612748,0.390785,-0.583948,0.361706,9.90059375762939,0.56332236528397,0.11109281331301,0.43247041106224,-0.73637151718140,0.46940389275551
539,3822461032,0.612694,0.390790,-0.584044,0.361637,9.88903713226318,0.55781745910645,0.11159558594227,0.75670158863068,-0.87998199462891,0.42623370885849
540,3822477699,0.612582,0.390856,-0.584128,0.361621,9.85686588287354,0.55430877208710,0.09661377221346,1.30173981189728,-1.07698214054108,0.50921893119812
541,3822494366,0.612415,0.390942,-0.584223,0.361656,9.86894130706787,0.55232673883438,0.09622945636511,1.66773259639740,-1.26380109786987,0.81506019830704
542,3822511033,0.612274,0.391002,-0.584325,0.361665,9.87632942199707,0.56233960390091,0.07627865672112,1.45177888870239,-1.18765449523926,0.76051783561707
543,3822527700,0.612176,0.391013,-0.584456,0.361608,9.90549468994141,0.56010603904724,0.09671655297279,0.89595788717270,-1.18776977062225,0.65291893482208
544,3822544367,0.612090,0.391050,-0.584561,0.361546,9.91505050659180,0.58789741992950,0.11494424939156,0.91352820396423,-1.10902345180511,0.42965301871300
545,3822561034,0.612008,0.391110,-0.584623,0.361517,9.92374229431152,0.56655192375183,0.11859050393105,1.26371788978577,-0.88424646854401,0.34806376695633
546,3822577701,0.611874,0.391267,-0.584622,0.361576,9.91939449310303,0.54697054624557,0.03660225123167,2.30375981330872,-0.83042138814926,0.28631156682968
547,3822594368,0.611859,0.391271,-0.584673,0.361515,9.88974475860596,0.62111544609070,0.22180451452732,0.74303716421127,-0.51576930284500,0.24098989367485
548,3822611035,0.611845,0.391186,-0.584808,0.361412,9.90769958496094,0.54365319013596,0.07059887796640,0.05709070339799,-0.75108599662781,0.64964044094086
549,3822627702,0.611759,0.391175,-0.584932,0.361368,9.89539718627930,0.52572751045227,0.09233786910772,0.82282084226608,-1.02001941204071,0.75314146280289
550,3822644369,0.611671,0.391205,-0.585031,0.361327,9.88110256195068,0.54946857690811,0.13462173938751,0.99160850048065,-1.01927661895752,0.53365343809128
551,3822661036,0.611529,0.391275,-0.585146,0.361302,9.88982868194580,0.55877619981766,0.07762967050076,1.44552958011627,-1.35673666000366,0.61369305849075
552,3822677703,0.611395,0.391332,-0.585265,0.361277,9.91492843627930,0.58925676345825,0.12942250072956,1.34816277027130,-1.30809795856476,0.65851527452469
553,3822694370,0.611310,0.391340,-0.585377,0.361230,9.91193008422852,0.57829135656357,0.08564407378435,0.86871868371964,-1.02272152900696,0.62716537714005
554,3822711037,0.611270,0.391320,-0.585480,0.361153,9.90421772003174,0.56702029705048,0.09753476083279,0.51386761665344,-0.82011222839355,0.47505155205727
555,3822727704,0.611243,0.391326,-0.585561,0.361061,9.90078544616699,0.56064820289612,0.10222674906254,0.52201241254807,-0.77915745973587,0.21832263469696
556,3822744371,0.611225,0.391336,-0.585603,0.361012,9.88983631134033,0.55319422483444,0.10489188879728,0.82292312383652,-0.47523719072342,0.24615082144737
557,3822761038,0.611180,0.391330,-0.585666,0.360992,9.88583946228027,0.53104716539383,0.08613093942404,0.99612921476364,-0.54682475328445,0.56887090206146
558,3822777705,0.611102,0.391339,-0.585736,0.361001,9.88009834289551,0.53874599933624,0.06096766144037,1.22643864154816,-0.66323447227478,0.72460895776749
559,3822794372,0.611020,0.391350,-0.585825,0.360983,9.88651466369629,0.54442608356476,0.06876325607300,1.00797498226166,-0.84773558378220,0.66170406341553
560,3822811039,0.610963,0.391320,-0.585958,0.360896,9.90072154998779,0.55536073446274,0.08265797793865,0.48702546954155,-1.01400041580200,0.59900420904160
561,3822827706,0.610923,0.391278,-0.586077,0.360816,9.90847301483154,0.55541157722473,0.07936695218086,0.38776350021362,-0.83833569288254,0.59640455245972
562,3822844373,0.610835,0.391318,-0.586153,0.360798,9.90169048309326,0.54518759250641,0.03672801703215,1.12753498554230,-0.88799864053726,0.52344667911530
563,3822861040,0.610716,0.391422,-0.586206,0.360801,9.91284751892090,0.56281679868698,0.05923081189394,1.61015510559082,-1.02420699596405,0.37581512331963
564,3822877707,0.610614,0.391499,-0.586256,0.360809,9.91785526275635,0.54538172483444,0.09163351356983,1.58561813831329,-0.85468930006027,0.44540482759476
565,3822894374,0.610552,0.391526,-0.586317,0.360786,9.92080783843994,0.56855142116547,0.09052646160126,1.13210690021515,-0.69984781742096,0.45743000507355
566,3822911041,0.610530,0.391510,-0.586374,0.360746,9.90989685058594,0.54154276847839,0.06864465773106,0.82145053148270,-0.45362007617950,0.44614759087563
567,3822927708,0.610505,0.391524,-0.586418,0.360702,9.88958930969238,0.54642164707184,0.05632220953703,0.85570746660233,-0.51109498739243,0.28184214234352
568,3822944375,0.610489,0.391542,-0.586444,0.360668,9.88450717926025,0.54689341783524,0.03564512729645,0.93248164653778,-0.37560388445854,0.23792919516563
569,3822961042,0.610449,0.391574,-0.586481,0.360641,9.89007854461670,0.53577589988708,0.00991761311889,1.14969015121460,-0.53447943925858,0.29101151227951
570,3822977709,0.610379,0.391593,-0.586541,0.360642,9.91663646697998,0.52307349443436,0.06744221597910,1.19777786731720,-0.64524149894714,0.60849374532700
571,3822994376,0.610311,0.391612,-0.586578,0.360676,9.92982769012451,0.56503236293793,0.09530889242887,1.41352653503418,-0.44283720850945,0.67965871095657
572,3823011043,0.610284,0.391669,-0.586568,0.360677,9.92301750183105,0.54141426086426,0.06405963003635,1.46626317501068,-0.27033567428589,0.15475192666054
573,3823027710,0.610325,0.391631,-0.586595,0.360603,9.90896606445312,0.55970150232315,0.10815881192684,0.44502064585686,-0.12082149833441,0.15619903802872
574,3823044377,0.610249,0.391671,-0.586639,0.360618,9.90080451965332,0.53317064046860,-0.05709099024534,1.33170676231384,-0.61970567703247,0.54886740446091
575,3823061044,0.610063,0.391867,-0.586660,0.360684,9.84396743774414,0.62680011987686,0.08083739131689,2.64027237892151,-1.20428991317749,0.34623247385025
576,3823077711,0.610092,0.391883,-0.586670,0.360602,10.00725841522217,0.51602524518967,0.20094709098339,0.65526247024536,-0.25327757000923,-0.11256141215563
577,3823094378,0.610253,0.391647,-0.586775,0.360414,9.82315635681152,0.50761270523071,-0.04679163917899,-1.27458405494690,0.22545579075813,0.38662374019623
578,3823111045,0.610311,0.391595,-0.586806,0.360323,9.88030242919922,0.54624748229980,-0.03481407463551,0.24338468909264,-0.07996925711632,0.11270868778229
579,3823127712,0.610225,0.391571,-0.586953,0.360256,9.87324905395508,0.52049243450165,0.00872663315386,0.61814975738525,-1.14664852619171,0.76451355218887
580,3823144379,0.610069,0.391589,-0.587071,0.360308,9.92313957214355,0.54320281744003,0.10844078660011,1.55775165557861,-1.08812344074249,1.18923604488373
581,3823161046,0.609933,0.391687,-0.587116,0.360358,9.91468143463135,0.54307281970978,0.07865086942911,1.98949217796326,-0.91339361667633,0.61652332544327
582,3823177713,0.609785,0.391826,-0.587167,0.360373,9.92876815795898,0.56641972064972,0.07800874859095,2.01464390754700,-1.17463052272797,0.34945970773697
583,3823194380,0.609719,0.391915,-0.587196,0.360342,9.93648815155029,0.56067597866058,0.07672865688801,1.36855065822601,-0.75969189405441,0.08963165432215
584,3823211047,0.609726,0.391887,-0.587237,0.360293,9.92496585845947,0.54689866304398,0.05317820236087,0.62445038557053,-0.27460014820099,0.34523355960846
585,3823227714,0.609725,0.391917,-0.587243,0.360252,9.91404914855957,0.56022238731384,0.03568449616432,0.97958326339722,-0.28204062581062,0.06476170569658
586,3823244381,0.609710,0.392028,-0.587146,0.360315,9.87817382812500,0.55982291698456,0.02213557809591,1.93279802799225,0.16426703333855,-0.06880211085081
587,3823261048,0.609669,0.392145,-0.587069,0.360383,9.85917091369629,0.52176648378372,-0.00737190898508,2.16901183128357,-0.01123757287860,0.05007283017039
588,3823277715,0.609635,0.392214,-0.587048,0.360400,9.84208393096924,0.54840618371964,-0.00231493311003,1.57737076282501,-0.24116274714470,0.16039952635765
589,3823294382,0.609609,0.392249,-0.587081,0.360353,9.88200092315674,0.54257267713547,0.00004122388782,0.97238606214523,-0.52418309450150,0.15961833298206
590,3823311049,0.609597,0.392236,-0.587146,0.360282,9.91978645324707,0.56816840171814,0.04263087362051,0.65504479408264,-0.54061365127563,0.30228108167648
591,3823327716,0.609598,0.392223,-0.587186,0.360229,9.94308376312256,0.56911623477936,0.04279605671763,0.83471798896790,-0.33271542191505,0.27753922343254
592,3823344383,0.609625,0.392240,-0.587146,0.360228,9.93239974975586,0.57238870859146,0.04759398102760,1.22506809234619,0.16650815308094,0.09317898750305
593,3823361050,0.609607,0.392372,-0.587030,0.360304,9.86555671691895,0.52406001091003,-0.02194502949715,2.23666739463806,0.23014293611050,-0.14355278015137
594,3823377717,0.609577,0.392478,-0.586935,0.360394,9.87256908416748,0.57562303543091,-0.01093154214323,2.15880489349365,0.18766425549984,0.11388688534498
595,3823394384,0.609563,0.392490,-0.586979,0.360333,9.89511203765869,0.51845288276672,0.08370895683765,0.83806025981903,-0.50288611650467,0.18935468792915
596,3823411051,0.609576,0.392479,-0.586975,0.360331,9.91099262237549,0.55539655685425,0.06363522261381,1.00459408760071,0.03081207722425,0.33634597063065
597,3823427718,0.609546,0.392562,-0.586932,0.360359,9.89334201812744,0.56641393899918,0.03682833537459,1.76869761943817,-0.13471639156342,0.08173012733459
598,3823444385,0.609522,0.392647,-0.586877,0.360398,9.90178489685059,0.55975073575974,0.03775015100837,1.87922906875610,-0.03110021539032,0.06791206449270
599,3823461052,0.609506,0.392659,-0.586875,0.360415,9.90028285980225,0.58577871322632,0.04860706627369,1.24705684185028,-0.10651682317257,0.40287497639656
600,3823477719,0.609530,0.392632,-0.586871,0.360410,9.90922927856445,0.54932582378387,0.03164731711149,0.94462192058563,0.10223308205605,0.35750204324722
601,3823494386,0.609568,0.392621,-0.586849,0.360395,9.91423511505127,0.57507115602493,0.03789634630084,0.99387514591217,0.17168191075325,0.17584398388863
602,3823511053,0.609605,0.392632,-0.586797,0.360405,9.89697265625000,0.54927211999893,0.06864792853594,1.18705904483795,0.30242195725441,0.10505048185587
603,3823527720,0.609637,0.392628,-0.586751,0.360428,9.87299156188965,0.53770655393600,0.03618747740984,1.17975926399231,0.32946893572807,0.25132459402084
604,3823544387,0.609661,0.392605,-0.586734,0.360442,9.88083553314209,0.53278434276581,0.03927256911993,1.03805708885193,0.19584749639034,0.38543269038200
605,3823561054,0.609683,0.392564,-0.586739,0.360440,9.88545131683350,0.55174297094345,0.02109490893781,0.87888693809509,0.09764840453863,0.46077245473862
606,3823577721,0.609696,0.392565,-0.586717,0.360453,9.88907337188721,0.56526899337769,0.02261581458151,1.09699189662933,0.11096703261137,0.29756832122803
607,3823594388,0.609716,0.392554,-0.586700,0.360459,9.89607810974121,0.55289626121521,0.01963885687292,1.03803145885468,0.13287867605686,0.31591984629631
608,3823611055,0.609748,0.392531,-0.586689,0.360448,9.89714813232422,0.55286949872971,0.02244058251381,0.85956215858459,0.13039425015450,0.28075358271599
609,3823627722,0.609757,0.392521,-0.586692,0.360438,9.87545108795166,0.55587208271027,0.02658287249506,1.00309574604034,-0.03944996744394,0.32502520084381
610,3823644389,0.609738,0.392564,-0.586672,0.360456,9.91456222534180,0.54491335153580,0.04541356489062,1.39650690555573,-0.12299859523773,0.23459953069687
611,3823661056,0.609725,0.392588,-0.586656,0.360479,9.90919303894043,0.55234485864639,0.04141968116164,1.34000515937805,-0.04285644739866,0.33186376094818
612,3823677723,0.609736,0.392591,-0.586623,0.360511,9.88899898529053,0.56163918972015,0.06471131742001,1.25061678886414,0.19254346191883,0.34930598735809
613,3823694390,0.609751,0.392617,-0.586585,0.360519,9.91691112518311,0.55192238092422,0.03564039617777,1.15782201290131,0.10288620740175,0.12747439742088
614,3823711057,0.609783,0.392627,-0.586556,0.360501,9.90948295593262,0.57580423355103,0.05531572923064,1.05224645137787,0.11407895386219,0.06778400391340
615,3823727724,0.609821,0.392619,-0.586531,0.360486,9.89491748809814,0.55600887537003,0.00065253017237,0.97248852252960,0.17333394289017,0.14704248309135
616,3823744391,0.609840,0.392625,-0.586508,0.360486,9.88892173767090,0.55140644311905,-0.00107677455526,1.12928950786591,0.09321741014719,0.20966555178165
617,3823761058,0.609824,0.392630,-0.586504,0.360514,9.90394592285156,0.54966813325882,0.04493503272533,1.24753069877625,-0.05009203776717,0.47219568490982
618,3823777725,0.609809,0.392676,-0.586468,0.360547,9.91518497467041,0.56375044584274,0.03908427059650,1.43849873542786,-0.00794633943588,0.23135951161385
619,3823794392,0.609813,0.392701,-0.586430,0.360574,9.92076778411865,0.56249964237213,0.03009458072484,1.35651242733002,0.11799769848585,0.23798039555550
620,3823811059,0.609901,0.392665,-0.586375,0.360553,9.91560745239258,0.57535159587860,0.05873802676797,0.74598264694214,0.55419480800629,0.03307880088687
621,3823827726,0.609805,0.392780,-0.586319,0.360682,9.90024852752686,0.51740068197250,-0.14337021112442,2.51836848258972,-0.15547548234463,0.50626063346863
622,3823844393,0.609729,0.392889,-0.586363,0.360622,9.86566925048828,0.61495137214661,0.24468021094799,1.40685439109802,-0.98660761117935,-0.04167826473713
623,3823861060,0.609850,0.392801,-0.586344,0.360543,9.94133377075195,0.47995918989182,0.03467132896185,0.06946163624525,0.50472384691238,0.01712208800018
624,3823877727,0.609933,0.392550,-0.586519,0.360390,9.83779811859131,0.56092536449432,-0.08430253714323,-1.27208673954010,-0.25564676523209,0.97638171911240
625,3823894394,0.609970,0.392475,-0.586563,0.360339,9.86755371093750,0.56334918737411,0.00823600497097,0.37053892016411,-0.05412603542209,0.45238429307938
626,3823911061,0.609874,0.392380,-0.586732,0.360330,9.90359210968018,0.54805070161819,0.04300032183528,0.47734388709068,-0.94829112291336,1.37966656684875
627,3823927728,0.609752,0.392402,-0.586800,0.360402,9.93508338928223,0.56123703718185,0.06551703810692,1.60956597328186,-0.70330548286438,1.03945302963257
628,3823944395,0.609649,0.392524,-0.586809,0.360428,9.88895797729492,0.53926891088486,0.02014632150531,2.01637268066406,-0.74879378080368,0.24268035590649
629,3823961062,0.609525,0.392665,-0.586842,0.360430,9.92130947113037,0.57260996103287,0.05733095109463,1.97977221012115,-1.04490208625793,0.17458897829056
630,3823977729,0.609467,0.392673,-0.586905,0.360418,9.92033386230469,0.55780839920044,0.07277251780033,1.13208127021790,-0.61364829540253,0.57185477018356
631,3823994396,0.609446,0.392607,-0.586973,0.360414,9.93479347229004,0.56362038850784,0.04029700532556,0.68466591835022,-0.28474277257919,0.82887816429138
632,3824011063,0.609447,0.392598,-0.586971,0.360426,9.90776252746582,0.56441766023636,0.01776223070920,1.19079840183258,0.01379244029522,0.42177715897560
633,3824027730,0.609400,0.392696,-0.586904,0.360507,9.87488746643066,0.55713766813278,0.00577144790441,2.10605549812317,-0.00040340001578,0.22028203308582
634,3824044397,0.609319,0.392800,-0.586880,0.360570,9.84040451049805,0.53906244039536,0.01052296254784,2.11858034133911,-0.37461778521538,0.31912145018578
635,3824061064,0.609252,0.392833,-0.586906,0.360604,9.85783386230469,0.55084180831909,0.00712474761531,1.47025871276855,-0.43255370855331,0.58936107158661
636,3824077731,0.609199,0.392833,-0.586976,0.360580,9.90993976593018,0.56751078367233,0.01092706713825,0.97246289253235,-0.63885116577148,0.55999600887299
637,3824094398,0.609172,0.392821,-0.587028,0.360553,9.91282176971436,0.55424493551254,0.04149889200926,0.90496069192886,-0.43506368994713,0.48496365547180
638,3824111065,0.609153,0.392823,-0.587047,0.360552,9.92842388153076,0.55957490205765,0.04574851691723,1.03270411491394,-0.23146839439869,0.42689970135689
639,3824127732,0.609163,0.392857,-0.586992,0.360589,9.93987655639648,0.52364766597748,-0.04067886620760,1.48542129993439,0.22320188581944,0.17991641163826
640,3824144399,0.609145,0.392934,-0.586925,0.360644,9.88626003265381,0.55443525314331,0.06470175087452,1.93287503719330,0.10683055967093,0.12910079956055
641,3824161066,0.609127,0.392964,-0.586903,0.360678,9.85340499877930,0.54896444082260,-0.01065313536674,1.46991288661957,-0.03121547959745,0.35125255584717
642,3824177733,0.609108,0.392904,-0.586987,0.360639,9.93175506591797,0.51094275712967,0.08643209934235,0.52950417995453,-0.45143020153046,0.68813639879227
643,3824194400,0.609117,0.392894,-0.586967,0.360667,9.87479305267334,0.55533337593079,0.00691544683650,1.20071053504944,0.15695463120937,0.42400547862053
644,3824211067,0.609062,0.392966,-0.586955,0.360701,9.90904808044434,0.54264903068542,0.03458724915981,1.65055930614471,-0.32206049561501,0.29950213432312
645,3824227734,0.609033,0.392988,-0.586949,0.360734,9.89506530761719,0.57852983474731,0.05632366985083,1.40269231796265,-0.12444571405649,0.44242098927498
646,3824244401,0.609028,0.392938,-0.586999,0.360718,9.89446353912354,0.55679231882095,0.05601876974106,0.81580287218094,-0.20608617365360,0.62788248062134
647,3824261068,0.609059,0.392844,-0.587046,0.360690,9.91804790496826,0.56490838527679,0.03130640089512,0.31499776244164,0.01334421522915,0.65258592367172
648,3824277735,0.609094,0.392780,-0.587067,0.360667,9.89704322814941,0.56599557399750,0.05316787958145,0.62717813253403,0.08718562126160,0.47444960474968
649,3824294402,0.609126,0.392746,-0.587058,0.360664,9.88855934143066,0.53944987058640,0.05130569264293,0.90183585882187,0.18432176113129,0.35952544212341
650,3824311069,0.609173,0.392711,-0.587030,0.360670,9.89394283294678,0.52156096696854,0.04352847114205,0.89910817146301,0.34321016073227,0.31296157836914
651,3824327736,0.609216,0.392647,-0.587046,0.360641,9.89076042175293,0.53916341066360,0.03756481409073,0.56662970781326,0.12032844126225,0.41705155372620
652,3824344403,0.609245,0.392584,-0.587073,0.360616,9.89100646972656,0.54529649019241,0.02323819510639,0.56091815233231,0.02270565927029,0.49038073420525
653,3824361070,0.609240,0.392567,-0.587104,0.360592,9.89025688171387,0.56305146217346,0.00006942014443,0.86171364784241,-0.23729524016380,0.40500080585480
654,3824377737,0.609230,0.392556,-0.587143,0.360557,9.90200138092041,0.55411612987518,0.02025263942778,0.76765102148056,-0.33334288001060,0.37012907862663
655,3824394404,0.609231,0.392556,-0.587164,0.360522,9.93438339233398,0.54672217369080,0.02301345020533,0.86649042367935,-0.24887216091156,0.25014638900757
656,3824411071,0.609230,0.392565,-0.587179,0.360490,9.91465759277344,0.54165464639664,0.00514985388145,1.02514839172363,-0.23780752718449,0.21017782390118
657,3824427738,0.609216,0.392606,-0.587164,0.360493,9.89696502685547,0.54816395044327,0.01632477343082,1.32778799533844,-0.15174885094166,0.18580733239651
658,3824444405,0.609197,0.392631,-0.587170,0.360487,9.89730548858643,0.54423415660858,0.03229014202952,1.24373984336853,-0.23942112922668,0.27698856592178
659,3824461072,0.609187,0.392642,-0.587179,0.360478,9.88948631286621,0.54002922773361,0.03732001036406,1.04527974128723,-0.20098924636841,0.30448377132416
660,3824477739,0.609181,0.392662,-0.587193,0.360443,9.90512180328369,0.55841588973999,0.01644723117352,0.98991811275482,-0.29756194353104,0.16678991913795
661,3824494406,0.609170,0.392687,-0.587206,0.360414,9.89283275604248,0.55576145648956,0.01816020533442,1.07999789714813,-0.30099406838417,0.18115863204002
662,3824511073,0.609158,0.392719,-0.587217,0.360381,9.89398479461670,0.54981333017349,0.01872609741986,1.18424153327942,-0.32345637679100,0.13400563597679
663,3824527740,0.609154,0.392727,-0.587228,0.360360,9.90593338012695,0.54749852418900,0.00681479694322,1.11089956760406,-0.19973422586918,0.26156967878342
664,3824544407,0.609174,0.392716,-0.587235,0.360329,9.90120887756348,0.56237703561783,0.03340159729123,0.88172996044159,-0.06747025251389,0.22596803307533
665,3824561074,0.609201,0.392704,-0.587233,0.360299,9.92175769805908,0.55679762363434,0.03191049769521,0.77282476425171,-0.00242680334486,0.19191594421864
666,3824577741,0.609242,0.392694,-0.587226,0.360252,9.90755367279053,0.56550210714340,0.00879383273423,0.77692282199860,0.02575356885791,0.05750051513314
667,3824594408,0.609278,0.392696,-0.587218,0.360201,9.88366031646729,0.53599476814270,-0.00354044511914,0.78990840911865,-0.02914084494114,0.01595671102405
668,3824611075,0.609327,0.392664,-0.587239,0.360120,9.89343070983887,0.52771586179733,0.01795971393585,0.52840274572372,-0.09354396909475,0.06561973690987
669,3824627742,0.609364,0.392606,-0.587287,0.360042,9.90998840332031,0.55770593881607,0.03593372926116,0.36409732699394,-0.17594005167484,0.28618350625038
670,3824644409,0.609418,0.392559,-0.587301,0.359980,9.90786457061768,0.56664288043976,0.01256299018860,0.46146395802498,0.04137731343508,0.17700935900211
671,3824661076,0.609493,0.392482,-0.587322,0.359900,9.90611267089844,0.56212991476059,0.04200293496251,0.17782896757126,0.12059739977121,0.18500053882599
672,3824677743,0.609604,0.392385,-0.587320,0.359822,9.88240528106689,0.55743414163589,0.05256666988134,0.07651793956757,0.42136731743813,0.12677004933357
673,3824694410,0.609491,0.392505,-0.587306,0.359905,9.88163757324219,0.53781515359879,-0.15136243402958,2.36378335952759,-0.52998441457748,0.44599390029907
674,3824711077,0.609480,0.392506,-0.587403,0.359765,9.93916702270508,0.59352034330368,0.27063292264938,0.28700307011604,-0.90066421031952,0.03669019043446
675,3824727744,0.609675,0.392348,-0.587398,0.359616,9.86000156402588,0.49406263232231,-0.11947797238827,-0.60855126380920,0.73655718564987,-0.13895529508591
676,3824744411,0.609805,0.392097,-0.587561,0.359403,9.87990856170654,0.55015337467194,-0.01513400580734,-1.58740460872650,-0.17454415559769,0.58130580186844
677,3824761078,0.609852,0.391979,-0.587644,0.359316,9.84175491333008,0.54568630456924,-0.02486524730921,-0.06937839090824,-0.16840988397598,0.56190419197083
678,3824777745,0.609720,0.391925,-0.587811,0.359325,9.90623950958252,0.56085562705994,0.05100438743830,0.86579871177673,-1.13695383071899,1.37129104137421
679,3824794412,0.609621,0.391995,-0.587830,0.359386,9.93084621429443,0.56730008125305,0.03178058564663,1.91695690155029,-0.54827183485031,0.61077320575714
680,3824811079,0.609499,0.392142,-0.587853,0.359395,9.89421272277832,0.54618537425995,0.02628191187978,2.08114719390869,-0.99038553237915,0.14824631810188
681,3824827746,0.609395,0.392287,-0.587854,0.359412,9.93906116485596,0.56618678569794,0.04610443487763,1.95675909519196,-0.81206983327866,0.08178135007620
682,3824844413,0.609384,0.392312,-0.587853,0.359404,9.92827320098877,0.54437828063965,0.02263409085572,1.21224904060364,-0.18804204463959,0.23243525624275
683,3824861080,0.609413,0.392289,-0.587853,0.359380,9.91817665100098,0.55460351705551,-0.01215205062181,0.81315195560455,0.04296530038118,0.26246613264084
684,3824877747,0.609404,0.392374,-0.587777,0.359426,9.89321041107178,0.55408585071564,-0.01367217209190,1.76018166542053,0.12855015695095,0.00932302325964
685,3824894414,0.609369,0.392505,-0.587676,0.359508,9.87757205963135,0.52741450071335,0.00302720628679,2.34235835075378,0.11895819008350,-0.03501896560192
686,3824911081,0.609338,0.392560,-0.587616,0.359599,9.87913227081299,0.54451107978821,-0.01057913992554,1.85968673229218,0.16028426587582,0.41491290926933
687,3824927748,0.609335,0.392536,-0.587635,0.359600,9.87981224060059,0.56903129816055,-0.01210950035602,0.91443735361099,-0.09264753758907,0.50011354684830
688,3824944415,0.609375,0.392479,-0.587656,0.359560,9.92262744903564,0.58114081621170,0.02119670063257,0.52330583333969,0.03996861726046,0.36025539040565
689,3824961082,0.609439,0.392437,-0.587640,0.359524,9.90857982635498,0.58001077175140,0.04232798889279,0.69156843423843,0.26723009347916,0.16153927147388
690,3824977749,0.609518,0.392417,-0.587567,0.359531,9.92737102508545,0.56270027160645,0.06931170821190,0.97054195404053,0.62803614139557,0.05496485158801
691,3824994416,0.609559,0.392508,-0.587410,0.359618,9.89624214172363,0.52655178308487,-0.03693204373121,2.10286664962769,0.76761263608932,-0.18272739648819
692,3825011083,0.609617,0.392551,-0.587272,0.359698,9.87063789367676,0.59433418512344,0.05380003899336,1.81047213077545,0.85912674665451,-0.01916470192373
693,3825027750,0.609657,0.392567,-0.587196,0.359736,9.85065937042236,0.52202928066254,-0.05335678532720,1.24760746955872,0.47036445140839,0.13358302414417
694,3825044417,0.609690,0.392493,-0.587225,0.359713,9.91293144226074,0.52055281400681,0.12099699676037,0.53939068317413,0.06915429234505,0.53744411468506
695,3825061084,0.609735,0.392540,-0.587093,0.359801,9.87172126770020,0.56122213602066,0.02534689195454,1.80417120456696,0.78747516870499,0.05641196668148
696,3825077751,0.609695,0.392639,-0.587016,0.359887,9.91211128234863,0.54682201147079,0.04630019515753,2.12972187995911,0.08184538036585,0.18571770191193
697,3825094418,0.609668,0.392708,-0.586946,0.359971,9.88560867309570,0.58965641260147,0.03769789636135,1.92615175247192,0.17429441213608,0.29756832122803
698,3825111085,0.609701,0.392682,-0.586922,0.359985,9.91210651397705,0.58725106716156,0.04871480911970,1.02502024173737,0.27003470063210,0.35879549384117
699,3825127752,0.609777,0.392600,-0.586891,0.359995,9.91182613372803,0.54753172397614,0.04949289187789,0.64185422658920,0.59754425287247,0.44366315007210
700,3825144419,0.609853,0.392571,-0.586833,0.359993,9.89357185363770,0.56374841928482,0.06092038005590,0.89580410718918,0.55180001258850,0.10483276844025
701,3825161086,0.609915,0.392550,-0.586760,0.360030,9.91170406341553,0.54034364223480,0.07039470970631,1.18375492095947,0.64333975315094,0.22543016076088
702,3825177753,0.609975,0.392492,-0.586711,0.360070,9.88276863098145,0.52102243900299,0.05803565680981,1.08828353881836,0.63783299922943,0.46104139089584
703,3825194420,0.610025,0.392418,-0.586682,0.360114,9.88653278350830,0.53875684738159,0.04400777816772,0.81187134981155,0.55641025304794,0.62302887439728
704,3825211087,0.610069,0.392333,-0.586669,0.360153,9.87709999084473,0.54499095678329,0.01125707570463,0.82449841499329,0.48218467831612,0.70263314247131
705,3825227754,0.610073,0.392297,-0.586659,0.360200,9.89050674438477,0.55463922023773,0.02418508008122,1.14037990570068,0.20604136586189,0.64301961660385
706,3825244421,0.610090,0.392269,-0.586642,0.360231,9.90938854217529,0.55886787176132,0.05650513991714,1.09274029731750,0.22785057127476,0.49496546387672
707,3825261088,0.610124,0.392245,-0.586604,0.360261,9.92191696166992,0.56603240966797,0.03814124315977,1.12499940395355,0.36979615688324,0.38233357667923
708,3825277755,0.610156,0.392249,-0.586538,0.360309,9.90730857849121,0.55200511217117,0.04232396557927,1.38846445083618,0.46270626783371,0.26333695650101
709,3825294422,0.610200,0.392240,-0.586466,0.360362,9.91432952880859,0.54183328151703,0.04657446593046,1.28355503082275,0.57856523990631,0.29951491951942
710,3825311089,0.610230,0.392202,-0.586429,0.360412,9.91015911102295,0.56440013647079,0.04468189552426,1.17799222469330,0.43674778938293,0.52497076988220
711,3825327756,0.610274,0.392150,-0.586404,0.360438,9.90687942504883,0.57544362545013,0.07249881327152,0.95860660076141,0.41566851735115,0.48009720444679
712,3825344423,0.610343,0.392125,-0.586332,0.360465,9.90429401397705,0.57452905178070,0.06472770124674,1.02284312248230,0.64932030439377,0.19212085008621
713,3825361090,0.610389,0.392140,-0.586254,0.360497,9.89918708801270,0.58307611942291,0.05610869452357,1.38650512695312,0.49718090891838,0.09010547399521
714,3825377757,0.610445,0.392151,-0.586169,0.360529,9.91249752044678,0.56968533992767,0.04043228924274,1.30544078350067,0.57319939136505,0.06362194567919
715,3825394424,0.610514,0.392129,-0.586092,0.360561,9.89234447479248,0.55714124441147,0.04701430723071,1.15821909904480,0.67872381210327,0.18336132168770
716,3825411091,0.610590,0.392108,-0.586011,0.360586,9.89823436737061,0.56625133752823,0.04889498651028,1.17123043537140,0.70080196857452,0.12665480375290
717,3825427758,0.610663,0.392091,-0.585935,0.360604,9.89498805999756,0.56503903865814,0.07285593450069,1.05895709991455,0.64043277502060,0.09606042504311
718,3825444425,0.610727,0.392095,-0.585850,0.360630,9.91261196136475,0.57204854488373,0.07096712291241,1.22408223152161,0.60323029756546,0.04630776122212
719,3825461092,0.610806,0.392089,-0.585747,0.360671,9.90658092498779,0.56732565164566,0.06656088680029,1.28574466705322,0.81333130598068,0.06399332731962
720,3825477759,0.610900,0.392071,-0.585639,0.360707,9.89453983306885,0.55553781986237,0.08758033066988,1.16887402534485,0.90839284658432,0.03987897560000
721,3825494426,0.610987,0.392081,-0.585516,0.360747,9.89577960968018,0.55267846584320,0.04929744452238,1.27243888378143,0.87836188077927,-0.08283787220716
722,3825511093,0.611087,0.392043,-0.585431,0.360757,9.86696147918701,0.53171634674072,0.06093002483249,0.98310500383377,0.81567484140396,0.06209798529744
723,3825527760,0.611177,0.391998,-0.585374,0.360745,9.88813591003418,0.55556821823120,0.03888083994389,0.94020384550095,0.62720382213593,0.09166785329580
724,3825544427,0.611235,0.391978,-0.585319,0.360760,9.88384819030762,0.57059836387634,0.08185885846615,1.11323046684265,0.49305728077888,0.19150614738464
725,3825561094,0.611281,0.392000,-0.585230,0.360802,9.91088676452637,0.55716139078140,0.07725442200899,1.48433291912079,0.54832953214645,0.07829802483320
726,3825577761,0.611363,0.391996,-0.585133,0.360823,9.89747142791748,0.54977738857269,0.10122872143984,1.19219422340393,0.74102663993835,-0.01869086734951
727,3825594428,0.611440,0.391965,-0.585050,0.360862,9.89844322204590,0.59698230028152,0.13590219616890,1.11072027683258,0.77574467658997,0.21162492036819
728,3825611095,0.611365,0.392170,-0.584873,0.361054,9.85740280151367,0.54199677705765,-0.11296740919352,3.31767702102661,0.38339650630951,0.03275864571333
729,3825627762,0.611353,0.392253,-0.584850,0.361020,9.91666698455811,0.53513973951340,0.25133505463600,1.37897503376007,-0.31615677475929,-0.17592723667622
730,3825644429,0.611576,0.392079,-0.584809,0.360898,9.78403377532959,0.58575594425201,-0.03942104429007,-0.57640743255615,1.10817193984985,-0.13422974944115
731,3825661096,0.611629,0.391860,-0.585007,0.360726,9.88982868194580,0.50024092197418,0.07577558606863,-1.24370777606964,-0.61022895574570,0.89982527494431
732,3825677763,0.611628,0.391674,-0.585192,0.360629,9.83697128295898,0.62627172470093,0.10895429551601,-0.50589561462402,-0.64703446626663,1.18045079708099
733,3825694430,0.611483,0.391710,-0.585269,0.360710,9.96948909759521,0.57618618011475,0.06630168855190,1.69717442989349,-0.84552013874054,1.10164082050323
734,3825711097,0.611352,0.391899,-0.585184,0.360866,9.92209148406982,0.56615871191025,0.03331232443452,3.04716873168945,-0.28796997666359,0.32549902796745
735,3825727764,0.611209,0.392150,-0.585109,0.360955,9.89230251312256,0.57254308462143,0.08890872448683,3.22280764579773,-0.69696640968323,-0.13625316321850
736,3825744431,0.611139,0.392281,-0.585091,0.360962,9.93286418914795,0.55067157745361,0.12975540757179,1.96864330768585,-0.57620245218277,-0.02818036638200
737,3825761098,0.611154,0.392291,-0.585081,0.360942,9.89337348937988,0.54971903562546,0.06520732492208,1.05129873752594,-0.03977011889219,0.14494225382805
738,3825777765,0.611171,0.392292,-0.585084,0.360907,9.84752178192139,0.56395900249481,0.05438921228051,0.95805579423904,-0.10829689353704,0.16020743548870
739,3825794432,0.611114,0.392354,-0.585085,0.360935,9.83346939086914,0.56765151023865,0.04795334115624,1.55818700790405,-0.37877982854843,0.35212337970734
740,3825811099,0.611003,0.392425,-0.585107,0.361010,9.83417606353760,0.54220730066299,0.04004730656743,1.94045650959015,-0.57840520143509,0.69661420583725
741,3825827766,0.610892,0.392453,-0.585174,0.361059,9.86070060729980,0.56301242113113,0.02774831280112,1.57999610900879,-0.72985303401947,0.89567601680756
742,3825844433,0.610823,0.392474,-0.585258,0.361015,9.90984630584717,0.57938700914383,0.05025163665414,1.02922058105469,-0.86360269784927,0.46585664153099
743,3825861100,0.610779,0.392464,-0.585350,0.360952,9.93046474456787,0.58874338865280,0.06625474244356,0.61998093128204,-0.77237010002136,0.47199079394341
744,3825877767,0.610752,0.392450,-0.585411,0.360915,9.92930984497070,0.58106029033661,0.08607007563114,0.82848125696182,-0.49276924133301,0.47525647282600
745,3825894434,0.610734,0.392479,-0.585418,0.360902,9.93225479125977,0.54563468694687,0.02852919511497,1.31928455829620,-0.27408790588379,0.23187176883221
746,3825911101,0.610696,0.392536,-0.585425,0.360892,9.87494945526123,0.57897675037384,0.07726377248764,1.40655982494354,-0.41312646865845,0.18109461665154
747,3825927768,0.610746,0.392438,-0.585473,0.360837,9.89461803436279,0.53985351324081,0.08117274940014,0.22989958524704,0.03663896769285,0.50924444198608
748,3825944435,0.610781,0.392274,-0.585584,0.360775,9.87994098663330,0.49857544898987,0.01144073344767,-0.15947106480598,-0.15187688171864,0.94847667217255
749,3825961102,0.610734,0.392258,-0.585646,0.360773,9.86067581176758,0.55201822519302,0.05766426771879,0.92665475606918,-0.48758262395859,0.67964589595795
750,3825977769,0.610608,0.392303,-0.585744,0.360777,9.86617851257324,0.54075837135315,0.04906443506479,1.47403645515442,-1.07452321052551,0.75727790594101
751,3825994436,0.610487,0.392326,-0.585845,0.360794,9.89467525482178,0.60693538188934,0.11425948143005,1.34419286251068,-0.98705571889877,0.89006686210632
752,3826011103,0.610430,0.392296,-0.585935,0.360776,9.92711162567139,0.59077274799347,0.10964889824390,0.92624485492706,-0.64141237735748,0.76663923263550
753,3826027770,0.610454,0.392218,-0.586003,0.360709,9.92195510864258,0.56846320629120,0.08848609775305,0.29604434967041,-0.24464608728886,0.49634841084480
754,3826044437,0.610499,0.392157,-0.586051,0.360623,9.89399242401123,0.56063842773438,0.05746249854565,0.26351627707481,-0.16150727868080,0.23986293375492
755,3826061104,0.610515,0.392115,-0.586091,0.360577,9.88130760192871,0.55643641948700,0.07071235030890,0.53708547353745,-0.19324140250683,0.38661089539528
756,3826077771,0.610487,0.392058,-0.586160,0.360572,9.88144111633301,0.51932895183563,0.06456243991852,0.73290735483170,-0.34042477607727,0.80610847473145
757,3826094438,0.610434,0.391994,-0.586260,0.360568,9.88226604461670,0.54793572425842,0.05074732378125,0.72047245502472,-0.55112773180008,0.97972428798676
758,3826111105,0.610374,0.391913,-0.586393,0.360543,9.89095687866211,0.54688096046448,0.05068928375840,0.52103912830353,-0.73101842403412,1.07296717166901
759,3826127772,0.610309,0.391847,-0.586523,0.360512,9.88848972320557,0.56216233968735,0.02481128834188,0.55370813608170,-0.78718703985214,0.98658829927444
760,3826144439,0.610260,0.391792,-0.586642,0.360462,9.89009857177734,0.55571591854095,0.01777695119381,0.48127546906471,-0.76209956407547,0.79346871376038
761,3826161106,0.610197,0.391781,-0.586738,0.360426,9.89858627319336,0.54383146762848,0.04086592793465,0.83108091354370,-0.79533195495605,0.64230251312256
762,3826177773,0.610108,0.391815,-0.586819,0.360406,9.92653942108154,0.54599565267563,0.00957731157541,1.19318032264709,-0.90346872806549,0.55904835462570
763,3826194440,0.610006,0.391856,-0.586895,0.360410,9.90531539916992,0.54719072580338,0.03447959572077,1.30400657653809,-0.89015024900436,0.64960217475891
764,3826211107,0.609898,0.391871,-0.587000,0.360406,9.90790748596191,0.53609710931778,0.03094626031816,1.14898574352264,-0.98726075887680,0.81061643362045
765,3826227774,0.609826,0.391873,-0.587095,0.360372,9.89724540710449,0.54778134822845,0.06742458045483,0.94576179981232,-0.85055291652679,0.62196594476700
766,3826244441,0.609749,0.391891,-0.587185,0.360335,9.88651847839355,0.56460636854172,0.03941151499748,1.05615234375000,-0.89447867870331,0.54629325866699
767,3826261108,0.609682,0.391906,-0.587259,0.360313,9.91268062591553,0.54122197628021,0.06409902125597,1.10003983974457,-0.74251854419708,0.55460458993912
768,3826277775,0.609606,0.391943,-0.587322,0.360297,9.88643455505371,0.55487459897995,0.05156475678086,1.24975883960724,-0.76929658651352,0.48452824354172
769,3826294442,0.609542,0.391981,-0.587351,0.360316,9.89532279968262,0.52802991867065,0.02924659103155,1.39805650711060,-0.49221849441528,0.49856400489807
770,3826311109,0.609470,0.392022,-0.587397,0.360318,9.89470577239990,0.53922873735428,0.00547143956646,1.34688222408295,-0.64207839965820,0.48993250727654
771,3826327776,0.609409,0.392036,-0.587461,0.360302,9.89397621154785,0.51965773105621,0.01024821680039,1.08933365345001,-0.65649831295013,0.53648364543915
772,3826344443,0.609337,0.392020,-0.587558,0.360282,9.91334915161133,0.52395933866501,0.01112641952932,0.90083706378937,-0.78098887205124,0.75813591480255
