sep=,
DeviceTag:,D
FirmwareVersion:,3.0.0
AppVersion:,2023.6.0
StartTime: ,2024-03-14_11:59:11_000 EDT
© Movella Technologies B. V. 2005-2024

PacketCounter,SampleTimeFine,Quat_W,Quat_X,Quat_Y,Quat_Z,Acc_X,Acc_Y,Acc_Z,Gyr_X,Gyr_Y,Gyr_Z
0,3813460852,0.002478,-0.697291,-0.059293,-0.714328,0.00000000000000,0.00000000000000,0.00000000000000,0.00000000000000,0.00000000000000,0.00000000000000
1,3813477519,0.002522,-0.697292,-0.059306,-0.714325,9.79990768432617,0.78287684917450,0.18630011379719,1.23892474174500,0.62733185291290,0.08009090274572
2,3813494186,0.002549,-0.697304,-0.059297,-0.714314,9.78617477416992,0.79224556684494,0.17626211047173,1.32211470603943,0.54954606294632,0.09947971999645
3,3813510853,0.002604,-0.697317,-0.059323,-0.714299,9.79344940185547,0.80778640508652,0.18107426166534,1.39084637165070,0.51354742050171,0.07882308214903
4,3813527520,0.002652,-0.697314,-0.059317,-0.714302,9.77754974365234,0.81334751844406,0.19664190709591,1.22413325309753,0.67883896827698,0.18511578440666
5,3813544187,0.002657,-0.697297,-0.059275,-0.714322,9.78108024597168,0.80849123001099,0.20872668921947,0.81709629297256,0.80806785821915,0.14419949054718
6,3813560854,0.002652,-0.697282,-0.059235,-0.714340,9.81100940704346,0.79631030559540,0.16751775145531,0.72295683622360,0.78888392448425,0.08398404717445
7,3813577521,0.002647,-0.697272,-0.059206,-0.714352,9.80407905578613,0.78077292442322,0.18498623371124,0.86488968133926,0.73248487710953,0.03393682837486
8,3813594188,0.002652,-0.697281,-0.059181,-0.714346,9.78371715545654,0.77661895751953,0.17337405681610,0.99897205829620,0.56926780939102,0.07498117536306
9,3813610855,0.002695,-0.697299,-0.059195,-0.714327,9.79459667205811,0.77016121149063,0.17065829038620,1.25529122352600,0.46563893556595,0.07961708307266
10,3813627522,0.002747,-0.697321,-0.059226,-0.714303,9.80483722686768,0.78649479150772,0.19521345198154,1.39582800865173,0.41988176107407,0.03667738661170
11,3813644189,0.002796,-0.697342,-0.059255,-0.714280,9.79263877868652,0.79601824283600,0.20184499025345,1.40065610408783,0.43641474843025,0.03602425754070
12,3813660856,0.002840,-0.697352,-0.059291,-0.714266,9.78491306304932,0.79965347051620,0.18941770493984,1.31778609752655,0.52435594797134,-0.02759128250182
13,3813677523,0.002889,-0.697349,-0.059325,-0.714266,9.79637622833252,0.79931461811066,0.20940515398979,1.25953006744385,0.65111327171326,0.00531463511288
14,3813694190,0.002867,-0.697341,-0.059307,-0.714276,9.77062129974365,0.82355517148972,0.20256800949574,0.96566283702850,0.72428882122040,-0.10112533718348
15,3813710857,0.002807,-0.697348,-0.059242,-0.714274,9.80384731292725,0.81819331645966,0.19790016114712,0.49817982316017,0.56671935319901,-0.05933821573853
16,3813727524,0.002748,-0.697359,-0.059166,-0.714271,9.82025814056396,0.78038889169693,0.18347735702991,0.47113278508186,0.54840630292892,0.00367542216554
17,3813744191,0.002769,-0.697358,-0.059173,-0.714270,9.79249477386475,0.79534107446671,0.17389081418514,1.06226098537445,0.63180124759674,-0.00539787625894
18,3813760858,0.002782,-0.697361,-0.059146,-0.714270,9.75625896453857,0.81070554256439,0.17945814132690,0.99993252754211,0.62185066938400,0.11551328003407
19,3813777525,0.002861,-0.697388,-0.059189,-0.714240,9.79573345184326,0.78903383016586,0.19637726247311,1.55613791942596,0.38349893689156,0.12269762903452
20,3813794192,0.002935,-0.697401,-0.059251,-0.714222,9.83875274658203,0.80257105827332,0.18874323368073,1.67107498645782,0.50526171922684,-0.00200419384055
21,3813810859,0.002994,-0.697418,-0.059296,-0.714201,9.86883354187012,0.80218446254730,0.20732018351555,1.54180753231049,0.47277197241783,0.01037314347923
22,3813827526,0.003003,-0.697423,-0.059259,-0.714199,9.81612300872803,0.80242294073105,0.20887012779713,0.93572163581848,0.60015678405762,0.14232978224754
23,3813844193,0.002933,-0.697404,-0.059152,-0.714227,9.80273818969727,0.81541663408279,0.19641879200935,0.26527073979378,0.84666615724564,0.08669898658991
24,3813860860,0.002833,-0.697368,-0.059039,-0.714272,9.80631160736084,0.83501917123795,0.21475015580654,0.02029806375504,0.98813790082932,-0.03428900241852
25,3813877527,0.002701,-0.697331,-0.058883,-0.714322,9.79994773864746,0.80004286766052,0.19108739495277,-0.40280455350876,0.99739694595337,0.00107573345304
26,3813894194,0.002562,-0.697306,-0.058737,-0.714358,9.77831554412842,0.79259258508682,0.22024738788605,-0.46035629510880,0.86065077781677,-0.06379483640194
27,3813910861,0.002471,-0.697311,-0.058678,-0.714358,9.78145599365234,0.73955982923508,0.20564255118370,0.25469267368317,0.56839698553085,-0.23454189300537
28,3813927528,0.002452,-0.697313,-0.058722,-0.714353,9.77312755584717,0.73568338155746,0.17283438146114,1.02991223335266,0.57467216253281,-0.37273520231247
29,3813944195,0.002474,-0.697292,-0.058816,-0.714366,9.76460170745850,0.75952529907227,0.19663196802139,1.56199061870575,0.79800212383270,-0.42530530691147
30,3813960862,0.002484,-0.697277,-0.058916,-0.714373,9.78489303588867,0.79991102218628,0.17857272922993,1.46531534194946,0.73361176252365,-0.51147919893265
31,3813977529,0.002480,-0.697294,-0.059002,-0.714348,9.79595088958740,0.79383969306946,0.15302854776382,1.35688388347626,0.41328650712967,-0.49588102102280
32,3813994196,0.002458,-0.697336,-0.059061,-0.714303,9.80129718780518,0.79410964250565,0.18282893300056,1.17398369312286,0.19213366508484,-0.44904822111130
33,3814010863,0.002412,-0.697391,-0.059075,-0.714248,9.80557537078857,0.79641628265381,0.19859670102596,0.87564688920975,0.07708141207695,-0.34066808223724
34,3814027530,0.002370,-0.697439,-0.059074,-0.714201,9.78309059143066,0.78353977203369,0.16241014003754,0.71540111303329,0.14056250452995,-0.25596690177917
35,3814044197,0.002313,-0.697485,-0.059082,-0.714156,9.79063224792480,0.80404216051102,0.20426094532013,0.81242197751999,0.16653376817703,-0.37630814313889
36,3814060864,0.002268,-0.697552,-0.059078,-0.714091,9.81584548950195,0.79439723491669,0.20528502762318,0.71120059490204,-0.04240822419524,-0.24339106678963
37,3814077531,0.002275,-0.697645,-0.059081,-0.714000,9.77918624877930,0.80124992132187,0.19980563223362,1.03198683261871,-0.26666018366814,-0.01593750156462
38,3814094198,0.002293,-0.697714,-0.059150,-0.713927,9.77521324157715,0.78298985958099,0.20002718269825,1.32945275306702,-0.06314171105623,-0.28802120685577
39,3814110865,0.002325,-0.697767,-0.059255,-0.713866,9.79225254058838,0.82497966289520,0.17581829428673,1.60019195079803,0.07241990417242,-0.39485177397728
40,3814127532,0.002377,-0.697792,-0.059379,-0.713831,9.81628799438477,0.85161882638931,0.16701585054398,1.63067102432251,0.33644843101501,-0.39582508802414
41,3814144199,0.002415,-0.697793,-0.059439,-0.713825,9.81347370147705,0.83246582746506,0.14581307768822,1.35126209259033,0.59444516897202,-0.17643949389458
42,3814160866,0.002446,-0.697820,-0.059470,-0.713796,9.78865146636963,0.84835410118103,0.20402380824089,1.29908883571625,0.37486746907234,-0.05702026933432
43,3814177533,0.002460,-0.697856,-0.059471,-0.713761,9.76923751831055,0.81550937891006,0.20105007290840,1.03409993648529,0.28080484271049,0.00595495337620
44,3814194200,0.002455,-0.697880,-0.059445,-0.713740,9.76214599609375,0.80733311176300,0.16704815626144,0.74009174108505,0.39560094475746,0.04018632322550
45,3814210867,0.002413,-0.697900,-0.059387,-0.713724,9.78678512573242,0.78673309087753,0.16192713379860,0.50874507427216,0.43412241339684,0.00619827304035
46,3814227534,0.002409,-0.697937,-0.059377,-0.713689,9.78253841400146,0.75485795736313,0.16354370117188,0.88850450515747,0.26860037446022,-0.02642590180039
47,3814244201,0.002410,-0.697994,-0.059408,-0.713631,9.78848743438721,0.75888323783875,0.18731716275215,1.02709484100342,0.05966477841139,-0.18781150877476
48,3814260868,0.002421,-0.698053,-0.059441,-0.713570,9.77103614807129,0.77466374635696,0.18128770589828,1.20511603355408,0.04468135535717,-0.15177448093891
49,3814277535,0.002439,-0.698133,-0.059523,-0.713485,9.77318191528320,0.79753047227859,0.17788694798946,1.42866349220276,-0.17736153304577,-0.34390810132027
50,3814294202,0.002467,-0.698222,-0.059605,-0.713392,9.77780055999756,0.80984199047089,0.14468897879124,1.51800084114075,-0.25130543112755,-0.29227292537689
51,3814310869,0.002491,-0.698303,-0.059664,-0.713307,9.78721714019775,0.81687879562378,0.15405814349651,1.50218474864960,-0.16605351865292,-0.20960789918900
52,3814327536,0.002521,-0.698392,-0.059725,-0.713215,9.78179550170898,0.81769204139709,0.15912804007530,1.30751538276672,-0.24988391995430,-0.17436486482620
53,3814344203,0.002511,-0.698464,-0.059740,-0.713143,9.79526710510254,0.82858580350876,0.19271776080132,0.83316826820374,-0.09604121744633,-0.16022662818432
54,3814360870,0.002459,-0.698533,-0.059709,-0.713078,9.81230068206787,0.79321348667145,0.17289531230927,0.47727981209755,-0.06414059549570,-0.14902108907700
55,3814377537,0.002382,-0.698584,-0.059638,-0.713035,9.82923412322998,0.79332792758942,0.14187529683113,0.21805374324322,0.13707917928696,-0.08609068393707
56,3814394204,0.002327,-0.698639,-0.059627,-0.712981,9.83237838745117,0.79364264011383,0.11798958480358,0.62894541025162,0.06755349040031,-0.26706999540329
57,3814410871,0.002327,-0.698676,-0.059653,-0.712943,9.82297420501709,0.79759204387665,0.13911883533001,1.04638111591339,0.25275892019272,-0.18065276741982
58,3814427538,0.002367,-0.698735,-0.059683,-0.712883,9.81177043914795,0.80505865812302,0.15878397226334,1.25502228736877,0.05834573134780,0.00285581569187
59,3814444205,0.002443,-0.698774,-0.059734,-0.712840,9.80461692810059,0.83878803253174,0.16716454923153,1.48652267456055,0.23950435221195,0.07631304115057
60,3814460872,0.002526,-0.698789,-0.059763,-0.712823,9.79808521270752,0.85003870725632,0.15770995616913,1.39511072635651,0.49660459160805,0.20190489292145
61,3814477539,0.002561,-0.698797,-0.059737,-0.712817,9.80370903015137,0.84406048059464,0.13904134929180,1.01377618312836,0.56764143705368,0.22582715749741
62,3814494206,0.002568,-0.698780,-0.059690,-0.712837,9.80506992340088,0.81418162584305,0.14039190113544,0.70294052362442,0.80626213550568,0.18806123733521
63,3814510873,0.002583,-0.698754,-0.059647,-0.712867,9.82761096954346,0.81032180786133,0.15501132607460,0.71108537912369,0.89175730943680,0.19696164131165
64,3814527540,0.002584,-0.698731,-0.059601,-0.712892,9.79194355010986,0.78281736373901,0.12842886149883,0.62512904405594,0.84655088186264,0.14505751430988
65,3814544207,0.002587,-0.698720,-0.059560,-0.712907,9.81991577148438,0.76458340883255,0.14184899628162,0.55110847949982,0.73066639900208,0.13850069046021
66,3814560874,0.002593,-0.698711,-0.059531,-0.712918,9.84399795532227,0.75952774286270,0.13745111227036,0.80521202087402,0.72021627426147,0.08920902758837
67,3814577541,0.002645,-0.698710,-0.059559,-0.712916,9.78150558471680,0.78104609251022,0.12193907052279,1.27447509765625,0.63568156957626,0.05330003052950
68,3814594208,0.002678,-0.698715,-0.059575,-0.712910,9.74238586425781,0.81749242544174,0.12083769589663,1.09432816505432,0.57022833824158,0.01628967560828
69,3814610875,0.002735,-0.698726,-0.059611,-0.712897,9.78790187835693,0.79638141393661,0.16187407076359,1.35151803493500,0.52750635147095,0.03802205249667
70,3814627542,0.002774,-0.698741,-0.059648,-0.712878,9.84011650085449,0.78600031137466,0.15620543062687,1.37325048446655,0.47774088382721,-0.05147512257099
71,3814644209,0.002841,-0.698761,-0.059711,-0.712853,9.82480144500732,0.78136426210403,0.16932593286037,1.45475006103516,0.41897252202034,-0.03329010680318
72,3814660876,0.002855,-0.698757,-0.059720,-0.712856,9.81929683685303,0.80099976062775,0.17751002311707,0.95224183797836,0.65334159135818,-0.04960539937019
73,3814677543,0.002805,-0.698718,-0.059690,-0.712897,9.82035255432129,0.83668315410614,0.14597359299660,0.51580137014389,0.98875272274017,-0.19321580231190
74,3814694210,0.002729,-0.698678,-0.059608,-0.712944,9.81671237945557,0.84532338380814,0.15243500471115,-0.01441354490817,0.99829328060150,-0.06296242028475
75,3814710877,0.002601,-0.698634,-0.059446,-0.713001,9.80852985382080,0.82700002193451,0.14573174715042,-0.44390001893044,1.06446373462677,0.05847378447652
76,3814727544,0.002483,-0.698613,-0.059323,-0.713032,9.78742790222168,0.77187478542328,0.15176682174206,-0.32166343927383,0.81885081529617,-0.06903262436390
77,3814744211,0.002397,-0.698635,-0.059298,-0.713012,9.78095531463623,0.71918600797653,0.14828743040562,0.33798515796661,0.37667313218117,-0.35635590553284
78,3814760878,0.002388,-0.698629,-0.059369,-0.713013,9.77450752258301,0.75005400180817,0.13912558555603,1.20948302745819,0.64747619628906,-0.46394199132919
79,3814777545,0.002436,-0.698601,-0.059490,-0.713030,9.78023147583008,0.79207652807236,0.13269895315170,1.63941752910614,0.84871512651443,-0.42862209677696
80,3814794212,0.002474,-0.698581,-0.059617,-0.713039,9.77981281280518,0.81115663051605,0.11029495298862,1.76928651332855,0.77989375591278,-0.50913560390472
81,3814810879,0.002520,-0.698588,-0.059756,-0.713020,9.81300830841064,0.83079493045807,0.14645238220692,1.86842048168182,0.51782470941544,-0.51283657550812
82,3814827546,0.002539,-0.698599,-0.059852,-0.713001,9.83803939819336,0.83673852682114,0.13767637312412,1.52766931056976,0.47844520211220,-0.43439775705338
83,3814844213,0.002520,-0.698608,-0.059867,-0.712991,9.83144187927246,0.84256482124329,0.15118448436260,0.86503046751022,0.51879799365997,-0.22984194755554
84,3814860880,0.002445,-0.698615,-0.059791,-0.712991,9.80502700805664,0.83501577377319,0.17148628830910,0.27517005801201,0.56513148546219,-0.07471864670515
85,3814877547,0.002345,-0.698603,-0.059686,-0.713012,9.78921985626221,0.83604931831360,0.14581270515919,-0.14736905694008,0.73805552721024,-0.06602313369513
86,3814894214,0.002253,-0.698598,-0.059573,-0.713026,9.80235195159912,0.80783301591873,0.16235622763634,-0.24752752482891,0.66007763147354,0.02138660289347
87,3814910881,0.002179,-0.698595,-0.059481,-0.713037,9.78545188903809,0.78506672382355,0.15297585725784,0.18703672289848,0.66604536771774,0.00573724415153
88,3814927548,0.002131,-0.698572,-0.059478,-0.713060,9.78275108337402,0.76758694648743,0.16757826507092,0.68729114532471,0.82292324304581,-0.30273571610451
89,3814944215,0.002167,-0.698536,-0.059593,-0.713086,9.83432674407959,0.79752522706985,0.10681916773319,1.65778195858002,0.93423593044281,-0.46506890654564
90,3814960882,0.002225,-0.698489,-0.059706,-0.713122,9.82526588439941,0.83084374666214,0.15710309147835,1.80143082141876,1.05526888370514,-0.35504963994026
91,3814977549,0.002309,-0.698443,-0.059783,-0.713161,9.79275035858154,0.84456330537796,0.14911216497421,1.66715610027313,1.06325984001160,-0.04859368875623
92,3814994216,0.002385,-0.698422,-0.059836,-0.713177,9.80824375152588,0.84448570013046,0.14600290358067,1.50428509712219,0.83273291587830,0.04336230456829
93,3815010883,0.002403,-0.698401,-0.059809,-0.713199,9.77494049072266,0.84821206331253,0.17351764440536,0.93508118391037,0.84030145406723,0.13355740904808
94,3815027550,0.002374,-0.698373,-0.059717,-0.713235,9.75579833984375,0.83408284187317,0.17219163477421,0.31260296702385,0.92112231254578,0.21284151077271
95,3815044217,0.002314,-0.698339,-0.059601,-0.713277,9.77287960052490,0.82112979888916,0.14239612221718,0.02641949802637,0.96430534124374,0.17898154258728
96,3815060884,0.002275,-0.698303,-0.059512,-0.713320,9.77578258514404,0.78185951709747,0.16336962580681,0.21524912118912,0.98103034496307,0.15076914429665
97,3815077551,0.002250,-0.698276,-0.059439,-0.713353,9.79553699493408,0.78523856401443,0.16891734302044,0.44429069757462,0.90341109037399,0.14581309258938
98,3815094218,0.002254,-0.698250,-0.059424,-0.713379,9.79390430450439,0.77909970283508,0.15772102773190,0.85423469543457,0.87642812728882,0.00961756892502
99,3815110885,0.002287,-0.698239,-0.059447,-0.713388,9.79403591156006,0.78811299800873,0.14221298694611,1.20547449588776,0.73418802022934,-0.02427443675697
100,3815127552,0.002358,-0.698237,-0.059513,-0.713385,9.79773330688477,0.79974216222763,0.16003125905991,1.51276290416718,0.63388878107071,-0.04147336632013
101,3815144219,0.002424,-0.698233,-0.059571,-0.713384,9.80085563659668,0.81828224658966,0.15940721333027,1.54212796688080,0.66468805074692,-0.02981958538294
102,3815160886,0.002495,-0.698231,-0.059616,-0.713381,9.80014038085938,0.82227122783661,0.15808972716331,1.38624906539917,0.63452899456024,0.06104787066579
103,3815177553,0.002527,-0.698223,-0.059613,-0.713390,9.79687786102295,0.82398325204849,0.15569815039635,1.00729632377625,0.71428698301315,0.10102929919958
104,3815194220,0.002523,-0.698200,-0.059568,-0.713416,9.80418586730957,0.82776224613190,0.17049527168274,0.67636734247208,0.85395300388336,0.11737018823624
105,3815210887,0.002495,-0.698166,-0.059503,-0.713454,9.79241561889648,0.81320369243622,0.16895915567875,0.52161544561386,0.96932542324066,0.08313882350922
106,3815227554,0.002486,-0.698132,-0.059458,-0.713492,9.80097198486328,0.78783649206161,0.16462178528309,0.61484563350677,0.96388268470764,0.08890167623758
107,3815244221,0.002509,-0.698106,-0.059461,-0.713516,9.79236221313477,0.79067319631577,0.16763874888420,0.94020384550095,0.86380118131638,0.01704525202513
108,3815260888,0.002558,-0.698099,-0.059485,-0.713521,9.79610729217529,0.77770155668259,0.16660693287849,1.19592094421387,0.68795710802078,0.05281338468194
109,3815277555,0.002617,-0.698104,-0.059501,-0.713515,9.79482555389404,0.77447271347046,0.17194050550461,1.37006175518036,0.60709786415100,0.14402019977570
110,3815294222,0.002678,-0.698086,-0.059541,-0.713529,9.79757308959961,0.80448973178864,0.17703032493591,1.41205370426178,0.79884719848633,0.02033648081124
111,3815310889,0.002722,-0.698051,-0.059563,-0.713561,9.78690719604492,0.81645834445953,0.17857041954994,1.24884963035583,0.96107804775238,0.02510044351220
112,3815327556,0.002722,-0.698014,-0.059564,-0.713597,9.79456901550293,0.83224964141846,0.18638809025288,1.04187345504761,0.99101948738098,-0.09308295696974
113,3815344223,0.002654,-0.697996,-0.059492,-0.713621,9.83030605316162,0.80894285440445,0.19932597875595,0.45142385363579,0.81270384788513,-0.06836670637131
114,3815360890,0.002639,-0.697995,-0.059438,-0.713627,9.85235786437988,0.78322046995163,0.15857401490211,0.57609361410141,0.64559364318848,0.11518030613661
115,3815377557,0.002644,-0.697976,-0.059420,-0.713647,9.76043987274170,0.81327223777771,0.19733779132366,0.83838045597076,0.81760853528976,0.02905760519207
116,3815394224,0.002632,-0.697959,-0.059359,-0.713669,9.72840213775635,0.80545163154602,0.16725772619247,0.56314635276794,0.80646699666977,0.15914449095726
117,3815410891,0.002674,-0.697923,-0.059375,-0.713702,9.80679321289062,0.79150110483170,0.15630921721458,1.17108952999115,0.96897965669632,0.03684386983514
118,3815427558,0.002691,-0.697882,-0.059417,-0.713739,9.85528850555420,0.79407066106796,0.18085028231144,1.28463065624237,1.01033139228821,-0.20658563077450
119,3815444225,0.002735,-0.697867,-0.059449,-0.713751,9.85654640197754,0.77143687009811,0.20056688785553,1.36139178276062,0.77514272928238,-0.01306887995452
120,3815460892,0.002735,-0.697824,-0.059444,-0.713793,9.80363082885742,0.80661958456039,0.15968488156796,0.93807792663574,1.03625130653381,-0.07081271708012
121,3815477559,0.002684,-0.697760,-0.059402,-0.713860,9.80764675140381,0.83652728796005,0.18273153901100,0.52152580022812,1.24836301803589,-0.14365524053574
122,3815494226,0.002627,-0.697696,-0.059299,-0.713931,9.81782150268555,0.85918599367142,0.20439605414867,0.04866412654519,1.24354779720306,0.11314409971237
123,3815510893,0.002513,-0.697639,-0.059112,-0.714002,9.77404212951660,0.82995206117630,0.17371068894863,-0.52359396219254,1.20507752895355,0.24233455955982
124,3815527560,0.002411,-0.697618,-0.058946,-0.714037,9.77196121215820,0.77161526679993,0.17834140360355,-0.42300009727478,0.85031598806381,0.21482650935650
125,3815544227,0.002333,-0.697602,-0.058879,-0.714059,9.76831817626953,0.72550141811371,0.18030527234077,0.18246486783028,0.76694661378860,-0.13440904021263
126,3815560894,0.002302,-0.697568,-0.058882,-0.714092,9.78332519531250,0.74045723676682,0.18326233327389,0.86821937561035,0.94462198019028,-0.25537782907486
127,3815577561,0.002322,-0.697496,-0.058955,-0.714156,9.78452396392822,0.77130722999573,0.15495975315571,1.31749153137207,1.27990484237671,-0.35469099879265
128,3815594228,0.002351,-0.697445,-0.059067,-0.714196,9.77897834777832,0.78239214420319,0.18574365973473,1.56392407417297,1.07335138320923,-0.48619943857193
129,3815610895,0.002380,-0.697423,-0.059175,-0.714208,9.80357360839844,0.81140059232712,0.18088334798813,1.59953868389130,0.79358381032944,-0.45557948946953
130,3815627562,0.002377,-0.697422,-0.059233,-0.714205,9.84092712402344,0.83431380987167,0.17288500070572,1.39108967781067,0.62533402442932,-0.37273520231247
131,3815644229,0.002380,-0.697417,-0.059242,-0.714209,9.81220054626465,0.83049380779266,0.16892705857754,1.03979873657227,0.67449772357941,-0.09656628966331
132,3815660896,0.002364,-0.697410,-0.059201,-0.714219,9.77875328063965,0.82105803489685,0.16826334595680,0.69000619649887,0.70344007015228,0.04305495321751
133,3815677563,0.002303,-0.697393,-0.059094,-0.714244,9.78456497192383,0.85577189922333,0.21253754198551,0.16068126261234,0.80248427391052,0.13372389972210
134,3815694230,0.002259,-0.697406,-0.058981,-0.714242,9.78002548217773,0.81058675050735,0.22819778323174,0.20716831088066,0.53288501501083,0.25856021046638
135,3815710897,0.002179,-0.697406,-0.058857,-0.714252,9.74373817443848,0.77364450693130,0.21101768314838,0.06218763813376,0.65216338634491,0.12830682098866
136,3815727564,0.002113,-0.697372,-0.058805,-0.714290,9.78118991851807,0.76814013719559,0.16922089457512,0.49669429659843,0.95459812879562,-0.16018822789192
137,3815744231,0.002124,-0.697316,-0.058861,-0.714340,9.82564544677734,0.79268169403076,0.18235667049885,1.25143659114838,1.14071285724640,-0.31441515684128
138,3815760898,0.002182,-0.697265,-0.058902,-0.714386,9.84563350677490,0.82739478349686,0.17016489803791,1.44891035556793,1.12616467475891,-0.00168403482530
139,3815777565,0.002285,-0.697231,-0.058932,-0.714417,9.84373283386230,0.81983566284180,0.20043878257275,1.72457981109619,0.98806107044220,0.27450412511826
140,3815794232,0.002419,-0.697231,-0.058958,-0.714414,9.80073642730713,0.81323939561844,0.20075899362564,1.70220696926117,0.65784931182861,0.46483200788498
141,3815810899,0.002510,-0.697235,-0.058944,-0.714411,9.77936458587646,0.82839512825012,0.20421527326107,1.30039525032043,0.62820273637772,0.43836137652397
142,3815827566,0.002505,-0.697205,-0.058867,-0.714447,9.76723575592041,0.82559686899185,0.19508793950081,0.60942852497101,0.94788759946823,0.26286312937737
143,3815844233,0.002433,-0.697153,-0.058723,-0.714510,9.76988220214844,0.80033570528030,0.19410397112370,0.02812274359167,1.16822075843811,0.24074655771255
144,3815860900,0.002380,-0.697090,-0.058599,-0.714581,9.78693485260010,0.75633817911148,0.20824076235294,0.08452191203833,1.25854408740997,0.23461230099201
145,3815877567,0.002362,-0.697040,-0.058529,-0.714636,9.79936885833740,0.75608474016190,0.20886272192001,0.49429950118065,1.12117028236389,0.15777425467968
146,3815894234,0.002380,-0.697017,-0.058518,-0.714659,9.79166793823242,0.74304872751236,0.16167905926704,1.10299813747406,0.86433899402618,0.05846099182963
147,3815910901,0.002457,-0.697004,-0.058563,-0.714667,9.79044818878174,0.78359156847000,0.17156089842319,1.54755759239197,0.75352555513382,0.08389439433813
148,3815927568,0.002542,-0.697006,-0.058622,-0.714661,9.81558227539062,0.78432029485703,0.19038251042366,1.69507420063019,0.62633305788040,0.06419823318720
149,3815944235,0.002611,-0.696998,-0.058663,-0.714665,9.81190395355225,0.81447196006775,0.18837331235409,1.61317741870880,0.71696346998215,0.06871886551380
150,3815960902,0.002683,-0.696992,-0.058681,-0.714669,9.80638694763184,0.81634551286697,0.21371681988239,1.33702135086060,0.69967496395111,0.19099391996861
151,3815977569,0.002726,-0.696976,-0.058671,-0.714686,9.81591606140137,0.81271481513977,0.20226296782494,1.05686950683594,0.79386556148529,0.18607625365257
152,3815994236,0.002758,-0.696963,-0.058625,-0.714701,9.81729793548584,0.79349505901337,0.21333716809750,0.82434475421906,0.76579409837723,0.30315190553665
153,3816010903,0.002798,-0.696943,-0.058574,-0.714725,9.79264163970947,0.78086477518082,0.17408718168736,0.83565276861191,0.85295420885086,0.35513290762901
154,3816027570,0.002820,-0.696916,-0.058521,-0.714756,9.78272438049316,0.78036308288574,0.21113687753677,0.73534065485001,0.91036510467529,0.28272578120232
155,3816044237,0.002831,-0.696886,-0.058496,-0.714786,9.77024078369141,0.78717434406281,0.20189380645752,0.82066941261292,0.91162002086639,0.09453648328781
156,3816060904,0.002855,-0.696860,-0.058478,-0.714813,9.79879283905029,0.76134639978409,0.24327322840691,0.92103278636932,0.88462430238724,0.11916309595108
157,3816077571,0.002881,-0.696822,-0.058489,-0.714850,9.81292343139648,0.76821511983871,0.21813222765923,1.07011151313782,0.98932898044586,-0.01171140745282
158,3816094238,0.002891,-0.696781,-0.058507,-0.714888,9.80907440185547,0.77642101049423,0.19994777441025,1.02332985401154,1.00581073760986,-0.12447132915258
159,3816110905,0.002877,-0.696752,-0.058516,-0.714916,9.77582836151123,0.78308123350143,0.22341956198215,0.86634963750839,0.89279460906982,-0.19458608329296
160,3816127572,0.002834,-0.696740,-0.058501,-0.714929,9.81410694122314,0.77739942073822,0.22560468316078,0.61854666471481,0.71742445230484,-0.21754784882069
161,3816144239,0.002813,-0.696733,-0.058487,-0.714937,9.80302906036377,0.76125860214233,0.18956017494202,0.73213911056519,0.68488365411758,-0.10818164795637
162,3816160906,0.002805,-0.696701,-0.058491,-0.714967,9.73243522644043,0.80352997779846,0.20871178805828,0.87339311838150,0.91886848211288,-0.14100432395935
163,3816177573,0.002816,-0.696679,-0.058494,-0.714988,9.74233150482178,0.79528427124023,0.18518981337547,0.95791494846344,0.82905745506287,-0.04231858253479
164,3816194240,0.002867,-0.696663,-0.058543,-0.715001,9.78832054138184,0.78230178356171,0.17560072243214,1.38272726535797,0.77971464395523,-0.05837774649262
165,3816210907,0.002903,-0.696653,-0.058585,-0.715006,9.86887359619141,0.77506208419800,0.18636314570904,1.27681863307953,0.70178794860840,-0.09911473840475
166,3816227574,0.002908,-0.696636,-0.058604,-0.715021,9.85178852081299,0.76930212974548,0.23351615667343,1.01111257076263,0.77734541893005,-0.14759959280491
167,3816244241,0.002853,-0.696623,-0.058531,-0.715040,9.78666687011719,0.78313577175140,0.23743513226509,0.27728307247162,0.75027275085449,0.00256126979366
168,3816260908,0.002752,-0.696588,-0.058451,-0.715082,9.76620101928711,0.80380326509476,0.22894464433193,0.00972001906484,0.95682638883591,-0.19986228644848
169,3816277575,0.002646,-0.696556,-0.058347,-0.715122,9.73708152770996,0.81060111522675,0.21368946135044,-0.13255211710930,0.92555326223373,-0.10611981153488
170,3816294242,0.002525,-0.696525,-0.058209,-0.715163,9.73506736755371,0.78232234716415,0.18394143879414,-0.36905974149704,0.92017459869385,-0.02006114460528
171,3816310909,0.002415,-0.696505,-0.058150,-0.715188,9.75702571868896,0.74737685918808,0.20472687482834,0.07861817628145,0.79668301343918,-0.33689025044441
172,3816327576,0.002348,-0.696497,-0.058180,-0.715193,9.76224803924561,0.73128879070282,0.19489571452141,0.72410947084427,0.65366166830063,-0.54308527708054
173,3816344243,0.002314,-0.696479,-0.058249,-0.715206,9.78563499450684,0.76338940858841,0.20849835872650,1.07674503326416,0.75287246704102,-0.58284896612167
174,3816360910,0.002280,-0.696456,-0.058318,-0.715222,9.79521179199219,0.78663450479507,0.19492273032665,1.07221150398254,0.79536396265030,-0.57462728023529
175,3816377577,0.002239,-0.696458,-0.058375,-0.715216,9.81949615478516,0.78727871179581,0.17737370729446,0.99094265699387,0.56186580657959,-0.54436600208282
176,3816394244,0.002198,-0.696511,-0.058416,-0.715162,9.81583690643311,0.81134623289108,0.20527811348438,0.92515629529953,0.08243446797132,-0.44863840937614
177,3816410911,0.002190,-0.696576,-0.058462,-0.715094,9.82893562316895,0.81391018629074,0.18580710887909,1.11901891231537,-0.03049832209945,-0.30459266901016
178,3816427578,0.002194,-0.696628,-0.058482,-0.715042,9.78156089782715,0.80987846851349,0.20478840172291,1.03960669040680,0.11812575906515,-0.12885108590126
179,3816444245,0.002225,-0.696663,-0.058485,-0.715007,9.77528762817383,0.84063988924026,0.23531976342201,1.08062553405762,0.29192078113556,0.08078245818615
180,3816460912,0.002242,-0.696709,-0.058463,-0.714964,9.80082035064697,0.82196068763733,0.22679351270199,0.89801961183548,0.18944431841373,0.14142051339149
181,3816477579,0.002221,-0.696759,-0.058391,-0.714922,9.80173683166504,0.78599661588669,0.25570580363274,0.66682660579681,0.18441142141819,0.19122439622879
182,3816494246,0.002145,-0.696760,-0.058335,-0.714925,9.78150844573975,0.78171277046204,0.22098444402218,0.40811273455620,0.61365467309952,-0.17779694497585
183,3816510913,0.002106,-0.696734,-0.058339,-0.714950,9.82551193237305,0.80543279647827,0.23687793314457,0.72918075323105,0.85053378343582,-0.29113313555717
184,3816527580,0.002088,-0.696705,-0.058347,-0.714978,9.83442020416260,0.81116294860840,0.18642964959145,0.84268331527710,0.89032298326492,-0.21488413214684
185,3816544247,0.002107,-0.696659,-0.058340,-0.715023,9.83419418334961,0.81405097246170,0.19471400976181,0.94149732589722,1.06324708461761,0.03767627850175
186,3816560914,0.002138,-0.696646,-0.058345,-0.715035,9.78473854064941,0.78013706207275,0.22086268663406,1.07755184173584,0.75170713663101,0.05062350630760
187,3816577581,0.002193,-0.696664,-0.058379,-0.715015,9.78759479522705,0.79543656110764,0.20529457926750,1.33919835090637,0.45389547944069,0.04728104546666
188,3816594248,0.002211,-0.696674,-0.058387,-0.715005,9.78185844421387,0.79244554042816,0.20248106122017,1.13035249710083,0.53928816318512,-0.01927995868027
189,3816610915,0.002191,-0.696652,-0.058363,-0.715028,9.77058887481689,0.80783534049988,0.21181513369083,0.78317230939865,0.83701014518738,-0.06460162997246
190,3816627582,0.002162,-0.696645,-0.058325,-0.715038,9.78707313537598,0.77904719114304,0.18335391581059,0.74422818422318,0.70879304409027,-0.03268820419908
191,3816644249,0.002152,-0.696648,-0.058300,-0.715037,9.77490901947021,0.79451191425323,0.20376308262348,0.83109366893768,0.60296130180359,-0.00163280952256
192,3816660916,0.002133,-0.696649,-0.058277,-0.715038,9.78249263763428,0.77921026945114,0.21469911932945,0.77523243427277,0.61812412738800,-0.05055306851864
193,3816677583,0.002113,-0.696665,-0.058259,-0.715024,9.79122352600098,0.79349803924561,0.19748806953430,0.81947821378708,0.47232374548912,-0.07911121845245
194,3816694250,0.002109,-0.696693,-0.058238,-0.714999,9.82566833496094,0.76937431097031,0.19923263788223,0.96863383054733,0.37632739543915,0.01973458379507
195,3816710917,0.002137,-0.696724,-0.058253,-0.714967,9.80981159210205,0.77609711885452,0.20392484962940,1.22405660152435,0.33039104938507,0.00883638113737
196,3816727584,0.002170,-0.696761,-0.058282,-0.714928,9.80094146728516,0.79559653997421,0.19580966234207,1.31653130054474,0.27601525187492,-0.03605628013611
197,3816744251,0.002195,-0.696791,-0.058315,-0.714897,9.79952526092529,0.80174326896667,0.21471755206585,1.31461012363434,0.34053361415863,-0.09371045976877
198,3816760918,0.002190,-0.696819,-0.058320,-0.714869,9.78456401824951,0.80299526453018,0.23294852674007,1.04023408889771,0.35381376743317,-0.10829689353704
199,3816777585,0.002168,-0.696841,-0.058308,-0.714849,9.80529308319092,0.79990750551224,0.19250528514385,0.81908124685287,0.41474643349648,-0.11320172995329
200,3816794252,0.002138,-0.696856,-0.058291,-0.714835,9.79530239105225,0.80119651556015,0.21463313698769,0.84863829612732,0.47931605577469,-0.13011890649796
201,3816810919,0.002126,-0.696859,-0.058284,-0.714833,9.79982089996338,0.79176509380341,0.20786906778812,0.81976008415222,0.58788830041885,-0.09053448587656
202,3816827586,0.002105,-0.696861,-0.058282,-0.714831,9.78528690338135,0.79564803838730,0.19438815116882,0.79633724689484,0.59782600402832,-0.16933196783066
203,3816844253,0.002059,-0.696867,-0.058259,-0.714827,9.79177379608154,0.78876072168350,0.23157393932343,0.57161146402359,0.54562729597092,-0.18194620311260
204,3816860920,0.002012,-0.696894,-0.058233,-0.714803,9.80827045440674,0.78764891624451,0.20556397736073,0.56396597623825,0.35909005999565,-0.16762870550156
205,3816877587,0.002013,-0.696911,-0.058218,-0.714788,9.83387851715088,0.77546584606171,0.18447877466679,0.84524476528168,0.46204030513763,0.01388208381832
206,3816894254,0.002057,-0.696938,-0.058253,-0.714758,9.77773189544678,0.81921309232712,0.19698935747147,1.29903757572174,0.35958948731422,-0.00670412275940
207,3816910921,0.002123,-0.696977,-0.058282,-0.714718,9.77308940887451,0.81239807605743,0.21110807359219,1.37978184223175,0.25756129622459,0.12739756703377
208,3816927588,0.002191,-0.697013,-0.058322,-0.714679,9.81928825378418,0.79355669021606,0.20173001289368,1.49284911155701,0.28746414184570,0.09050247818232
209,3816944255,0.002228,-0.697035,-0.058353,-0.714655,9.85768795013428,0.80835878849030,0.22423563897610,1.24641621112823,0.41057154536247,-0.02964029647410
210,3816960922,0.002234,-0.697065,-0.058342,-0.714627,9.83246421813965,0.79392808675766,0.22474873065948,1.03287065029144,0.34833270311356,0.02390945516527
211,3816977589,0.002177,-0.697074,-0.058246,-0.714626,9.78991794586182,0.78554934263229,0.22660635411739,0.41958722472191,0.57244384288788,0.11413018405437
212,3816994256,0.002076,-0.697050,-0.058165,-0.714656,9.80897998809814,0.80770170688629,0.20264144241810,0.13017654418945,0.85222411155701,-0.19349752366543
213,3817010923,0.001980,-0.697024,-0.058085,-0.714689,9.81587505340576,0.82202363014221,0.20344902575016,0.10433333367109,0.87379002571106,-0.16620719432831
214,3817027590,0.001887,-0.697011,-0.057971,-0.714711,9.81214046478271,0.81067967414856,0.22450715303421,-0.01166018098593,0.76040256023407,0.00861867330968
215,3817044257,0.001844,-0.697017,-0.057912,-0.714710,9.79011058807373,0.77545762062073,0.19584384560585,0.41541233658791,0.56627112627029,0.00686420314014
216,3817060924,0.001845,-0.697033,-0.057921,-0.714694,9.78460216522217,0.75912165641785,0.19668956100941,1.05334782600403,0.47045403718948,-0.10071553289890
217,3817077591,0.001893,-0.697040,-0.057977,-0.714682,9.78141975402832,0.78335297107697,0.18117421865463,1.48310339450836,0.55445092916489,-0.10234195739031
218,3817094258,0.001935,-0.697022,-0.058044,-0.714694,9.78264713287354,0.78964620828629,0.18993693590164,1.50095558166504,0.78620749711990,-0.19525203108788
219,3817110925,0.001929,-0.697009,-0.058084,-0.714704,9.78013420104980,0.79791790246964,0.18134631216526,1.13404071331024,0.72715735435486,-0.29218330979347
220,3817127592,0.001882,-0.697007,-0.058121,-0.714703,9.79691314697266,0.79397213459015,0.17796152830124,0.97661226987839,0.61695867776871,-0.48233196139336
221,3817144259,0.001849,-0.697028,-0.058125,-0.714682,9.79733943939209,0.79356324672699,0.19367736577988,0.80673593282700,0.40528252720833,-0.24390330910683
222,3817160926,0.001818,-0.697056,-0.058116,-0.714656,9.79314327239990,0.78697133064270,0.18239355087280,0.77715337276459,0.34862726926804,-0.16898620128632
223,3817177593,0.001766,-0.697081,-0.058082,-0.714633,9.76881408691406,0.80199307203293,0.17878532409668,0.61163121461868,0.37453451752663,-0.15004558861256
224,3817194260,0.001702,-0.697105,-0.058038,-0.714614,9.79963397979736,0.79899233579636,0.22473262250423,0.49997273087502,0.39289885759354,-0.16785924136639
225,3817210927,0.001690,-0.697168,-0.058002,-0.714556,9.80120372772217,0.78904366493225,0.25302025675774,0.67923593521118,0.02793064899743,0.07142100483179
226,3817227594,0.001680,-0.697221,-0.057990,-0.714505,9.78449344635010,0.77652430534363,0.19474107027054,0.87266314029694,0.11588466912508,-0.04117882251740
227,3817244261,0.001693,-0.697243,-0.058046,-0.714479,9.84265327453613,0.80331218242645,0.20005519688129,1.27864980697632,0.38557353615761,-0.26257497072220
228,3817260928,0.001712,-0.697256,-0.058121,-0.714460,9.83981037139893,0.82847601175308,0.19882959127426,1.42013442516327,0.48117291927338,-0.33166521787643
229,3817277595,0.001741,-0.697243,-0.058151,-0.714470,9.83690834045410,0.83730244636536,0.17545667290688,1.26852023601532,0.74279385805130,-0.07812514156103
230,3817294262,0.001776,-0.697215,-0.058162,-0.714496,9.82514572143555,0.81781804561615,0.20915588736534,1.12355220317841,0.89361423254013,0.03830379247665
231,3817310929,0.001821,-0.697211,-0.058144,-0.714502,9.78232479095459,0.80545556545258,0.20999172329903,1.02856767177582,0.68734240531921,0.23365186154842
232,3817327596,0.001814,-0.697191,-0.058118,-0.714523,9.79719543457031,0.81070590019226,0.20473383367062,0.68296259641647,0.80710732936859,0.01161535922438
233,3817344263,0.001769,-0.697150,-0.058067,-0.714568,9.78443717956543,0.79542523622513,0.21015115082264,0.39982706308365,1.01690113544464,-0.06305206567049
234,3817360930,0.001682,-0.697119,-0.058009,-0.714603,9.78766155242920,0.75847113132477,0.20471453666687,0.43298265337944,0.92712849378586,-0.23055909574032
235,3817377597,0.001627,-0.697095,-0.058001,-0.714627,9.79543018341064,0.74865496158600,0.21311123669147,0.73161393404007,0.83946901559830,-0.30826804041862
236,3817394264,0.001613,-0.697075,-0.058037,-0.714644,9.79382801055908,0.77687650918961,0.20417520403862,0.98816359043121,0.79038232564926,-0.31844910979271
237,3817410931,0.001602,-0.697069,-0.058067,-0.714647,9.77457141876221,0.79052937030792,0.19422748684883,1.03767287731171,0.65804153680801,-0.27188521623611
238,3817427598,0.001607,-0.697087,-0.058103,-0.714627,9.77853870391846,0.79513818025589,0.19231677055359,1.18831396102905,0.44781240820885,-0.21081171929836
239,3817444265,0.001625,-0.697105,-0.058155,-0.714605,9.77219486236572,0.79482698440552,0.18657700717449,1.28372144699097,0.42987075448036,-0.22500118613243
240,3817460932,0.001662,-0.697123,-0.058206,-0.714583,9.77826118469238,0.80594581365585,0.18082234263420,1.31015372276306,0.43209910392761,-0.12751923501492
241,3817477599,0.001678,-0.697149,-0.058234,-0.714556,9.77193450927734,0.81965398788452,0.18167707324028,1.24430334568024,0.38050225377083,-0.11527634412050
242,3817494266,0.001703,-0.697171,-0.058222,-0.714534,9.79244518280029,0.80923390388489,0.18550378084183,1.03755760192871,0.41883164644241,0.11731895804405
243,3817510933,0.001735,-0.697197,-0.058192,-0.714512,9.81161403656006,0.81396979093552,0.19822610914707,0.87763196229935,0.39556249976158,0.24209122359753
244,3817527600,0.001755,-0.697230,-0.058156,-0.714482,9.81787490844727,0.80159950256348,0.20447258651257,0.86698985099792,0.32020992040634,0.21505701541901
245,3817544267,0.001761,-0.697270,-0.058115,-0.714446,9.79318141937256,0.78293198347092,0.20861244201660,0.86958962678909,0.26413100957870,0.17574153840542
246,3817560934,0.001774,-0.697309,-0.058108,-0.714409,9.78510665893555,0.78869628906250,0.21658337116241,0.91539788246155,0.24967257678509,0.04301652684808
247,3817577601,0.001784,-0.697326,-0.058104,-0.714393,9.78670120239258,0.79521709680557,0.21672284603119,1.02265119552612,0.47014668583870,0.00417487043887
248,3817594268,0.001788,-0.697333,-0.058102,-0.714386,9.79354190826416,0.77732181549072,0.22156855463982,0.88929849863052,0.55190247297287,-0.03293152898550
249,3817610935,0.001794,-0.697356,-0.058107,-0.714363,9.83322620391846,0.75517308712006,0.18694524466991,0.99985569715500,0.39763715863228,-0.05497125536203
250,3817627602,0.001852,-0.697362,-0.058191,-0.714351,9.79088497161865,0.81277656555176,0.18900045752525,1.58583593368530,0.54967415332794,-0.18887443840504
251,3817644269,0.001870,-0.697387,-0.058229,-0.714323,9.75363254547119,0.84073913097382,0.20330953598022,1.23854041099548,0.36946314573288,-0.15737082064152
252,3817660936,0.001891,-0.697429,-0.058257,-0.714280,9.78166198730469,0.80673170089722,0.16955871880054,1.27889323234558,0.22632661461830,-0.08062237501144
253,3817677603,0.001932,-0.697462,-0.058300,-0.714244,9.83895874023438,0.79068309068680,0.18823865056038,1.42316961288452,0.30920931696892,-0.06221965700388
254,3817694270,0.002011,-0.697516,-0.058366,-0.714186,9.84909629821777,0.76972866058350,0.20112186670303,1.64656364917755,0.10665127635002,0.02146344073117
255,3817710937,0.002047,-0.697559,-0.058377,-0.714142,9.80236434936523,0.79280400276184,0.20633684098721,1.24490535259247,0.22096076607704,0.07335477322340
256,3817727604,0.002000,-0.697562,-0.058337,-0.714143,9.80034255981445,0.83773368597031,0.17098920047283,0.58072954416275,0.59458595514297,-0.11126796156168
257,3817744271,0.001921,-0.697564,-0.058267,-0.714147,9.80164051055908,0.86041402816772,0.20699803531170,0.19925399124622,0.59678876399994,-0.11996348202229
258,3817760938,0.001804,-0.697560,-0.058111,-0.714163,9.79242515563965,0.83286321163177,0.19467446208000,-0.29532083868980,0.68170762062073,0.10480716824532
259,3817777605,0.001678,-0.697572,-0.057968,-0.714164,9.78345489501953,0.77585458755493,0.16875764727592,-0.29406583309174,0.52462494373322,0.00409803213552
260,3817794272,0.001608,-0.697606,-0.057909,-0.714136,9.81030178070068,0.74062895774841,0.19313307106495,0.28594017028809,0.28938505053520,-0.11714608222246
261,3817810939,0.001590,-0.697619,-0.057948,-0.714120,9.79440402984619,0.72976320981979,0.17066635191441,1.08019006252289,0.46854597330093,-0.34530404210091
262,3817827606,0.001589,-0.697611,-0.058024,-0.714121,9.77711772918701,0.74876743555069,0.19095730781555,1.39280581474304,0.67685401439667,-0.43953317403793
263,3817844273,0.001591,-0.697608,-0.058128,-0.714116,9.77406978607178,0.78870260715485,0.19715878367424,1.51907658576965,0.61438471078873,-0.56005370616913
264,3817860940,0.001581,-0.697617,-0.058251,-0.714098,9.78398323059082,0.80713534355164,0.15000227093697,1.48192512989044,0.48141628503799,-0.70901715755463
265,3817877607,0.001554,-0.697637,-0.058336,-0.714071,9.81472778320312,0.82144743204117,0.16741047799587,1.24541759490967,0.38338369131088,-0.60126453638077
266,3817894274,0.001539,-0.697674,-0.058370,-0.714032,9.82706832885742,0.81061583757401,0.14796516299248,1.08748960494995,0.24770040810108,-0.29341268539429
267,3817910941,0.001540,-0.697712,-0.058378,-0.713994,9.81069374084473,0.77945113182068,0.16737185418606,0.87302160263062,0.24411459267139,-0.08491250127554
268,3817927608,0.001547,-0.697739,-0.058367,-0.713969,9.78282260894775,0.82777398824692,0.15698477625847,0.73080712556839,0.35207214951515,0.02930093184114
269,3817944275,0.001491,-0.697787,-0.058291,-0.713929,9.79463768005371,0.83258754014969,0.20701591670513,0.28412166237831,0.17013233900070,0.03739453852177
270,3817960942,0.001419,-0.697834,-0.058206,-0.713889,9.78710651397705,0.79746919870377,0.20845355093479,0.20876911282539,0.17270642518997,0.00544269802049
271,3817977609,0.001364,-0.697848,-0.058177,-0.713878,9.80723667144775,0.77629053592682,0.18489368259907,0.52283203601837,0.47784334421158,-0.19731386005878
272,3817994276,0.001383,-0.697846,-0.058232,-0.713876,9.83643913269043,0.78889715671539,0.16396178305149,1.37401902675629,0.62990593910217,-0.24351917207241
273,3818010943,0.001470,-0.697829,-0.058326,-0.713884,9.83292198181152,0.82149606943130,0.18078882992268,1.75210058689117,0.77059650421143,-0.09716816991568
274,3818027610,0.001573,-0.697790,-0.058399,-0.713917,9.82933902740479,0.86048412322998,0.18540666997433,1.70606184005737,1.00563144683838,0.06295601278543
275,3818044277,0.001648,-0.697757,-0.058428,-0.713946,9.80858898162842,0.86204433441162,0.21048720180988,1.34470522403717,0.94148451089859,0.14731143414974
276,3818060944,0.001670,-0.697729,-0.058391,-0.713976,9.77979660034180,0.83205568790436,0.18395763635635,0.84550088644028,0.91039061546326,0.20467108488083
277,3818077611,0.001642,-0.697687,-0.058303,-0.714025,9.77153205871582,0.79989910125732,0.19648686051369,0.37974664568901,1.05881619453430,0.20008638501167
278,3818094278,0.001598,-0.697622,-0.058203,-0.714096,9.77533912658691,0.77693349123001,0.18437232077122,0.16953046619892,1.25841605663300,0.16512510180473
279,3818110945,0.001555,-0.697565,-0.058127,-0.714158,9.79072856903076,0.76420795917511,0.17800401151180,0.30890196561813,1.18070721626282,0.06071490794420
280,3818127612,0.001530,-0.697507,-0.058090,-0.714218,9.80502700805664,0.75550669431686,0.17068836092949,0.69190150499344,1.18889033794403,-0.03920663893223
281,3818144279,0.001553,-0.697482,-0.058104,-0.714241,9.79214859008789,0.77155435085297,0.14025494456291,1.08367335796356,0.85944688320160,-0.03067760914564
282,3818160946,0.001608,-0.697478,-0.058158,-0.714241,9.79111385345459,0.78575170040131,0.18668860197067,1.47007930278778,0.66342014074326,-0.05919735878706
283,3818177613,0.001674,-0.697499,-0.058214,-0.714215,9.80281257629395,0.79351395368576,0.17135973274708,1.55239844322205,0.41943350434303,-0.00744689209387
284,3818194280,0.001751,-0.697518,-0.058282,-0.714191,9.79636669158936,0.78474223613739,0.17458017170429,1.58506751060486,0.44073054194450,-0.01341465115547
285,3818210947,0.001816,-0.697537,-0.058336,-0.714168,9.79900264739990,0.79493188858032,0.18373249471188,1.48207879066467,0.43070313334465,-0.00296466983855
286,3818227614,0.001864,-0.697560,-0.058337,-0.714146,9.80721473693848,0.80755400657654,0.19198989868164,1.19955801963806,0.42907673120499,0.17056778073311
287,3818244281,0.001884,-0.697569,-0.058322,-0.714137,9.78995037078857,0.80528491735458,0.18096780776978,0.86976885795593,0.53317958116531,0.10327039659023
288,3818260948,0.001879,-0.697553,-0.058283,-0.714156,9.79781436920166,0.80239093303680,0.20248608291149,0.69704961776733,0.78647643327713,0.08499574661255
289,3818277615,0.001852,-0.697536,-0.058263,-0.714175,9.79790210723877,0.78635042905807,0.18225200474262,0.67442077398300,0.78619462251663,-0.11494338512421
290,3818294282,0.001854,-0.697537,-0.058274,-0.714173,9.79548931121826,0.78395825624466,0.20355598628521,0.97469127178192,0.60004150867462,-0.11144725233316
291,3818310949,0.001883,-0.697549,-0.058304,-0.714158,9.80171966552734,0.77244311571121,0.19388791918755,1.21831929683685,0.50234192609787,-0.06599752604961
292,3818327616,0.001917,-0.697549,-0.058343,-0.714156,9.80358028411865,0.80088037252426,0.18073536455631,1.34822690486908,0.63148117065430,-0.08971488475800
293,3818344283,0.001936,-0.697545,-0.058377,-0.714156,9.79538249969482,0.78926861286163,0.19005848467350,1.38271439075470,0.66069245338440,-0.14407783746719
294,3818360950,0.001918,-0.697521,-0.058390,-0.714179,9.78781890869141,0.81564110517502,0.20474724471569,0.99492537975311,0.84785729646683,-0.22829240560532
295,3818377617,0.001867,-0.697517,-0.058366,-0.714185,9.81827259063721,0.79313325881958,0.18931023776531,0.60141175985336,0.65119004249573,-0.21200270950794
296,3818394284,0.001863,-0.697516,-0.058365,-0.714186,9.83236885070801,0.80247187614441,0.17596417665482,0.87522435188293,0.63045656681061,-0.08172370493412
297,3818410951,0.001862,-0.697511,-0.058362,-0.714191,9.75989055633545,0.84044528007507,0.19600275158882,0.92059725522995,0.66682660579681,-0.06547246128321
298,3818427618,0.001868,-0.697512,-0.058326,-0.714193,9.75787734985352,0.80655276775360,0.20947860181332,0.82379400730133,0.63242870569229,0.13540151715279
299,3818444285,0.001904,-0.697492,-0.058335,-0.714211,9.81946086883545,0.77505505084991,0.18831810355186,1.15515828132629,0.81648164987564,0.05625829473138
300,3818460952,0.001952,-0.697474,-0.058363,-0.714227,9.87012767791748,0.79919433593750,0.20698121190071,1.32234537601471,0.80496877431870,0.02250075526536
301,3818477619,0.002001,-0.697467,-0.058397,-0.714231,9.83176040649414,0.78306531906128,0.24134324491024,1.30687522888184,0.68866145610809,0.00242040026933
302,3818494286,0.001982,-0.697438,-0.058351,-0.714263,9.78604888916016,0.79804813861847,0.20173963904381,0.65302139520645,0.91616624593735,0.04539850726724
303,3818510953,0.001903,-0.697396,-0.058271,-0.714310,9.80010128021240,0.83661276102066,0.18605601787567,0.24346150457859,1.03062939643860,-0.08898492157459
304,3818527620,0.001813,-0.697340,-0.058143,-0.714376,9.79665374755859,0.84273856878281,0.19021241366863,-0.14598599076271,1.18056619167328,0.07691495120525
305,3818544287,0.001707,-0.697288,-0.057977,-0.714440,9.77133560180664,0.79496437311172,0.15708756446838,-0.48046225309372,1.13304185867310,0.18456512689590
306,3818560954,0.001626,-0.697277,-0.057874,-0.714459,9.76879310607910,0.73874789476395,0.18595205247402,0.02805871143937,0.73283058404922,0.02428083866835
307,3818577621,0.001615,-0.697282,-0.057870,-0.714456,9.78060913085938,0.73318487405777,0.19206747412682,0.85276198387146,0.57515883445740,-0.10425009578466
308,3818594288,0.001638,-0.697267,-0.057913,-0.714466,9.77201175689697,0.76171964406967,0.18543314933777,1.35867679119110,0.75713700056076,-0.17004911601543
309,3818610955,0.001691,-0.697242,-0.058007,-0.714483,9.78061294555664,0.77609890699387,0.19142603874207,1.59313571453094,0.83820122480392,-0.27100157737732
310,3818627622,0.001726,-0.697226,-0.058110,-0.714490,9.78783226013184,0.78172314167023,0.17686772346497,1.58271133899689,0.74707126617432,-0.40244600176811
311,3818644289,0.001740,-0.697226,-0.058183,-0.714484,9.81380271911621,0.80241757631302,0.21387326717377,1.44857764244080,0.60471588373184,-0.34967097640038
312,3818660956,0.001746,-0.697253,-0.058224,-0.714455,9.82743072509766,0.80258333683014,0.19048501551151,1.15145730972290,0.34815341234207,-0.22518044710159
313,3818677623,0.001721,-0.697287,-0.058218,-0.714422,9.82534122467041,0.81232136487961,0.18934014439583,0.80078107118607,0.28664454817772,-0.14877776801586
314,3818694290,0.001692,-0.697305,-0.058180,-0.714407,9.79037189483643,0.81123399734497,0.20814241468906,0.54400086402893,0.43982127308846,-0.02651554718614
315,3818710957,0.001619,-0.697327,-0.058096,-0.714393,9.80197334289551,0.81416290998459,0.20583575963974,0.29526317119598,0.42340350151062,-0.01560453604907
316,3818727624,0.001612,-0.697363,-0.058057,-0.714361,9.79200935363770,0.80875927209854,0.21738691627979,0.58791393041611,0.27682206034660,0.09258991479874
317,3818744291,0.001578,-0.697370,-0.058023,-0.714357,9.77874279022217,0.76256734132767,0.20932738482952,0.69649887084961,0.56277501583099,-0.06642013043165
318,3818760958,0.001582,-0.697344,-0.058077,-0.714378,9.83989906311035,0.78266346454620,0.19549934566021,1.24421370029449,0.84894579648972,-0.32017794251442
319,3818777625,0.001617,-0.697299,-0.058144,-0.714416,9.84994316101074,0.84046709537506,0.18992738425732,1.42923998832703,1.03895366191864,-0.23806366324425
320,3818794292,0.001672,-0.697242,-0.058164,-0.714470,9.83751964569092,0.84429997205734,0.19804720580578,1.30083072185516,1.18664920330048,0.07827241718769
321,3818810959,0.001716,-0.697208,-0.058150,-0.714505,9.79584217071533,0.82100206613541,0.20197992026806,1.13612806797028,0.97535723447800,0.20184087753296
322,3818827626,0.001750,-0.697195,-0.058094,-0.714522,9.76484489440918,0.82646763324738,0.20852264761925,0.86978167295456,0.78642505407333,0.35747644305229
323,3818844293,0.001742,-0.697157,-0.058025,-0.714564,9.76524829864502,0.80062049627304,0.23251701891422,0.47565340995789,0.99771702289581,0.20298063755035
324,3818860960,0.001697,-0.697111,-0.057949,-0.714615,9.76134872436523,0.78610599040985,0.18927931785583,0.30415078997612,1.07239079475403,0.05825608596206
325,3818877627,0.001659,-0.697062,-0.057872,-0.714670,9.76542949676514,0.76558578014374,0.19138450920582,0.38675177097321,1.11483120918274,0.09379370510578
326,3818894294,0.001643,-0.697013,-0.057843,-0.714720,9.78550434112549,0.75165283679962,0.19558665156364,0.71271181106567,1.08967947959900,-0.02981958165765
327,3818910961,0.001647,-0.696978,-0.057851,-0.714753,9.80672454833984,0.76674193143845,0.16866764426231,0.99133956432343,0.95500785112381,-0.10144549608231
328,3818927628,0.001671,-0.696964,-0.057867,-0.714766,9.79470920562744,0.77259314060211,0.15801002085209,1.20783078670502,0.76447504758835,-0.03477564081550
329,3818944295,0.001716,-0.696967,-0.057897,-0.714760,9.80744075775146,0.79746067523956,0.18392722308636,1.32006561756134,0.59553372859955,0.00381629238836
330,3818960962,0.001778,-0.696982,-0.057928,-0.714743,9.78596591949463,0.80220037698746,0.21946313977242,1.30309736728668,0.48670530319214,0.09524082392454
331,3818977629,0.001823,-0.696989,-0.057931,-0.714736,9.79788589477539,0.80703836679459,0.18446688354015,1.14459323883057,0.56255733966827,0.13948675990105
332,3818994296,0.001862,-0.697000,-0.057907,-0.714727,9.79113388061523,0.80939656496048,0.21682003140450,1.02385473251343,0.54248976707458,0.23928663134575
333,3819010963,0.001859,-0.696986,-0.057848,-0.714745,9.80038070678711,0.78837829828262,0.20546819269657,0.69181180000305,0.78300577402115,0.18958517909050
334,3819027630,0.001841,-0.696960,-0.057791,-0.714776,9.80531883239746,0.78036361932755,0.19829279184341,0.65633815526962,0.89563757181168,0.10666408389807
335,3819044297,0.001842,-0.696940,-0.057761,-0.714797,9.81526947021484,0.78733855485916,0.18948324024677,0.84242737293243,0.82809698581696,0.07055018097162
336,3819060964,0.001848,-0.696929,-0.057747,-0.714809,9.80157566070557,0.78605771064758,0.21539051830769,1.00552904605865,0.74212801456451,0.02504922263324
337,3819077631,0.001903,-0.696917,-0.057763,-0.714819,9.78996181488037,0.79097181558609,0.20241899788380,1.21009767055511,0.74479162693024,0.11500103026628
338,3819094298,0.001940,-0.696907,-0.057769,-0.714828,9.78716278076172,0.79327535629272,0.21850451827049,1.24664700031281,0.73718470335007,0.08301075547934
339,3819110965,0.001956,-0.696889,-0.057758,-0.714846,9.80912208557129,0.79380172491074,0.20737095177174,0.90980148315430,0.79559445381165,0.05182730033994
340,3819127632,0.001943,-0.696865,-0.057718,-0.714874,9.80000972747803,0.79324090480804,0.22366300225258,0.71240437030792,0.87206119298935,0.04870254918933
341,3819144299,0.001903,-0.696852,-0.057658,-0.714891,9.76552486419678,0.79151487350464,0.23660604655743,0.48343968391418,0.75508791208267,0.01456082146615
342,3819160966,0.001871,-0.696867,-0.057591,-0.714882,9.80898952484131,0.75713670253754,0.20955501496792,0.39023506641388,0.48355492949486,0.10032494366169
343,3819177633,0.001868,-0.696876,-0.057562,-0.714876,9.77974700927734,0.78553342819214,0.18407592177391,0.89630365371704,0.55726832151413,0.05783348158002
344,3819194300,0.001870,-0.696858,-0.057550,-0.714895,9.72771739959717,0.81439101696014,0.19514881074429,0.99282509088516,0.80886185169220,-0.00630712695420
345,3819210967,0.001907,-0.696859,-0.057586,-0.714890,9.76485443115234,0.76977872848511,0.20717380940914,1.32522666454315,0.61225873231888,-0.06161775067449
346,3819227634,0.001998,-0.696868,-0.057661,-0.714876,9.83205413818359,0.77370047569275,0.18646797537804,1.78605031967163,0.54361671209335,0.02589443884790
347,3819244301,0.002074,-0.696898,-0.057718,-0.714841,9.85907936096191,0.79715847969055,0.21008160710335,1.59563279151917,0.33687102794647,0.03836782276630
348,3819260968,0.002106,-0.696920,-0.057706,-0.714820,9.84843444824219,0.79337841272354,0.23913787305355,1.08844995498657,0.42823150753975,0.15188331902027
349,3819277635,0.002064,-0.696930,-0.057611,-0.714819,9.79624366760254,0.80422824621201,0.21078523993492,0.29272753000259,0.55277323722839,0.18488526344299
350,3819294302,0.001987,-0.696918,-0.057480,-0.714841,9.76331424713135,0.82177311182022,0.23310077190399,0.04155660420656,0.76781755685806,0.17246311903000
351,3819310969,0.001895,-0.696898,-0.057333,-0.714873,9.75301551818848,0.82234770059586,0.22699840366840,-0.27716141939163,0.83182358741760,0.17586959898472
352,3819327636,0.001792,-0.696877,-0.057166,-0.714906,9.75061893463135,0.76359635591507,0.17578692734241,-0.26869642734528,0.85043126344681,0.21464721858501
353,3819344303,0.001729,-0.696866,-0.057121,-0.714921,9.74055767059326,0.70587736368179,0.21002040803432,0.40742120146751,0.72487777471542,-0.16441430151463
354,3819360970,0.001715,-0.696854,-0.057186,-0.714927,9.76561450958252,0.70678937435150,0.21134440600872,1.29878163337708,0.70788377523422,-0.46001052856445
355,3819377637,0.001741,-0.696830,-0.057321,-0.714940,9.78330612182617,0.75887650251389,0.16652397811413,1.75718474388123,0.81301116943359,-0.59655183553696
356,3819394304,0.001755,-0.696810,-0.057409,-0.714952,9.78896808624268,0.77415961027145,0.18769976496696,1.47716140747070,0.78225034475327,-0.42830199003220
357,3819410971,0.001741,-0.696819,-0.057504,-0.714937,9.80001544952393,0.78327870368958,0.15211832523346,1.35765254497528,0.50083076953888,-0.59313249588013
358,3819427638,0.001711,-0.696874,-0.057556,-0.714879,9.79444980621338,0.80973696708679,0.19830223917961,1.11913394927979,0.06513308733702,-0.44486054778099
359,3819444305,0.001651,-0.696939,-0.057553,-0.714816,9.81800174713135,0.81133413314819,0.16174112260342,0.67921036481857,-0.02250715717673,-0.32097193598747
360,3819460972,0.001559,-0.697003,-0.057497,-0.714758,9.77961444854736,0.78487378358841,0.20536012947559,0.28997418284416,-0.00519297504798,-0.22920161485672
361,3819477639,0.001459,-0.697049,-0.057414,-0.714720,9.75715541839600,0.79822736978531,0.22108113765717,0.16215397417545,0.18418091535568,-0.14523041248322
362,3819494306,0.001390,-0.697110,-0.057350,-0.714666,9.77618885040283,0.77127707004547,0.23814322054386,0.30327996611595,0.02971072867513,-0.08081446588039
363,3819510973,0.001328,-0.697174,-0.057323,-0.714605,9.77793025970459,0.75234818458557,0.22013343870640,0.54735618829727,-0.00785669405013,-0.21861076354980
364,3819527640,0.001273,-0.697192,-0.057368,-0.714584,9.80416488647461,0.77814710140228,0.20640122890472,1.01765656471252,0.41966411471367,-0.54564660787582
365,3819544307,0.001250,-0.697176,-0.057467,-0.714592,9.84149551391602,0.82211434841156,0.21303711831570,1.29674541950226,0.72401988506317,-0.66977852582932
366,3819560974,0.001265,-0.697150,-0.057528,-0.714612,9.85972404479980,0.84301316738129,0.17052856087685,1.32955515384674,0.85559219121933,-0.29365599155426
367,3819577641,0.001289,-0.697118,-0.057553,-0.714641,9.84441471099854,0.84913474321365,0.20232251286507,1.18557345867157,0.92807620763779,-0.08652610331774
368,3819594308,0.001337,-0.697113,-0.057559,-0.714646,9.80440998077393,0.83042758703232,0.23879499733448,1.08861660957336,0.67452335357666,0.13600343465805
369,3819610975,0.001366,-0.697122,-0.057517,-0.714641,9.77334594726562,0.81252080202103,0.22308611869812,0.79241847991943,0.55922764539719,0.27656590938568
370,3819627642,0.001334,-0.697112,-0.057437,-0.714657,9.75037097930908,0.78528136014938,0.21737782657146,0.41523304581642,0.74025821685791,0.15029530227184
371,3819644309,0.001285,-0.697078,-0.057355,-0.714697,9.76881599426270,0.76792824268341,0.18645775318146,0.37032121419907,0.96388268470764,0.07092156261206
372,3819660976,0.001252,-0.697046,-0.057303,-0.714732,9.78260421752930,0.76174235343933,0.19673731923103,0.52011704444885,0.93560624122620,0.00259968894534
373,3819677643,0.001239,-0.697032,-0.057275,-0.714748,9.79386520385742,0.76052230596542,0.18895174562931,0.77206915616989,0.76242607831955,-0.00544910132885
374,3819694310,0.001240,-0.697026,-0.057296,-0.714752,9.79632949829102,0.76295518875122,0.19127191603184,1.08554315567017,0.67034834623337,-0.16759029030800
375,3819710977,0.001273,-0.697057,-0.057347,-0.714717,9.80146312713623,0.76845282316208,0.20779997110367,1.48192512989044,0.32323226332664,-0.14065852761269
376,3819727644,0.001356,-0.697103,-0.057439,-0.714665,9.79675388336182,0.76854622364044,0.19834661483765,1.78287446498871,0.17378216981888,-0.08238965272903
377,3819744311,0.001443,-0.697151,-0.057522,-0.714611,9.79492950439453,0.78662490844727,0.21192185580730,1.83303666114807,0.16483050584793,-0.02266083285213
378,3819760978,0.001521,-0.697189,-0.057576,-0.714570,9.79113006591797,0.80988526344299,0.22447061538696,1.57858741283417,0.26511704921722,0.07307302951813
379,3819777645,0.001540,-0.697210,-0.057562,-0.714551,9.78161334991455,0.80444449186325,0.23282296955585,0.96630305051804,0.43618425726891,0.09876257181168
380,3819794312,0.001496,-0.697225,-0.057510,-0.714540,9.78071308135986,0.80691796541214,0.23219236731529,0.50692653656006,0.47712612152100,-0.03419935330749
381,3819810979,0.001432,-0.697225,-0.057456,-0.714545,9.80438327789307,0.78504186868668,0.23378024995327,0.37740311026573,0.61975044012070,-0.12126973271370
382,3819827646,0.001407,-0.697240,-0.057444,-0.714531,9.80358409881592,0.77044111490250,0.20105053484440,0.75917333364487,0.46940395236015,-0.12960667908192
383,3819844313,0.001423,-0.697277,-0.057473,-0.714492,9.79744148254395,0.76940071582794,0.20936967432499,1.26584362983704,0.26835703849792,-0.11829864978790
384,3819860980,0.001473,-0.697313,-0.057537,-0.714452,9.80295467376709,0.80105131864548,0.19017377495766,1.44611847400665,0.26040425896645,-0.11829863488674
385,3819877647,0.001495,-0.697346,-0.057595,-0.714415,9.81008148193359,0.79633432626724,0.18901348114014,1.41233551502228,0.29910507798195,-0.22870218753815
386,3819894314,0.001525,-0.697374,-0.057647,-0.714384,9.79205131530762,0.80345821380615,0.21294018626213,1.27880370616913,0.33414328098297,-0.15751169621944
387,3819910981,0.001490,-0.697390,-0.057641,-0.714369,9.78331756591797,0.81273472309113,0.22241570055485,0.79403209686279,0.46236044168472,-0.20951826870441
388,3819927648,0.001451,-0.697434,-0.057618,-0.714327,9.81298732757568,0.78777778148651,0.19292186200619,0.51505851745605,0.17478105425835,-0.13323086500168
389,3819944315,0.001453,-0.697471,-0.057613,-0.714292,9.81976604461670,0.78029620647430,0.18995945155621,0.86933350563049,0.26027625799179,-0.01975379697978
390,3819960982,0.001461,-0.697493,-0.057615,-0.714271,9.75739765167236,0.80288308858871,0.20647080242634,0.93289124965668,0.41356825828552,-0.03781074658036
391,3819977649,0.001497,-0.697536,-0.057609,-0.714229,9.76659679412842,0.78530699014664,0.18910486996174,1.06356728076935,0.21801529824734,0.15569959580898
392,3819994316,0.001534,-0.697560,-0.057659,-0.714201,9.82926464080811,0.77454459667206,0.18300437927246,1.49072301387787,0.39512711763382,-0.11598069220781
393,3820010983,0.001568,-0.697588,-0.057729,-0.714168,9.86559486389160,0.79428982734680,0.20677876472473,1.51129019260406,0.33997017145157,-0.22857412695885
394,3820027650,0.001597,-0.697624,-0.057762,-0.714130,9.84536361694336,0.80396175384521,0.24124521017075,1.16742694377899,0.26187705993652,-0.07195249199867
395,3820044317,0.001554,-0.697632,-0.057712,-0.714126,9.81201457977295,0.80309814214706,0.20621484518051,0.43316194415092,0.53956991434097,-0.03973169624805
396,3820060984,0.001460,-0.697610,-0.057646,-0.714154,9.81812572479248,0.82196176052094,0.21506130695343,0.12790982425213,0.82143765687943,-0.22807464003563
397,3820077651,0.001359,-0.697589,-0.057555,-0.714181,9.79123783111572,0.81069040298462,0.19841516017914,-0.00074917147867,0.81292146444321,-0.13283386826515
398,3820094318,0.001261,-0.697570,-0.057436,-0.714210,9.78246307373047,0.80435675382614,0.16568209230900,-0.19035997986794,0.81123095750809,0.01107749249786
399,3820110985,0.001181,-0.697575,-0.057372,-0.714211,9.78389167785645,0.76641696691513,0.17294180393219,0.26067322492599,0.56849944591522,-0.15414361655712
400,3820127652,0.001150,-0.697597,-0.057383,-0.714188,9.77050590515137,0.74801969528198,0.17768947780132,0.90097784996033,0.39580583572388,-0.27146258950233
401,3820144319,0.001176,-0.697601,-0.057464,-0.714178,9.78815364837646,0.76621246337891,0.18755066394806,1.48779058456421,0.56022655963898,-0.32555663585663
402,3820160986,0.001227,-0.697593,-0.057569,-0.714177,9.79498100280762,0.76745349168777,0.15767461061478,1.69508683681488,0.67061728239059,-0.32991075515747
403,3820177653,0.001268,-0.697608,-0.057671,-0.714154,9.76570701599121,0.79281729459763,0.17126666009426,1.68860673904419,0.45682802796364,-0.34622606635094
404,3820194320,0.001297,-0.697634,-0.057766,-0.714120,9.81775665283203,0.80795240402222,0.18763379752636,1.42502665519714,0.32617774605751,-0.37434884905815
405,3820210987,0.001306,-0.697680,-0.057804,-0.714073,9.82087993621826,0.81070560216904,0.19980663061142,1.14591217041016,0.17101597785950,-0.19558496773243
406,3820227654,0.001293,-0.697721,-0.057783,-0.714034,9.79053974151611,0.80266541242599,0.19517867267132,0.69950836896896,0.22042287886143,-0.01418303139508
407,3820244321,0.001273,-0.697738,-0.057746,-0.714021,9.78927707672119,0.82464122772217,0.18023727834225,0.59724968671799,0.45630297064781,0.00997614581138
408,3820260988,0.001198,-0.697766,-0.057680,-0.713999,9.81041717529297,0.82018202543259,0.23764245212078,0.29528886079788,0.34992071986198,-0.10600457340479
409,3820277655,0.001177,-0.697810,-0.057617,-0.713961,9.79619407653809,0.77392005920410,0.21160081028938,0.55404108762741,0.21317449212074,0.14673514664173
410,3820294322,0.001156,-0.697834,-0.057593,-0.713939,9.77024841308594,0.76542639732361,0.19933064281940,0.72567182779312,0.38915932178497,-0.05214105173945
411,3820310989,0.001163,-0.697841,-0.057662,-0.713927,9.80174541473389,0.79381883144379,0.18792559206486,1.31117820739746,0.53090006113052,-0.36046671867371
412,3820327656,0.001203,-0.697828,-0.057751,-0.713932,9.82877826690674,0.81575596332550,0.17713426053524,1.53742790222168,0.71349304914474,-0.30788388848305
413,3820344323,0.001248,-0.697788,-0.057798,-0.713968,9.82974910736084,0.84138727188110,0.17020653188229,1.33802032470703,1.00540101528168,-0.09340310841799
414,3820360990,0.001323,-0.697751,-0.057836,-0.714001,9.81293773651123,0.83699476718903,0.18823482096195,1.41615188121796,0.98444980382919,0.10321918874979
415,3820377657,0.001368,-0.697748,-0.057824,-0.714004,9.79457092285156,0.82772731781006,0.20106740295887,1.07962656021118,0.66276705265045,0.20729640126228
416,3820394324,0.001370,-0.697746,-0.057767,-0.714011,9.78354549407959,0.81544947624207,0.19201207160950,0.63940823078156,0.66026973724365,0.21129195392132
417,3820410991,0.001347,-0.697713,-0.057702,-0.714049,9.78363609313965,0.78663289546967,0.18395143747330,0.39327022433281,0.94837433099747,0.11420703679323
418,3820427658,0.001296,-0.697699,-0.057626,-0.714068,9.78170299530029,0.75421136617661,0.18637046217918,0.28658050298691,0.75470376014709,0.03806046769023
419,3820444325,0.001277,-0.697686,-0.057618,-0.714082,9.77775955200195,0.74595195055008,0.17897467315197,0.68013244867325,0.73083269596100,-0.13323086500168
420,3820460992,0.001287,-0.697678,-0.057650,-0.714087,9.78744125366211,0.74856424331665,0.20137250423431,1.08368611335754,0.68109285831451,-0.17731031775475
421,3820477659,0.001336,-0.697689,-0.057707,-0.714072,9.79408550262451,0.77897107601166,0.18270260095596,1.37743818759918,0.50522327423096,-0.09848722815514
422,3820494326,0.001402,-0.697713,-0.057787,-0.714041,9.80393695831299,0.80620622634888,0.20022749900818,1.64447593688965,0.37933683395386,-0.12484268099070
423,3820510993,0.001470,-0.697744,-0.057856,-0.714005,9.79953861236572,0.81419837474823,0.17763248085976,1.54147469997406,0.31252613663673,-0.05348572507501
424,3820527660,0.001492,-0.697771,-0.057882,-0.713977,9.79056453704834,0.81320154666901,0.20033988356590,1.17489302158356,0.36029383540154,-0.07639627158642
425,3820544327,0.001458,-0.697782,-0.057852,-0.713969,9.79835700988770,0.81161212921143,0.18174336850643,0.66642963886261,0.51884925365448,-0.08614189922810
426,3820560994,0.001401,-0.697784,-0.057794,-0.713971,9.80011653900146,0.80541908740997,0.18918137252331,0.27729588747025,0.58320116996765,-0.07155548036098
427,3820577661,0.001337,-0.697768,-0.057735,-0.713992,9.82037639617920,0.78637582063675,0.19385188817978,0.30370256304741,0.77474570274353,-0.10784866660833
428,3820594328,0.001314,-0.697766,-0.057719,-0.713996,9.80651569366455,0.76890325546265,0.19231738150120,0.77470731735229,0.63615548610687,-0.11007698625326
429,3820610995,0.001319,-0.697764,-0.057757,-0.713994,9.80466556549072,0.76197797060013,0.17181555926800,1.15246891975403,0.62532120943069,-0.22469380497932
430,3820627662,0.001350,-0.697755,-0.057833,-0.713997,9.78708744049072,0.79161572456360,0.19560277462006,1.41068339347839,0.67804497480392,-0.29109475016594
431,3820644329,0.001369,-0.697752,-0.057896,-0.713995,9.80076026916504,0.80998283624649,0.19731943309307,1.35027575492859,0.63691097497940,-0.28137469291687
432,3820660996,0.001382,-0.697747,-0.057924,-0.713997,9.78594970703125,0.79227882623672,0.18470036983490,1.13397669792175,0.65446847677231,-0.13794361054897
433,3820677663,0.001375,-0.697745,-0.057937,-0.713998,9.77717018127441,0.81607621908188,0.18942947685719,1.00581073760986,0.63834530115128,-0.17189323902130
434,3820694330,0.001382,-0.697734,-0.057937,-0.714009,9.79694366455078,0.80375009775162,0.14250147342682,0.98156821727753,0.72085654735565,-0.03939873352647
435,3820710997,0.001403,-0.697735,-0.057934,-0.714008,9.77885437011719,0.79754614830017,0.19961728155613,1.06026327610016,0.62626892328262,0.04705052077770
436,3820727664,0.001428,-0.697752,-0.057914,-0.713993,9.78278923034668,0.78512221574783,0.18539132177830,0.94629955291748,0.46894291043282,0.15736441314220
437,3820744331,0.001444,-0.697779,-0.057893,-0.713969,9.82587051391602,0.77486354112625,0.15196251869202,0.87166416645050,0.37531563639641,0.11921431124210
438,3820760998,0.001494,-0.697807,-0.057908,-0.713940,9.83226490020752,0.78707164525986,0.17728529870510,1.38389265537262,0.36923265457153,0.11073650419712
439,3820777665,0.001575,-0.697835,-0.057913,-0.713911,9.77594470977783,0.81998062133789,0.20567162334919,1.39230632781982,0.37799221277237,0.31814813613892
440,3820794332,0.001707,-0.697866,-0.057933,-0.713879,9.77647781372070,0.81568908691406,0.17685194313526,1.51572096347809,0.35094517469406,0.49420982599258
441,3820810999,0.001833,-0.697871,-0.057981,-0.713871,9.85537624359131,0.81252825260162,0.17715270817280,1.73189222812653,0.60118126869202,0.31955683231354
442,3820827666,0.001961,-0.697862,-0.058039,-0.713874,9.86766433715820,0.80602157115936,0.21319283545017,1.79898476600647,0.72998744249344,0.27327468991280
443,3820844333,0.002084,-0.697838,-0.058022,-0.713899,9.78153038024902,0.81222569942474,0.21304377913475,1.44065034389496,0.90338546037674,0.60630381107330
444,3820861000,0.002125,-0.697786,-0.057944,-0.713955,9.78762817382812,0.82831251621246,0.20359607040882,0.76763826608658,1.16199696063995,0.48114740848541
445,3820877667,0.002126,-0.697712,-0.057814,-0.714039,9.79809474945068,0.83314025402069,0.17153616249561,0.40704983472824,1.39727532863617,0.52936327457428
446,3820894334,0.002127,-0.697633,-0.057634,-0.714131,9.80371856689453,0.84420770406723,0.17608296871185,-0.09727063030005,1.43887031078339,0.76708751916885
447,3820911001,0.002130,-0.697573,-0.057399,-0.714207,9.78175354003906,0.79138463735580,0.17151418328285,-0.26795366406441,1.27970016002655,1.04995429515839
448,3820927668,0.002201,-0.697570,-0.057222,-0.714225,9.74929332733154,0.73509675264359,0.15858364105225,0.39147725701332,0.75268030166626,1.12230992317200
449,3820944335,0.002371,-0.697579,-0.057135,-0.714223,9.73810291290283,0.71384543180466,0.15824887156487,1.35446345806122,0.63076388835907,1.18543243408203
450,3820961002,0.002640,-0.697593,-0.057141,-0.714207,9.73698806762695,0.72721982002258,0.16534952819347,2.18722200393677,0.57226455211639,1.23095917701721
451,3820977669,0.002924,-0.697601,-0.057185,-0.714195,9.75819492340088,0.72916555404663,0.16751261055470,2.56288337707520,0.63742327690125,1.11574029922485
452,3820994336,0.003175,-0.697600,-0.057263,-0.714189,9.78848743438721,0.72684669494629,0.18641859292984,2.51614022254944,0.69104337692261,0.78333878517151
453,3821011003,0.003387,-0.697613,-0.057325,-0.714170,9.82551574707031,0.74063169956207,0.19444048404694,2.29313063621521,0.54666465520859,0.68563908338547
454,3821027670,0.003583,-0.697645,-0.057354,-0.714136,9.84109497070312,0.74353063106537,0.18220950663090,2.08172345161438,0.38316598534584,0.76544839143753
455,3821044337,0.003771,-0.697687,-0.057354,-0.714093,9.84726905822754,0.75559771060944,0.18999102711678,1.87324881553650,0.28112497925758,0.87194591760635
456,3821061004,0.003943,-0.697711,-0.057326,-0.714071,9.81078910827637,0.76934999227524,0.16779023408890,1.62839126586914,0.46077245473862,0.91756206750870
457,3821077671,0.004093,-0.697732,-0.057256,-0.714055,9.81755161285400,0.77013415098190,0.21374309062958,1.36906301975250,0.50834810733795,1.00832080841064
458,3821094338,0.004249,-0.697758,-0.057180,-0.714036,9.79604244232178,0.76094639301300,0.19926856458187,1.32255029678345,0.46109262108803,1.06831848621368
459,3821111005,0.004392,-0.697778,-0.057128,-0.714019,9.79331874847412,0.69460135698318,0.20724244415760,1.38225328922272,0.50241875648499,0.89365267753601
460,3821127672,0.004545,-0.697781,-0.057147,-0.714014,9.81912136077881,0.72276693582535,0.17393085360527,1.76495826244354,0.63185250759125,0.58586490154266
461,3821144339,0.004714,-0.697760,-0.057186,-0.714030,9.83284759521484,0.74491256475449,0.17917205393314,1.93373334407806,0.86307120323181,0.56408131122589
462,3821161006,0.004894,-0.697735,-0.057200,-0.714052,9.84309387207031,0.74336087703705,0.14993220567703,1.92457675933838,0.92627054452896,0.73790192604065
463,3821177673,0.005114,-0.697722,-0.057221,-0.714062,9.82604980468750,0.71811580657959,0.19291852414608,2.15612840652466,0.82034909725189,0.90438437461853
464,3821194340,0.005356,-0.697743,-0.057262,-0.714036,9.81118392944336,0.72261029481888,0.19244152307510,2.31779551506042,0.48507893085480,0.92490017414093
465,3821211007,0.005536,-0.697764,-0.057279,-0.714013,9.81389999389648,0.72369265556335,0.20270648598671,2.12339520454407,0.49437636137009,0.74710965156555
466,3821227674,0.005713,-0.697780,-0.057312,-0.713993,9.82272815704346,0.71589446067810,0.19485309720039,2.05786514282227,0.52027076482773,0.64532482624054
467,3821244341,0.005858,-0.697792,-0.057326,-0.713979,9.77149677276611,0.70173436403275,0.20381148159504,1.80869197845459,0.55368250608444,0.57793772220612
468,3821261008,0.005986,-0.697803,-0.057374,-0.713963,9.78887939453125,0.69461804628372,0.18624678254128,1.77113091945648,0.53892952203751,0.33642277121544
469,3821277675,0.006096,-0.697798,-0.057426,-0.713963,9.80299949645996,0.69892162084579,0.21768887341022,1.70989096164703,0.68721431493759,0.21713164448738
470,3821294342,0.006204,-0.697799,-0.057487,-0.713956,9.80064964294434,0.70503830909729,0.21033464372158,1.73707854747772,0.61227142810822,0.16865959763527
471,3821311009,0.006299,-0.697812,-0.057519,-0.713940,9.80379295349121,0.71943140029907,0.21007259190083,1.53668510913849,0.51347059011459,0.24150212109089
472,3821327676,0.006366,-0.697837,-0.057573,-0.713911,9.81126689910889,0.70771485567093,0.20097668468952,1.51492726802826,0.37882462143898,0.00833693332970
473,3821344343,0.006412,-0.697855,-0.057619,-0.713889,9.79461288452148,0.71857702732086,0.23378622531891,1.37027943134308,0.44354790449142,-0.05522738024592
474,3821361010,0.006421,-0.697859,-0.057656,-0.713882,9.79959297180176,0.73678606748581,0.22772234678268,1.14814043045044,0.56112295389175,-0.20745645463467
475,3821377677,0.006413,-0.697859,-0.057663,-0.713881,9.80659103393555,0.74897670745850,0.20490904152393,0.91423249244690,0.60762286186218,-0.13850706815720
476,3821394344,0.006353,-0.697847,-0.057616,-0.713897,9.81113338470459,0.72594493627548,0.21474942564964,0.56666821241379,0.74470204114914,-0.14532005786896
477,3821411011,0.006296,-0.697806,-0.057581,-0.713941,9.83592128753662,0.74223840236664,0.20470739901066,0.45707145333290,1.00349283218384,-0.20242355763912
478,3821427678,0.006236,-0.697769,-0.057538,-0.713981,9.81311035156250,0.74485778808594,0.21261136233807,0.40667840838432,0.97358989715576,-0.17328912019730
479,3821444345,0.006193,-0.697709,-0.057508,-0.714043,9.82104873657227,0.75470304489136,0.16853596270084,0.54630607366562,1.18813467025757,-0.16837146878242
480,3821461012,0.006154,-0.697655,-0.057467,-0.714099,9.81931781768799,0.75040972232819,0.17225231230259,0.50553065538406,1.13553905487061,-0.09319821000099
481,3821477679,0.006133,-0.697613,-0.057430,-0.714143,9.80065822601318,0.72840255498886,0.18610309064388,0.62387418746948,1.02758157253265,-0.01212121173739
482,3821494346,0.006138,-0.697581,-0.057410,-0.714176,9.82446670532227,0.70586413145065,0.17544977366924,0.83188772201538,0.93582409620285,0.03479485586286
483,3821511013,0.006168,-0.697527,-0.057399,-0.714229,9.81379795074463,0.70827573537827,0.16134442389011,0.99469476938248,1.14789712429047,0.10461506992579
484,3821527680,0.006194,-0.697476,-0.057383,-0.714280,9.79219722747803,0.72343355417252,0.16884164512157,0.94902735948563,1.11868596076965,0.11320813000202
485,3821544347,0.006170,-0.697426,-0.057326,-0.714334,9.79448986053467,0.72550874948502,0.19077153503895,0.70401626825333,1.12843143939972,0.06401893496513
486,3821561014,0.006132,-0.697406,-0.057233,-0.714361,9.83425617218018,0.70669174194336,0.16640397906303,0.43577450513840,0.85137897729874,0.18004447221756
487,3821577681,0.006179,-0.697389,-0.057227,-0.714378,9.80605316162109,0.69802993535995,0.15729176998138,1.11024653911591,0.79412174224854,0.18218313157558
488,3821594348,0.006235,-0.697381,-0.057220,-0.714386,9.75490665435791,0.73166090250015,0.20072416961193,1.15344238281250,0.71764224767685,0.23385673761368
489,3821611015,0.006337,-0.697383,-0.057237,-0.714382,9.77280426025391,0.69548273086548,0.19974714517593,1.49529492855072,0.62908631563187,0.35030487179756
490,3821627682,0.006458,-0.697373,-0.057284,-0.714387,9.82119178771973,0.70314812660217,0.19164830446243,1.72853696346283,0.73509722948074,0.28745132684708
491,3821644349,0.006555,-0.697379,-0.057360,-0.714374,9.89746379852295,0.70325434207916,0.20450179278851,1.76087307929993,0.56222438812256,0.05118697509170
492,3821661016,0.006646,-0.697386,-0.057388,-0.714363,9.87118625640869,0.68283015489578,0.23018778860569,1.50177490711212,0.56291592121124,0.23967082798481
493,3821677683,0.006660,-0.697356,-0.057375,-0.714393,9.84890747070312,0.73176926374435,0.22446459531784,0.90902036428452,0.91252928972244,0.04249146953225
494,3821694350,0.006626,-0.697319,-0.057312,-0.714435,9.85974311828613,0.79572349786758,0.20043797791004,0.43171483278275,0.99002045392990,0.04853606224060
495,3821711017,0.006568,-0.697270,-0.057160,-0.714496,9.85465240478516,0.78916037082672,0.22915689647198,-0.12335716933012,1.13439941406250,0.35148310661316
496,3821727684,0.006511,-0.697207,-0.056966,-0.714573,9.79954910278320,0.75393742322922,0.23279240727425,-0.33471316099167,1.28096783161163,0.55094194412231
497,3821744351,0.006436,-0.697146,-0.056827,-0.714645,9.76959228515625,0.70527988672256,0.24225747585297,-0.14752276241779,1.24047446250916,0.20102128386497
498,3821761018,0.006399,-0.697077,-0.056789,-0.714715,9.79924678802490,0.66833001375198,0.21811968088150,0.53271853923798,1.27678024768829,-0.10247000306845
499,3821777685,0.006410,-0.696958,-0.056798,-0.714831,9.79577636718750,0.67602795362473,0.20540672540665,0.96959435939789,1.75918257236481,-0.11178021132946
500,3821794352,0.006449,-0.696820,-0.056842,-0.714961,9.80691623687744,0.68362337350845,0.19047722220421,1.28095519542694,1.93491148948669,-0.14557617902756
501,3821811019,0.006487,-0.696691,-0.056913,-0.715081,9.82033920288086,0.69516265392303,0.18575908243656,1.41220748424530,1.83138501644135,-0.28093931078911
502,3821827686,0.006547,-0.696591,-0.056990,-0.715172,9.82415390014648,0.71449714899063,0.20095947384834,1.55625343322754,1.56643426418304,-0.19502149522305
503,3821844353,0.006595,-0.696504,-0.057028,-0.715253,9.80959606170654,0.74935841560364,0.19227775931358,1.30745124816895,1.44730937480927,-0.05147511512041
504,3821861020,0.006622,-0.696427,-0.057000,-0.715330,9.80213546752930,0.73073524236679,0.20105320215225,0.88100004196167,1.37842416763306,0.16130878031254
505,3821877687,0.006616,-0.696361,-0.056929,-0.715400,9.76761054992676,0.72599250078201,0.21752916276455,0.51910537481308,1.27460312843323,0.21156090497971
506,3821894354,0.006606,-0.696300,-0.056805,-0.715469,9.75952816009521,0.73874253034592,0.20212277770042,0.23801881074905,1.24802994728088,0.44377848505974
507,3821911021,0.006587,-0.696267,-0.056667,-0.715512,9.75046730041504,0.68620961904526,0.22866241633892,0.13576011359692,0.98558950424194,0.48272249102592
508,3821927688,0.006535,-0.696222,-0.056535,-0.715567,9.74897861480713,0.66736984252930,0.23082290589809,0.00455906055868,1.08526122570038,0.28173968195915
509,3821944355,0.006510,-0.696147,-0.056476,-0.715644,9.80099582672119,0.67544513940811,0.18971924483776,0.48173645138741,1.34928965568542,0.06090699136257
510,3821961022,0.006507,-0.696061,-0.056438,-0.715732,9.82010936737061,0.68767064809799,0.22339959442616,0.69036465883255,1.46007740497589,0.05611742287874
511,3821977689,0.006559,-0.695990,-0.056429,-0.715801,9.82781410217285,0.70182788372040,0.22142183780670,1.09546804428101,1.31705629825592,0.19611644744873
512,3821994356,0.006651,-0.695948,-0.056467,-0.715838,9.80546474456787,0.68675482273102,0.22344137728214,1.53609597682953,1.03664839267731,0.18478280305862
513,3822011023,0.006765,-0.695937,-0.056518,-0.715843,9.78874015808105,0.72880637645721,0.27723234891891,1.71348941326141,0.73503321409225,0.23728883266449
514,3822027690,0.006877,-0.695909,-0.056537,-0.715868,9.78168678283691,0.73675709962845,0.25692993402481,1.54265272617340,0.91938060522079,0.37917038798332
515,3822044357,0.006963,-0.695869,-0.056494,-0.715909,9.77951049804688,0.72739458084106,0.27225154638290,1.10271632671356,1.04268014431000,0.53589451313019
516,3822061024,0.007008,-0.695817,-0.056408,-0.715966,9.77474212646484,0.72655349969864,0.28014644980431,0.69369435310364,1.16446876525879,0.53793078660965
517,3822077691,0.007001,-0.695746,-0.056304,-0.716044,9.77428531646729,0.70002245903015,0.24490505456924,0.34810218214989,1.34145224094391,0.35859057307243
518,3822094358,0.006978,-0.695685,-0.056206,-0.716111,9.80029773712158,0.68130344152451,0.23372499644756,0.30301100015640,1.23620975017548,0.26605188846588
519,3822111025,0.006974,-0.695652,-0.056130,-0.716149,9.79308128356934,0.66680556535721,0.25266551971436,0.51204907894135,0.95730030536652,0.25731799006462
520,3822127692,0.007000,-0.695625,-0.056105,-0.716176,9.77402782440186,0.65731412172318,0.25858148932457,0.91615355014801,0.89448517560959,0.16051480174065
521,3822144359,0.007057,-0.695609,-0.056126,-0.716190,9.79398059844971,0.66481566429138,0.24904023110867,1.29210948944092,0.78227591514587,0.10303989797831
522,3822161026,0.007139,-0.695606,-0.056168,-0.716189,9.79065895080566,0.65857845544815,0.26312041282654,1.51538813114166,0.65499359369278,0.12983079254627
523,3822177693,0.007183,-0.695615,-0.056179,-0.716179,9.80081462860107,0.68297696113586,0.27092552185059,1.40024626255035,0.55587244033813,0.09944130480289
524,3822194360,0.007194,-0.695625,-0.056189,-0.716168,9.76590633392334,0.68838709592819,0.27946960926056,1.19295001029968,0.53333324193954,-0.05682817474008
525,3822211027,0.007170,-0.695633,-0.056194,-0.716160,9.77394676208496,0.69158881902695,0.25190284848213,0.89809656143188,0.52722465991974,-0.20435732603073
526,3822227694,0.007119,-0.695639,-0.056170,-0.716156,9.79310798645020,0.68250930309296,0.26733547449112,0.60863459110260,0.55445098876953,-0.20559956133366
527,3822244361,0.007054,-0.695650,-0.056136,-0.716150,9.80040264129639,0.67620718479156,0.24041053652763,0.53954434394836,0.51932317018509,-0.22808749973774
528,3822261028,0.006977,-0.695669,-0.056093,-0.716135,9.78961753845215,0.68601310253143,0.25779804587364,0.43754175305367,0.42958903312683,-0.23518222570419
529,3822277695,0.006879,-0.695688,-0.056045,-0.716121,9.76887893676758,0.67469763755798,0.26244032382965,0.34716731309891,0.42340347170830,-0.30899798870087
530,3822294362,0.006742,-0.695715,-0.055990,-0.716100,9.78026771545410,0.68182533979416,0.26503977179527,0.05175045505166,0.33793392777443,-0.47243261337280
531,3822311029,0.006573,-0.695747,-0.055918,-0.716077,9.80648231506348,0.64119607210159,0.22308738529682,-0.19234494864941,0.29363676905632,-0.54691433906555
532,3822327696,0.006448,-0.695783,-0.055911,-0.716043,9.79139423370361,0.65717816352844,0.22786162793636,0.32984036207199,0.22626258432865,-0.63974761962891
533,3822344363,0.006356,-0.695829,-0.055919,-0.715999,9.77657508850098,0.71063172817230,0.24543868005276,0.56520825624466,0.14824630320072,-0.54142040014267
534,3822361030,0.006323,-0.695896,-0.055972,-0.715931,9.79121971130371,0.69789880514145,0.22978274524212,1.12438452243805,-0.05111654102802,-0.45995923876762
535,3822377697,0.006343,-0.695964,-0.056067,-0.715857,9.82636070251465,0.70295298099518,0.19639545679092,1.56254124641418,-0.06562614440918,-0.39596593379974
536,3822394364,0.006354,-0.696045,-0.056164,-0.715770,9.86223888397217,0.71675872802734,0.24602742493153,1.52655529975891,-0.19689121842384,-0.44657659530640
537,3822411031,0.006338,-0.696117,-0.056196,-0.715698,9.86566925048828,0.71087437868118,0.25291362404823,1.08074069023132,-0.08529669046402,-0.27260234951973
538,3822427698,0.006249,-0.696165,-0.056142,-0.715656,9.82440280914307,0.72543722391129,0.25221917033195,0.29627487063408,0.14704249799252,-0.23020052909851
539,3822444365,0.006113,-0.696185,-0.056054,-0.715644,9.82210350036621,0.74363297224045,0.25741183757782,-0.10510811954737,0.42100879549980,-0.30815279483795
540,3822461032,0.005973,-0.696198,-0.055930,-0.715643,9.80395507812500,0.72910326719284,0.24296027421951,-0.30953586101532,0.49732175469398,-0.16537480056286
541,3822477699,0.005855,-0.696214,-0.055786,-0.715639,9.78440666198730,0.71427589654922,0.23942349851131,-0.33256173133850,0.48488688468933,0.04306775331497
542,3822494366,0.005779,-0.696251,-0.055726,-0.715608,9.78591537475586,0.67273855209351,0.21680013835430,0.30815923213959,0.25981524586678,-0.14204163849354
543,3822511033,0.005723,-0.696297,-0.055779,-0.715560,9.79119682312012,0.64044690132141,0.22469770908356,0.99087852239609,0.14179189503193,-0.57922476530075
544,3822527700,0.005732,-0.696320,-0.055875,-0.715530,9.79768085479736,0.67063802480698,0.20789337158203,1.49279785156250,0.36098539829254,-0.47674843668938
545,3822544367,0.005749,-0.696321,-0.055999,-0.715520,9.82253551483154,0.69121843576431,0.22171807289124,1.62866055965424,0.56791037321091,-0.57957065105438
546,3822561034,0.005744,-0.696334,-0.056109,-0.715498,9.83200645446777,0.70694434642792,0.22610010206699,1.48835408687592,0.44034636020660,-0.62016671895981
547,3822577701,0.005725,-0.696368,-0.056190,-0.715459,9.83899688720703,0.73958486318588,0.23167371749878,1.27934157848358,0.25131183862686,-0.53825736045837
548,3822594368,0.005680,-0.696419,-0.056214,-0.715408,9.83303737640381,0.73181724548340,0.20616874098778,0.85454213619232,0.10809840261936,-0.38742411136627
549,3822611035,0.005629,-0.696452,-0.056211,-0.715376,9.80570983886719,0.73026841878891,0.19003638625145,0.70315819978714,0.28220072388649,-0.29610198736191
550,3822627702,0.005585,-0.696462,-0.056184,-0.715369,9.78577232360840,0.75420778989792,0.22221121191978,0.61402601003647,0.51755577325821,-0.15520654618740
551,3822644369,0.005557,-0.696485,-0.056130,-0.715351,9.84398269653320,0.70844668149948,0.21250180900097,0.55624389648438,0.41034111380577,0.05922937393188
552,3822661036,0.005578,-0.696536,-0.056090,-0.715305,9.78321552276611,0.69645136594772,0.22013613581657,0.87389248609543,0.15859383344650,0.24403774738312
553,3822677703,0.005590,-0.696565,-0.056096,-0.715276,9.76922702789307,0.69230628013611,0.22979603707790,1.06400275230408,0.34332543611526,-0.02811634354293
554,3822694370,0.005597,-0.696581,-0.056160,-0.715255,9.81259346008301,0.71582573652267,0.21829213202000,1.31642866134644,0.44114032387733,-0.33489242196083
555,3822711037,0.005614,-0.696570,-0.056210,-0.715262,9.84095573425293,0.73747050762177,0.20819047093391,1.27898299694061,0.71228915452957,-0.23169888556004
556,3822727704,0.005630,-0.696554,-0.056220,-0.715276,9.82949447631836,0.72997879981995,0.21684968471527,1.07050836086273,0.76548677682877,-0.04677519202232
557,3822744371,0.005653,-0.696566,-0.056213,-0.715265,9.80643081665039,0.71151989698410,0.21805302798748,1.03409993648529,0.51827299594879,0.07957865297794
558,3822761038,0.005681,-0.696604,-0.056205,-0.715228,9.78326606750488,0.71453523635864,0.22905741631985,1.07570779323578,0.27032926678658,0.11952165514231
559,3822777705,0.005690,-0.696627,-0.056188,-0.715207,9.79163932800293,0.71290361881256,0.22654500603676,0.93354439735413,0.40489834547043,0.06369877606630
560,3822794372,0.005665,-0.696633,-0.056170,-0.715203,9.79768753051758,0.69189429283142,0.23679164052010,0.73347085714340,0.56570762395859,-0.10363538563251
561,3822811039,0.005639,-0.696621,-0.056155,-0.715217,9.80174255371094,0.68237692117691,0.22299815714359,0.73517405986786,0.73066627979279,-0.13748255372047
562,3822827706,0.005617,-0.696618,-0.056160,-0.715218,9.80545520782471,0.69063407182693,0.23471806943417,0.86015123128891,0.62858682870865,-0.20376823842525
563,3822844373,0.005583,-0.696628,-0.056165,-0.715209,9.80393981933594,0.71353501081467,0.22733868658543,0.82863485813141,0.51491767168045,-0.25761890411377
564,3822861040,0.005575,-0.696662,-0.056178,-0.715175,9.80574512481689,0.70621621608734,0.23064744472504,1.00044476985931,0.28692623972893,-0.15644876658916
565,3822877707,0.005594,-0.696696,-0.056210,-0.715139,9.81544208526611,0.70508068799973,0.23012618720531,1.20418107509613,0.28222629427910,-0.12503477931023
566,3822894374,0.005619,-0.696734,-0.056256,-0.715098,9.81736373901367,0.70155698060989,0.23566175997257,1.30953907966614,0.24092587828636,-0.15199215710163
567,3822911041,0.005654,-0.696746,-0.056300,-0.715083,9.80018234252930,0.72022861242294,0.21928104758263,1.35898423194885,0.50570994615555,-0.10421166568995
568,3822927708,0.005655,-0.696772,-0.056315,-0.715056,9.82971572875977,0.74279773235321,0.22800512611866,1.03809547424316,0.35608053207397,-0.12640507519245
569,3822944375,0.005623,-0.696791,-0.056303,-0.715039,9.81285285949707,0.73065918684006,0.21587817370892,0.77995789051056,0.43669649958611,-0.16081573069096
570,3822961042,0.005591,-0.696808,-0.056271,-0.715026,9.80102157592773,0.71825259923935,0.23912668228149,0.64992225170135,0.46083649992943,-0.07145301997662
571,3822977709,0.005568,-0.696832,-0.056260,-0.715003,9.81113815307617,0.70492541790009,0.24614009261131,0.78090554475784,0.37829956412315,-0.11869563907385
572,3822994376,0.005549,-0.696845,-0.056234,-0.714992,9.80035114288330,0.69925951957703,0.22164779901505,0.74790358543396,0.50043374300003,-0.03802845254540
573,3823011043,0.005529,-0.696862,-0.056224,-0.714977,9.81646347045898,0.71049129962921,0.21860720217228,0.76127350330353,0.45299902558327,-0.11737660318613
574,3823027710,0.005489,-0.696873,-0.056209,-0.714968,9.81616973876953,0.71053659915924,0.22108806669712,0.69507747888565,0.50663203001022,-0.18895128369331
575,3823044377,0.005462,-0.696874,-0.056220,-0.714966,9.79064655303955,0.70602840185165,0.21561655402184,0.87143361568451,0.58836203813553,-0.26333054900169
576,3823061044,0.005415,-0.696877,-0.056225,-0.714963,9.76990127563477,0.71798777580261,0.22185610234737,0.76625508069992,0.57392930984497,-0.32339236140251
577,3823077711,0.005359,-0.696896,-0.056218,-0.714945,9.82783603668213,0.68629920482635,0.21317055821419,0.65629982948303,0.41385000944138,-0.30452856421471
578,3823094378,0.005342,-0.696915,-0.056244,-0.714925,9.82426834106445,0.68176925182343,0.18178792297840,1.07643771171570,0.42513236403465,-0.27228218317032
579,3823111045,0.005364,-0.696933,-0.056284,-0.714904,9.75480461120605,0.72309237718582,0.21882276237011,1.23537743091583,0.43508294224739,-0.14708733558655
580,3823127712,0.005371,-0.696986,-0.056296,-0.714852,9.75262546539307,0.72390925884247,0.23293645679951,1.07732129096985,0.11382283270359,-0.07071025669575
581,3823144379,0.005400,-0.697022,-0.056337,-0.714813,9.82079410552979,0.71506434679031,0.19239424169064,1.32368993759155,0.26739659905434,-0.11263824999332
582,3823161046,0.005436,-0.697060,-0.056383,-0.714772,9.85810279846191,0.72257566452026,0.21267302334309,1.36070024967194,0.24212965369225,-0.10264929383993
583,3823177713,0.005468,-0.697112,-0.056419,-0.714718,9.83210468292236,0.72027468681335,0.25795942544937,1.32999050617218,0.11679390072823,-0.06156652420759
584,3823194380,0.005466,-0.697133,-0.056393,-0.714700,9.81701946258545,0.73726212978363,0.21599161624908,0.81636637449265,0.43016526103020,0.05359457060695
585,3823211047,0.005432,-0.697126,-0.056357,-0.714709,9.82332038879395,0.75871026515961,0.21204078197479,0.56447827816010,0.68052929639816,-0.07738236337900
586,3823227714,0.005376,-0.697109,-0.056262,-0.714734,9.80948543548584,0.75587457418442,0.21186883747578,0.19659028947353,0.80421316623688,0.10679215937853
587,3823244381,0.005286,-0.697091,-0.056117,-0.714764,9.79588603973389,0.71435081958771,0.18957218527794,-0.20863464474678,0.81585407257080,0.17250151932240
588,3823261048,0.005208,-0.697106,-0.056032,-0.714756,9.78841209411621,0.67067474126816,0.19087290763855,0.15344567596912,0.48302987217903,-0.04231857880950
589,3823277715,0.005183,-0.697136,-0.056031,-0.714728,9.78795909881592,0.65666896104813,0.21578589081764,0.81280618906021,0.32377013564110,-0.17920565605164
590,3823294382,0.005204,-0.697145,-0.056092,-0.714714,9.76317501068115,0.66826415061951,0.20600530505180,1.33759760856628,0.51115268468857,-0.26338177919388
591,3823311049,0.005249,-0.697144,-0.056205,-0.714706,9.77527713775635,0.68385416269302,0.19005675613880,1.68431663513184,0.59511095285416,-0.39188066124916
592,3823327716,0.005306,-0.697160,-0.056324,-0.714680,9.79998016357422,0.70402961969376,0.20031151175499,1.87119972705841,0.43387910723686,-0.35330796241760
593,3823344383,0.005349,-0.697182,-0.056438,-0.714649,9.84267520904541,0.73929131031036,0.19227366149426,1.73499155044556,0.37877342104912,-0.39430111646652
594,3823361050,0.005364,-0.697219,-0.056491,-0.714609,9.84064769744873,0.74273395538330,0.19644483923912,1.28473305702209,0.24147650599480,-0.24273793399334
595,3823377717,0.005343,-0.697276,-0.056479,-0.714554,9.82763576507568,0.72355610132217,0.20625787973404,0.80152380466461,0.06957689672709,-0.09351836144924
596,3823394384,0.005289,-0.697310,-0.056435,-0.714525,9.79134464263916,0.72139608860016,0.20100788772106,0.45504802465439,0.28476199507713,-0.11032029986382
597,3823411051,0.005197,-0.697330,-0.056363,-0.714512,9.79286384582520,0.75416487455368,0.22161756455898,0.14791333675385,0.43024209141731,-0.17385259270668
598,3823427718,0.005148,-0.697363,-0.056305,-0.714484,9.80784606933594,0.72745102643967,0.21928940713406,0.42777052521706,0.30165359377861,-0.02435127459466
599,3823444385,0.005124,-0.697381,-0.056277,-0.714469,9.80058574676514,0.69899475574493,0.20730200409889,0.67388290166855,0.44359913468361,-0.04820949956775
600,3823461052,0.005159,-0.697381,-0.056337,-0.714464,9.84156322479248,0.70041394233704,0.19825364649296,1.36937010288239,0.60321742296219,-0.18569846451283
601,3823477719,0.005239,-0.697370,-0.056444,-0.714466,9.82790184020996,0.71925228834152,0.22034837305546,1.81204724311829,0.70455408096313,-0.19598196446896
602,3823494386,0.005319,-0.697357,-0.056526,-0.714471,9.81089496612549,0.75572353601456,0.21009114384651,1.70743215084076,0.73476427793503,-0.08318363875151
603,3823511053,0.005391,-0.697337,-0.056580,-0.714487,9.81722831726074,0.75267511606216,0.21396027505398,1.56444942951202,0.82179629802704,0.01325457356870
604,3823527720,0.005428,-0.697327,-0.056600,-0.714494,9.81127929687500,0.75873875617981,0.21071588993073,1.24640369415283,0.71625918149948,0.00892602559179
605,3823544387,0.005437,-0.697321,-0.056566,-0.714503,9.79009723663330,0.74063068628311,0.22894178330898,0.79907774925232,0.69149160385132,0.13325007259846
606,3823561054,0.005424,-0.697300,-0.056509,-0.714528,9.79595184326172,0.71223223209381,0.21047735214233,0.56452941894531,0.83197730779648,0.13018932938576
607,3823577721,0.005409,-0.697288,-0.056444,-0.714545,9.77788066864014,0.69452488422394,0.22328861057758,0.49476051330566,0.75131016969681,0.16173137724400
608,3823594388,0.005393,-0.697275,-0.056410,-0.714561,9.77406787872314,0.67013740539551,0.22064164280891,0.66408604383469,0.75050330162048,0.00486641284078
609,3823611055,0.005378,-0.697262,-0.056402,-0.714574,9.79245471954346,0.69540691375732,0.22415162622929,0.81730121374130,0.74233281612396,-0.11468725651503
610,3823627722,0.005368,-0.697239,-0.056439,-0.714593,9.79904460906982,0.68616199493408,0.20405343174934,1.03603363037109,0.81001442670822,-0.31244292855263
611,3823644389,0.005379,-0.697243,-0.056497,-0.714585,9.81657314300537,0.70822501182556,0.16326387226582,1.27788162231445,0.55690979957581,-0.29241380095482
612,3823661056,0.005442,-0.697275,-0.056559,-0.714548,9.81352806091309,0.71499651670456,0.17948943376541,1.55466520786285,0.30513691902161,-0.04642941802740
613,3823677723,0.005508,-0.697307,-0.056599,-0.714513,9.81423759460449,0.72895896434784,0.20512330532074,1.47369062900543,0.31549721956253,0.07379019260406
614,3823694390,0.005546,-0.697321,-0.056604,-0.714499,9.80801105499268,0.73995637893677,0.22108499705791,1.15102195739746,0.50157350301743,0.09128366410732
615,3823711057,0.005518,-0.697330,-0.056556,-0.714495,9.79663372039795,0.72413545846939,0.23124828934669,0.56724447011948,0.54068410396576,0.02581760101020
616,3823727724,0.005472,-0.697325,-0.056497,-0.714504,9.80043411254883,0.71729815006256,0.19374099373817,0.39287316799164,0.66322803497314,-0.01400374434888
617,3823744391,0.005440,-0.697323,-0.056457,-0.714510,9.78459930419922,0.69231921434402,0.21237359941006,0.59065449237823,0.64492774009705,-0.04119161888957
618,3823761058,0.005450,-0.697329,-0.056460,-0.714503,9.78957271575928,0.68665814399719,0.21387551724911,0.98945695161819,0.55797260999680,-0.03910418599844
619,3823777725,0.005490,-0.697348,-0.056514,-0.714480,9.81540107727051,0.70600497722626,0.21925044059753,1.40736675262451,0.42465853691101,-0.12572634220123
620,3823794392,0.005520,-0.697363,-0.056558,-0.714462,9.81448459625244,0.69460606575012,0.21532383561134,1.34409046173096,0.47006985545158,-0.12961946427822
621,3823811059,0.005542,-0.697377,-0.056605,-0.714444,9.80987548828125,0.71413576602936,0.22172935307026,1.28734552860260,0.46469122171402,-0.18760663270950
622,3823827726,0.005534,-0.697388,-0.056629,-0.714431,9.80443859100342,0.73921346664429,0.20967721939087,1.01668322086334,0.49880728125572,-0.22036525607109
623,3823844393,0.005488,-0.697399,-0.056620,-0.714423,9.79352760314941,0.74515736103058,0.22802625596523,0.64633643627167,0.50458294153214,-0.25299584865570
624,3823861060,0.005417,-0.697413,-0.056570,-0.714413,9.85141754150391,0.70328259468079,0.19527521729469,0.39889216423035,0.47214445471764,-0.17157307267189
625,3823877727,0.005403,-0.697419,-0.056560,-0.714408,9.83116436004639,0.71915119886398,0.17790219187737,0.83391106128693,0.55954784154892,-0.09373606741428
626,3823894394,0.005386,-0.697425,-0.056539,-0.714404,9.76045989990234,0.75703668594360,0.22801889479160,0.72545409202576,0.55849766731262,-0.05203859880567
627,3823911061,0.005396,-0.697443,-0.056537,-0.714386,9.78157138824463,0.73322921991348,0.20249892771244,0.97753423452377,0.44891375303268,-0.00834333710372
628,3823927728,0.005424,-0.697438,-0.056564,-0.714388,9.84368610382080,0.73131912946701,0.20853142440319,1.18871092796326,0.65895068645477,-0.06913507729769
629,3823944395,0.005440,-0.697428,-0.056588,-0.714396,9.86477375030518,0.72223287820816,0.21967123448849,1.13649952411652,0.70848572254181,-0.10877072066069
630,3823961062,0.005448,-0.697424,-0.056582,-0.714401,9.82130432128906,0.69073349237442,0.21204754710197,0.93891036510468,0.66722363233566,-0.00785669591278
631,3823977729,0.005413,-0.697397,-0.056562,-0.714429,9.81067752838135,0.70924496650696,0.20498345792294,0.65882271528244,0.86875724792480,-0.16404294967651
632,3823994396,0.005360,-0.697364,-0.056523,-0.714464,9.81311416625977,0.76309818029404,0.18325538933277,0.49615636467934,0.92492574453354,-0.16130237281322
633,3824011063,0.005273,-0.697327,-0.056404,-0.714511,9.81571674346924,0.77558124065399,0.18283669650555,-0.08009731024504,0.99591135978699,0.05628390610218
634,3824027730,0.005166,-0.697308,-0.056254,-0.714542,9.77974319458008,0.71581244468689,0.20574471354485,-0.36542278528214,0.81771099567413,0.11352828145027
635,3824044397,0.005091,-0.697314,-0.056182,-0.714542,9.76529884338379,0.66159474849701,0.18882732093334,0.11899658292532,0.54876482486725,-0.09819268435240
636,3824061064,0.005066,-0.697319,-0.056204,-0.714536,9.77838420867920,0.65149557590485,0.17465995252132,0.92510503530502,0.54964846372604,-0.29729300737381
637,3824077731,0.005101,-0.697313,-0.056290,-0.714535,9.77290725708008,0.67727088928223,0.19086147844791,1.53105056285858,0.65825927257538,-0.31825703382492
638,3824094398,0.005148,-0.697303,-0.056400,-0.714536,9.79110145568848,0.70806962251663,0.18118032813072,1.74673473834991,0.68405115604401,-0.37087824940681
639,3824111065,0.005187,-0.697310,-0.056521,-0.714519,9.81387329101562,0.72749114036560,0.21141193807125,1.72656476497650,0.51262533664703,-0.45824322104454
640,3824127732,0.005195,-0.697324,-0.056585,-0.714500,9.82249832153320,0.74673140048981,0.21341000497341,1.32476568222046,0.45445898175240,-0.33804282546043
641,3824144399,0.005175,-0.697360,-0.056589,-0.714465,9.83048629760742,0.74505776166916,0.23715539276600,0.95847851037979,0.27573353052139,-0.17033086717129
642,3824161066,0.005110,-0.697388,-0.056540,-0.714442,9.81712532043457,0.72855567932129,0.22740744054317,0.43535184860229,0.34826865792274,-0.14140130579472
643,3824177733,0.005029,-0.697388,-0.056469,-0.714448,9.79886913299561,0.74132990837097,0.22139941155910,0.18270818889141,0.61458957195282,-0.13261616230011
644,3824194400,0.004928,-0.697395,-0.056376,-0.714450,9.80415821075439,0.73922705650330,0.20516701042652,-0.00754934269935,0.54941797256470,-0.12385662645102
645,3824211067,0.004846,-0.697412,-0.056306,-0.714439,9.78874301910400,0.71783089637756,0.23509974777699,0.21450634300709,0.45130854845047,-0.13091289997101
646,3824227734,0.004805,-0.697414,-0.056309,-0.714437,9.79567146301270,0.69257611036301,0.20014077425003,0.75862258672714,0.58136987686157,-0.28633081912994
647,3824244401,0.004821,-0.697392,-0.056395,-0.714452,9.83234500885010,0.71897262334824,0.21719107031822,1.42432236671448,0.79906505346298,-0.42130973935127
648,3824261068,0.004868,-0.697360,-0.056494,-0.714474,9.82698440551758,0.75569903850555,0.17783443629742,1.64676845073700,0.89306354522705,-0.32569745182991
649,3824277735,0.004925,-0.697323,-0.056535,-0.714507,9.81443595886230,0.77461874485016,0.20263913273811,1.39910662174225,0.97996759414673,-0.00826649926603
650,3824294402,0.004955,-0.697309,-0.056532,-0.714520,9.79575538635254,0.75689607858658,0.18968224525452,1.07058537006378,0.75556176900864,0.08304917812347
651,3824311069,0.004961,-0.697308,-0.056494,-0.714524,9.79278945922852,0.74215686321259,0.24110779166222,0.76254129409790,0.64377516508102,0.13771946728230
652,3824327736,0.004924,-0.697301,-0.056407,-0.714538,9.79158401489258,0.72398889064789,0.20487734675407,0.32505077123642,0.70477181673050,0.16129598021507
653,3824344403,0.004887,-0.697281,-0.056344,-0.714564,9.78118610382080,0.71578586101532,0.21112951636314,0.42205885052681,0.82547163963318,0.03653651103377
654,3824361070,0.004874,-0.697258,-0.056294,-0.714590,9.78963088989258,0.70017349720001,0.20229132473469,0.62101835012436,0.84743452072144,0.09316619485617
655,3824377737,0.004874,-0.697256,-0.056292,-0.714592,9.78121852874756,0.69290870428085,0.20998279750347,0.89472836256027,0.63703912496567,-0.06325697153807
656,3824394404,0.004902,-0.697246,-0.056323,-0.714599,9.80010890960693,0.70695412158966,0.20248831808567,1.18161630630493,0.70443880558014,-0.08975330740213
657,3824411071,0.004942,-0.697260,-0.056367,-0.714582,9.79487705230713,0.72664988040924,0.19549055397511,1.35320866107941,0.48085284233093,-0.08017415553331
658,3824427738,0.004983,-0.697287,-0.056403,-0.714552,9.80404376983643,0.71170622110367,0.21045513451099,1.32919681072235,0.35508167743683,-0.03367429599166
659,3824444405,0.005009,-0.697324,-0.056421,-0.714515,9.81480979919434,0.72877937555313,0.19984048604965,1.17996430397034,0.26324734091759,-0.01378603652120
660,3824461072,0.005023,-0.697363,-0.056423,-0.714476,9.79918098449707,0.72642350196838,0.20333522558212,1.02029478549957,0.24165582656860,0.00006403175212
661,3824477739,0.005025,-0.697390,-0.056411,-0.714451,9.79038524627686,0.72939139604568,0.19645969569683,0.88508534431458,0.36758068203926,0.00849060993642
662,3824494406,0.004986,-0.697401,-0.056371,-0.714444,9.79523181915283,0.72615247964859,0.22493271529675,0.60370409488678,0.51512259244919,-0.06972416490316
663,3824511073,0.004956,-0.697407,-0.056331,-0.714441,9.81040573120117,0.73435270786285,0.22705698013306,0.59418904781342,0.56321048736572,-0.02664361335337
664,3824527740,0.004952,-0.697419,-0.056315,-0.714430,9.80776309967041,0.70960152149200,0.19313612580299,0.86006170511246,0.50093322992325,-0.00950871501118
665,3824544407,0.004957,-0.697437,-0.056333,-0.714412,9.81460475921631,0.71364474296570,0.20353981852531,1.05373191833496,0.44334298372269,-0.12276805937290
666,3824561074,0.004978,-0.697457,-0.056363,-0.714390,9.79973602294922,0.73006087541580,0.20182690024376,1.20712661743164,0.42123931646347,-0.10668330639601
667,3824577741,0.005017,-0.697484,-0.056398,-0.714360,9.80482673645020,0.72906321287155,0.19742250442505,1.29397928714752,0.35052260756493,-0.03777233138680
668,3824594408,0.005058,-0.697510,-0.056443,-0.714331,9.80618381500244,0.71091985702515,0.18269132077694,1.35200464725494,0.36104941368103,-0.07811233401299
669,3824611075,0.005082,-0.697530,-0.056452,-0.714311,9.80183029174805,0.72708898782730,0.20031411945820,1.14650130271912,0.43606901168823,0.01324176508933
670,3824627742,0.005091,-0.697550,-0.056444,-0.714292,9.80288124084473,0.72514486312866,0.20159229636192,0.96353691816330,0.42856445908546,0.01534200552851
671,3824644409,0.005085,-0.697564,-0.056412,-0.714280,9.80126857757568,0.72434043884277,0.20592322945595,0.78579759597778,0.49178943037987,0.05441417545080
672,3824661076,0.005075,-0.697579,-0.056379,-0.714268,9.81654167175293,0.72515803575516,0.18644955754280,0.73131936788559,0.48268407583237,0.04684562608600
673,3824677743,0.005066,-0.697593,-0.056351,-0.714257,9.79596138000488,0.70457243919373,0.18962843716145,0.78678369522095,0.49000936746597,0.02034928835928
674,3824694410,0.005084,-0.697608,-0.056357,-0.714242,9.78941249847412,0.71677565574646,0.19787666201591,1.04323089122772,0.47593516111374,-0.00688341259956
675,3824711077,0.005089,-0.697609,-0.056358,-0.714240,9.80683994293213,0.70917975902557,0.24319550395012,0.96671289205551,0.60506159067154,-0.05020729452372
676,3824727744,0.005102,-0.697625,-0.056360,-0.714225,9.86017036437988,0.68425244092941,0.16834990680218,0.94554394483566,0.46449908614159,-0.01854999735951
677,3824744411,0.005149,-0.697638,-0.056388,-0.714209,9.80490589141846,0.71264171600342,0.18915960192680,1.32044982910156,0.49171257019043,0.03251532092690
678,3824761078,0.005176,-0.697660,-0.056380,-0.714188,9.74657917022705,0.74763715267181,0.21694567799568,1.02404689788818,0.41547638177872,0.10744526982307
679,3824777745,0.005238,-0.697680,-0.056406,-0.714167,9.80100917816162,0.72466909885406,0.22285732626915,1.30570971965790,0.43486520648003,0.11044195294380
680,3824794412,0.005271,-0.697676,-0.056438,-0.714168,9.86297702789307,0.72057902812958,0.19145047664642,1.25850570201874,0.65350806713104,-0.06296242028475
681,3824811079,0.005313,-0.697680,-0.056469,-0.714161,9.84755516052246,0.69853729009628,0.22905486822128,1.30782270431519,0.58190768957138,-0.01689798012376
682,3824827746,0.005321,-0.697677,-0.056459,-0.714164,9.80925273895264,0.70324039459229,0.19990599155426,0.91998249292374,0.64577287435532,0.01628967560828
683,3824844413,0.005289,-0.697651,-0.056430,-0.714193,9.80457115173340,0.73297083377838,0.17998072504997,0.60939019918442,0.86656737327576,-0.10088202357292
684,3824861080,0.005244,-0.697630,-0.056368,-0.714218,9.81279468536377,0.75882506370544,0.19457265734673,0.41861394047737,0.82534360885620,-0.00707550812513
685,3824877747,0.005163,-0.697605,-0.056228,-0.714254,9.81060791015625,0.73505759239197,0.19828107953072,-0.14483338594437,0.88397103548050,0.18765142560005
686,3824894414,0.005081,-0.697613,-0.056107,-0.714257,9.78580379486084,0.69426339864731,0.23288618028164,-0.01181385666132,0.56738531589508,0.10885396599770
687,3824911081,0.005019,-0.697633,-0.056082,-0.714239,9.79213523864746,0.65921658277512,0.19255015254021,0.49917867779732,0.40616616606712,-0.25026807188988
688,3824927748,0.005001,-0.697638,-0.056132,-0.714230,9.78550434112549,0.67434370517731,0.20081771910191,1.09548068046570,0.53665000200272,-0.40080669522285
689,3824944415,0.005026,-0.697621,-0.056236,-0.714239,9.80262374877930,0.69324195384979,0.19547200202942,1.57906150817871,0.74582910537720,-0.45018807053566
690,3824961082,0.005094,-0.697599,-0.056370,-0.714249,9.78880119323730,0.70683944225311,0.20683714747429,1.92672824859619,0.79704159498215,-0.39191916584969
691,3824977749,0.005123,-0.697587,-0.056490,-0.714251,9.81082057952881,0.73318099975586,0.21002586185932,1.66618263721466,0.68996757268906,-0.51626867055893
692,3824994416,0.005109,-0.697586,-0.056543,-0.714248,9.82073879241943,0.74621021747589,0.22067604959011,1.14646279811859,0.60080987215042,-0.39655500650406
693,3825011083,0.005052,-0.697608,-0.056546,-0.714227,9.82559776306152,0.74510538578033,0.17156638205051,0.69961088895798,0.38275620341301,-0.35585644841194
694,3825027750,0.004969,-0.697613,-0.056480,-0.714227,9.79867649078369,0.73014676570892,0.17473004758358,0.21360990405083,0.56070041656494,-0.16520833969116
695,3825044417,0.004882,-0.697591,-0.056408,-0.714256,9.80127048492432,0.74246495962143,0.18671403825283,0.15657043457031,0.82871168851852,-0.16164813935757
696,3825061084,0.004796,-0.697595,-0.056325,-0.714259,9.80762672424316,0.71549177169800,0.21257333457470,0.10111892968416,0.57759195566177,-0.09871774911880
697,3825077751,0.004756,-0.697608,-0.056279,-0.714251,9.76589298248291,0.68425005674362,0.20586436986923,0.52827471494675,0.50167590379715,-0.04614768177271
698,3825094418,0.004715,-0.697598,-0.056308,-0.714257,9.78382587432861,0.70200628042221,0.19036199152470,0.86515849828720,0.67640572786331,-0.41322886943817
699,3825111085,0.004718,-0.697562,-0.056392,-0.714287,9.84202194213867,0.72848695516586,0.17722946405411,1.34036386013031,0.93017649650574,-0.48024457693100
700,3825127752,0.004730,-0.697523,-0.056458,-0.714319,9.83700561523438,0.76102501153946,0.19677466154099,1.29893505573273,0.96065533161163,-0.34507349133492
701,3825144419,0.004742,-0.697472,-0.056471,-0.714368,9.82624435424805,0.78862696886063,0.21088689565659,1.04447305202484,1.11219298839569,-0.09689924120903
702,3825161086,0.004763,-0.697454,-0.056439,-0.714388,9.81617355346680,0.76012384891510,0.20192545652390,0.90111881494522,0.80411070585251,0.17156666517258
703,3825177753,0.004769,-0.697442,-0.056372,-0.714405,9.80860137939453,0.75834888219833,0.22024813294411,0.62109512090683,0.76100450754166,0.27511879801750
704,3825194420,0.004735,-0.697405,-0.056283,-0.714448,9.79078006744385,0.73850029706955,0.22088633477688,0.29535284638405,0.98950821161270,0.16913345456123
705,3825211087,0.004684,-0.697356,-0.056179,-0.714505,9.78918552398682,0.71680104732513,0.21791866421700,0.18412968516350,1.11960792541504,0.15831208229065
706,3825227754,0.004615,-0.697300,-0.056072,-0.714568,9.80409717559814,0.69411748647690,0.23706743121147,0.06386527419090,1.16377711296082,0.07882308214903
707,3825244421,0.004565,-0.697247,-0.055994,-0.714627,9.81761837005615,0.68489176034927,0.21506178379059,0.30614858865738,1.14456748962402,0.02809713035822
708,3825261088,0.004523,-0.697175,-0.055952,-0.714700,9.81515121459961,0.71649855375290,0.21698303520679,0.53635555505753,1.30750274658203,-0.10811761021614
709,3825277755,0.004507,-0.697124,-0.055944,-0.714750,9.80649948120117,0.73183095455170,0.22700457274914,0.81239640712738,1.09895122051239,-0.13471639156342
710,3825294422,0.004520,-0.697081,-0.055952,-0.714792,9.80019855499268,0.73486828804016,0.17827631533146,1.02404689788818,1.03325486183167,-0.06073411554098
711,3825311089,0.004549,-0.697055,-0.055964,-0.714816,9.79980659484863,0.73849028348923,0.16489022970200,1.16519856452942,0.86871880292892,-0.00247802888043
712,3825327756,0.004571,-0.697026,-0.055954,-0.714844,9.80775642395020,0.72495108842850,0.21982969343662,0.98279774188995,0.90077304840088,0.07261200994253
713,3825344423,0.004559,-0.696997,-0.055907,-0.714876,9.81061458587646,0.71595454216003,0.21388444304466,0.65250915288925,0.90985268354416,0.08082086592913
714,3825361090,0.004521,-0.696976,-0.055832,-0.714904,9.80191516876221,0.71793347597122,0.19377173483372,0.40105643868446,0.84012216329575,0.08941393345594
715,3825377757,0.004465,-0.696956,-0.055729,-0.714931,9.79792499542236,0.68828940391541,0.20695707201958,0.22158825397491,0.83338594436646,0.13992217183113
716,3825394424,0.004430,-0.696953,-0.055668,-0.714940,9.79075813293457,0.68914347887039,0.19917505979538,0.53292346000671,0.66349697113037,0.04537289217114
717,3825411091,0.004423,-0.696961,-0.055651,-0.714933,9.80937957763672,0.70382398366928,0.18865957856178,0.94430184364319,0.55082666873932,-0.02091917209327
718,3825427758,0.004454,-0.696971,-0.055681,-0.714920,9.78699684143066,0.69502794742584,0.21408110857010,1.21848583221436,0.50914204120636,-0.05991450697184
719,3825444425,0.004501,-0.696983,-0.055734,-0.714905,9.80293941497803,0.70652455091476,0.21213310956955,1.39917039871216,0.50134295225143,-0.09117481112480
720,3825461092,0.004533,-0.696992,-0.055792,-0.714891,9.80297374725342,0.73207217454910,0.21583114564419,1.36884522438049,0.51677465438843,-0.18951478600502
721,3825477759,0.004571,-0.697005,-0.055830,-0.714875,9.81734275817871,0.75092977285385,0.20954515039921,1.30991029739380,0.48297870159149,-0.06360274553299
722,3825494426,0.004572,-0.697008,-0.055840,-0.714871,9.79956817626953,0.74565982818604,0.22699512541294,1.00208401679993,0.58354693651199,-0.11653139442205
723,3825511093,0.004553,-0.697012,-0.055821,-0.714868,9.78717803955078,0.73803281784058,0.20496185123920,0.79670858383179,0.57619601488113,-0.07529493421316
724,3825527760,0.004531,-0.697012,-0.055798,-0.714871,9.80067348480225,0.73410660028458,0.25991967320442,0.71622067689896,0.61887961626053,-0.07114567607641
725,3825544427,0.004523,-0.697010,-0.055789,-0.714874,9.80082798004150,0.72207337617874,0.21922421455383,0.81749331951141,0.63985645771027,-0.06725255399942
726,3825561094,0.004539,-0.696992,-0.055789,-0.714891,9.80878734588623,0.72131979465485,0.23073707520962,0.89845496416092,0.77566772699356,-0.00558997085318
727,3825577761,0.004542,-0.696976,-0.055777,-0.714907,9.82097053527832,0.73258346319199,0.22933731973171,0.86716914176941,0.77726852893829,-0.01172421220690
728,3825594428,0.004551,-0.696957,-0.055781,-0.714925,9.79513263702393,0.71909248828888,0.23288215696812,1.00308299064636,0.79643970727921,-0.05184651166201
729,3825611095,0.004543,-0.696942,-0.055773,-0.714941,9.78536891937256,0.73865604400635,0.24456876516342,0.82663702964783,0.76161926984787,-0.07967470586300
730,3825627762,0.004498,-0.696941,-0.055729,-0.714946,9.82194232940674,0.72568398714066,0.21729035675526,0.48910009860992,0.62952166795731,-0.08400324732065
731,3825644429,0.004490,-0.696945,-0.055686,-0.714946,9.82284450531006,0.68355304002762,0.15533554553986,0.70522004365921,0.59243452548981,0.09338389337063
732,3825661096,0.004512,-0.696922,-0.055689,-0.714967,9.76453685760498,0.71562045812607,0.20410932600498,1.04599690437317,0.83948183059692,0.00905408989638
733,3825677763,0.004530,-0.696911,-0.055663,-0.714979,9.74884605407715,0.72183305025101,0.19491633772850,0.90161818265915,0.73158824443817,0.13751457631588
734,3825694430,0.004599,-0.696913,-0.055683,-0.714976,9.80272102355957,0.72022247314453,0.19005845487118,1.39662206172943,0.61543470621109,0.17008112370968
735,3825711097,0.004645,-0.696918,-0.055708,-0.714969,9.86325263977051,0.71708595752716,0.20378255844116,1.27897024154663,0.57230299711227,0.03768908604980
736,3825727764,0.004688,-0.696937,-0.055716,-0.714950,9.86435890197754,0.70080190896988,0.24369898438454,1.18244874477386,0.45069381594658,0.10530661046505
737,3825744431,0.004676,-0.696942,-0.055662,-0.714949,9.80843734741211,0.70497238636017,0.25547945499420,0.61414128541946,0.58663326501846,0.13216152787209
738,3825761098,0.004636,-0.696924,-0.055584,-0.714973,9.79127216339111,0.73948013782501,0.24234768748283,0.34128922224045,0.80408501625061,0.09406263381243
739,3825777765,0.004561,-0.696904,-0.055447,-0.715003,9.77448844909668,0.74872469902039,0.23660199344158,-0.02408234030008,0.83569109439850,0.20777022838593
740,3825794432,0.004445,-0.696891,-0.055276,-0.715030,9.74932384490967,0.71577733755112,0.22920930385590,-0.44256821274757,0.77577024698257,0.16718690097332
741,3825811099,0.004352,-0.696883,-0.055169,-0.715047,9.74797248840332,0.64911741018295,0.23488529026508,-0.02221261523664,0.70123738050461,-0.01792248710990
742,3825827766,0.004294,-0.696893,-0.055170,-0.715037,9.76721668243408,0.64502662420273,0.22298997640610,0.69585853815079,0.49666863679886,-0.36147841811180
743,3825844433,0.004304,-0.696877,-0.055254,-0.715046,9.79427623748779,0.67878705263138,0.19574926793575,1.37362182140350,0.73519968986511,-0.43531981110573
744,3825861100,0.004328,-0.696860,-0.055350,-0.715055,9.81366729736328,0.67208921909332,0.19421143829823,1.51253247261047,0.74335747957230,-0.41933754086494
745,3825877767,0.004338,-0.696867,-0.055433,-0.715042,9.83207511901855,0.71107512712479,0.19597487151623,1.41300153732300,0.52225577831268,-0.41896614432335
746,3825894434,0.004326,-0.696903,-0.055523,-0.715000,9.82352733612061,0.71521908044815,0.20662412047386,1.35254251956940,0.23294752836227,-0.54423785209656
747,3825911101,0.004301,-0.696960,-0.055563,-0.714941,9.83035087585449,0.75457477569580,0.21868999302387,1.01728522777557,0.03703596070409,-0.37025076150894
748,3825927768,0.004269,-0.697016,-0.055558,-0.714887,9.81871986389160,0.76176434755325,0.20601120591164,0.76498740911484,0.06716930866241,-0.18055033683777
749,3825944435,0.004226,-0.697051,-0.055520,-0.714856,9.78549003601074,0.75080358982086,0.22118109464645,0.55546265840530,0.28159880638123,-0.09341590851545
750,3825961102,0.004159,-0.697087,-0.055445,-0.714827,9.80484199523926,0.74643355607986,0.24417266249657,0.25224664807320,0.27865335345268,-0.02438968978822
751,3825977769,0.004129,-0.697140,-0.055379,-0.714782,9.79411983489990,0.71285611391068,0.27239972352982,0.45270445942879,0.12665478885174,0.11240132898092
752,3825994436,0.004080,-0.697159,-0.055348,-0.714765,9.79626846313477,0.67150086164474,0.25221201777458,0.53191173076630,0.42118796706200,-0.15488637983799
753,3826011103,0.004035,-0.697141,-0.055408,-0.714779,9.81828212738037,0.71131986379623,0.24317103624344,1.02819633483887,0.75209134817123,-0.59369599819183
754,3826027770,0.004034,-0.697089,-0.055483,-0.714823,9.84326553344727,0.75631290674210,0.19531646370888,1.30038249492645,1.08054864406586,-0.45698827505112
755,3826044437,0.004070,-0.697022,-0.055533,-0.714885,9.84428215026855,0.75127649307251,0.18463955819607,1.31970703601837,1.24870860576630,-0.16807691752911
756,3826061104,0.004125,-0.696979,-0.055552,-0.714924,9.81172370910645,0.75035256147385,0.21525719761848,1.26547217369080,1.03527808189392,0.09226974844933
757,3826077771,0.004187,-0.696981,-0.055554,-0.714923,9.77573966979980,0.73817455768585,0.23573046922684,1.20016002655029,0.62035244703293,0.22073026001453
758,3826094438,0.004205,-0.696980,-0.055514,-0.714926,9.76355361938477,0.74649620056152,0.24149198830128,0.82113027572632,0.64510697126389,0.20747566223145
759,3826111105,0.004171,-0.696954,-0.055423,-0.714959,9.76436519622803,0.74670410156250,0.19602650403976,0.33416891098022,0.88603293895721,0.18516702950001
760,3826127772,0.004112,-0.696929,-0.055331,-0.714990,9.79884338378906,0.68628937005997,0.21417038142681,0.23413848876953,0.86969202756882,0.06440313160419
761,3826144439,0.004065,-0.696919,-0.055275,-0.715005,9.79719161987305,0.68336874246597,0.21624113619328,0.45895391702652,0.72419899702072,-0.03653011098504
762,3826161106,0.004049,-0.696916,-0.055278,-0.715008,9.80517292022705,0.69582593441010,0.22258591651917,0.83383417129517,0.63761532306671,-0.16607913374901
763,3826177773,0.004058,-0.696924,-0.055314,-0.714998,9.80124282836914,0.71616476774216,0.22088441252708,1.20334875583649,0.52805703878403,-0.19668632745743
764,3826194440,0.004095,-0.696944,-0.055365,-0.714974,9.78344917297363,0.71262001991272,0.25910755991936,1.37528693675995,0.41233885288239,-0.13433220982552
