sep=,
DeviceTag:,E
FirmwareVersion:,3.0.0
AppVersion:,2023.6.0
StartTime: ,2024-03-14_11:59:11_000 EDT
© Movella Technologies B. V. 2005-2024

PacketCounter,SampleTimeFine,Quat_W,Quat_X,Quat_Y,Quat_Z,Acc_X,Acc_Y,Acc_Z,Gyr_X,Gyr_Y,Gyr_Z
0,3813477519,0.717066,0.063430,0.229717,0.654999,0.00000000000000,0.00000000000000,0.00000000000000,0.00000000000000,0.00000000000000,0.00000000000000
1,3813494186,0.716785,0.063348,0.229761,0.655299,-2.35401487350464,3.74934267997742,8.57166290283203,1.59386563301086,-0.21707405149937,0.32156747579575
2,3813510853,0.716682,0.063342,0.229847,0.655382,-2.36735105514526,3.75128364562988,8.59459018707275,1.93657612800598,0.08837661147118,0.31937754154205
3,3813527520,0.716654,0.063312,0.229901,0.655396,-2.35482001304626,3.76924467086792,8.58276462554932,1.57077574729919,0.16015620529652,0.23228158056736
4,3813544187,0.716649,0.063267,0.229926,0.655397,-2.36196780204773,3.79547286033630,8.58906555175781,1.35004544258118,0.09999198466539,0.18953397870064
5,3813560854,0.716574,0.063203,0.229958,0.655475,-2.38937687873840,3.77702736854553,8.56738948822021,1.35635888576508,0.09389615803957,0.24342308938503
6,3813577521,0.716308,0.063109,0.230057,0.655739,-2.37464618682861,3.77853536605835,8.59322834014893,1.73880791664124,0.23744253814220,0.38011810183525
7,3813594188,0.716124,0.063024,0.230127,0.655923,-2.36097979545593,3.77988934516907,8.59793567657471,1.56415462493896,0.15955430269241,0.28654208779335
8,3813610855,0.715954,0.062949,0.230147,0.656109,-2.36791515350342,3.75315976142883,8.59203529357910,1.34652364253998,-0.08388800173998,0.38070720434189
9,3813627522,0.715752,0.062898,0.230184,0.656322,-2.35366439819336,3.77847862243652,8.58574008941650,1.55937814712524,-0.13790519535542,0.52096235752106
10,3813644189,0.715674,0.062863,0.230231,0.656393,-2.37127375602722,3.78956007957458,8.57732200622559,1.52777183055878,0.12917764484882,0.44240814447403
11,3813660856,0.715722,0.062879,0.230264,0.656329,-2.37566709518433,3.75767850875854,8.57664299011230,1.56165742874146,0.09087385237217,0.45488151907921
12,3813677523,0.715593,0.062844,0.230293,0.656462,-2.37757110595703,3.77695059776306,8.59729290008545,1.54598259925842,-0.14073537290096,0.36585178971291
13,3813694190,0.715422,0.062778,0.230325,0.656644,-2.36267971992493,3.75134015083313,8.59542846679688,1.46309983730316,-0.09775727242231,0.31333297491074
14,3813710857,0.715321,0.062730,0.230360,0.656746,-2.38304996490479,3.78209304809570,8.59543228149414,1.48271930217743,0.00516095897183,0.31757187843323
15,3813727524,0.715252,0.062681,0.230398,0.656813,-2.36139988899231,3.76907134056091,8.61112117767334,1.45170223712921,0.07585200667381,0.24186073243618
16,3813744191,0.715354,0.062716,0.230417,0.656691,-2.38143801689148,3.77306628227234,8.56466579437256,1.55065691471100,-0.02477388456464,0.31705963611603
17,3813760858,0.715234,0.062675,0.230462,0.656810,-2.37840867042542,3.79963707923889,8.58261299133301,1.58167386054993,-0.01317133009434,0.34016224741936
18,3813777525,0.715194,0.062637,0.230481,0.656850,-2.37952518463135,3.76773142814636,8.59158515930176,1.38058841228485,-0.01096863672137,0.27066218852997
19,3813794192,0.715345,0.062682,0.230503,0.656674,-2.36594748497009,3.76755142211914,8.58641624450684,1.56663906574249,0.04080102965236,0.26241490244865
20,3813810859,0.715134,0.062615,0.230551,0.656894,-2.38564205169678,3.79141879081726,8.59423351287842,1.59100961685181,-0.08547597378492,0.31558686494827
21,3813827526,0.715096,0.062590,0.230564,0.656932,-2.37594580650330,3.77802038192749,8.58220672607422,1.39290809631348,-0.06260383874178,0.35736119747162
22,3813844193,0.714998,0.062526,0.230592,0.657036,-2.39491581916809,3.75964951515198,8.59776687622070,1.39362549781799,-0.01543805561960,0.17137458920479
23,3813860860,0.714988,0.062529,0.230588,0.657048,-2.38571882247925,3.78006124496460,8.61341762542725,1.46713387966156,-0.29728019237518,0.22366288304329
24,3813877527,0.715127,0.062581,0.230569,0.656898,-2.38916420936584,3.78849434852600,8.58673763275146,1.46782541275024,-0.29698568582535,0.15715953707695
25,3813894194,0.714878,0.062467,0.230591,0.657172,-2.38504338264465,3.76845479011536,8.56096553802490,1.34132444858551,-0.20211622118950,0.08178135007620
26,3813910861,0.714960,0.062531,0.230616,0.657068,-2.37457823753357,3.76520991325378,8.58610916137695,1.76769900321960,-0.17059981822968,0.31661140918732
27,3813927528,0.714800,0.062479,0.230665,0.657230,-2.35974740982056,3.78516292572021,8.58603096008301,1.61967015266418,-0.07354046404362,0.23977325856686
28,3813944195,0.714477,0.062355,0.230721,0.657573,-2.35022306442261,3.76118397712708,8.59084224700928,1.50488698482513,-0.06498581916094,0.25158074498177
29,3813960862,0.714536,0.062349,0.230709,0.657514,-2.39198565483093,3.78224849700928,8.60118579864502,1.29714238643646,-0.16011138260365,0.16449756920338
30,3813977529,0.714525,0.062329,0.230699,0.657532,-2.39586615562439,3.77578020095825,8.59856319427490,1.31790149211884,-0.21928955614567,0.20989608764648
31,3813994196,0.714589,0.062387,0.230717,0.657450,-2.39485621452332,3.77602124214172,8.56448173522949,1.70150303840637,-0.18781153857708,0.39686882495880
32,3814010863,0.714424,0.062370,0.230729,0.657626,-2.37543797492981,3.78459548950195,8.57277965545654,1.56640887260437,-0.32938575744629,0.56196832656860
33,3814027530,0.714497,0.062421,0.230701,0.657552,-2.36174607276917,3.78025865554810,8.57036876678467,1.39265215396881,-0.30741003155708,0.58663326501846
34,3814044197,0.714426,0.062409,0.230727,0.657621,-2.36745929718018,3.75708913803101,8.55022048950195,1.52734923362732,-0.05360097438097,0.52152574062347
35,3814060864,0.714272,0.062398,0.230821,0.657756,-2.39125418663025,3.77461409568787,8.57958316802979,1.94600164890289,0.13568326830864,0.56008565425873
36,3814077531,0.714221,0.062435,0.230921,0.657773,-2.38222002983093,3.77953243255615,8.59035396575928,2.06590771675110,0.19429793953896,0.60634225606918
37,3814094198,0.713890,0.062330,0.231009,0.658111,-2.38777279853821,3.77843475341797,8.59445476531982,1.71295177936554,0.09676478803158,0.41422140598297
38,3814110865,0.713873,0.062339,0.231053,0.658114,-2.36424207687378,3.75763654708862,8.58185100555420,1.69594502449036,-0.03467319533229,0.30622544884682
39,3814127532,0.713841,0.062315,0.231047,0.658153,-2.39433813095093,3.77627563476562,8.56698513031006,1.33466494083405,-0.20994091033936,0.24901948869228
40,3814144199,0.713766,0.062284,0.231083,0.658225,-2.38084554672241,3.76521039009094,8.55011367797852,1.54151320457458,-0.01965134404600,0.28650367259979
41,3814160866,0.713607,0.062243,0.231151,0.658377,-2.38421797752380,3.78528451919556,8.58204841613770,1.72408056259155,0.05264690890908,0.38525345921516
42,3814177533,0.713542,0.062209,0.231206,0.658432,-2.37999582290649,3.80452847480774,8.60391902923584,1.59980773925781,0.11241413652897,0.25854739546776
43,3814194200,0.713401,0.062150,0.231237,0.658579,-2.38500714302063,3.78663921356201,8.56342029571533,1.45941162109375,-0.06067007780075,0.31215476989746
44,3814210867,0.713301,0.062117,0.231290,0.658671,-2.37917590141296,3.77262258529663,8.57413291931152,1.67430210113525,-0.03218875825405,0.16854436695576
45,3814227534,0.713458,0.062185,0.231338,0.658478,-2.37378907203674,3.77338933944702,8.57214260101318,1.83009135723114,0.03050472214818,0.12488750368357
46,3814244201,0.713319,0.062132,0.231382,0.658619,-2.37887907028198,3.79949188232422,8.57689952850342,1.54325485229492,-0.00891962181777,0.29151093959808
47,3814260868,0.713443,0.062187,0.231427,0.658463,-2.39565157890320,3.79018878936768,8.59049701690674,1.75712096691132,0.07147224992514,0.27821797132492
48,3814277535,0.713474,0.062211,0.231461,0.658416,-2.39371490478516,3.79002571105957,8.57162857055664,1.66928207874298,-0.05968399345875,0.28467234969139
49,3814294202,0.713137,0.062127,0.231556,0.658755,-2.39664602279663,3.79359555244446,8.57897758483887,1.93053138256073,-0.09520880132914,0.15845295786858
50,3814310869,0.713098,0.062137,0.231601,0.658780,-2.38618922233582,3.78461003303528,8.55772781372070,1.78936731815338,-0.15410521626472,0.15213945508003
51,3814327536,0.712833,0.062057,0.231667,0.659052,-2.36781930923462,3.78330326080322,8.57590579986572,1.67942488193512,-0.05214106291533,0.30230671167374
52,3814344203,0.712683,0.062004,0.231728,0.659197,-2.39359784126282,3.81203842163086,8.58321285247803,1.64756906032562,0.05093726143241,0.26963129639626
53,3814360870,0.712841,0.062055,0.231776,0.659005,-2.39080190658569,3.77532029151917,8.57553672790527,1.68498265743256,0.20175121724606,0.30032169818878
54,3814377537,0.712513,0.061939,0.231907,0.659324,-2.39677381515503,3.81224846839905,8.57447719573975,1.88387799263000,0.33692225813866,0.26831862330437
55,3814394204,0.712725,0.062021,0.231948,0.659073,-2.39745450019836,3.77780508995056,8.57301998138428,1.75568664073944,0.11433509737253,0.23550879955292
56,3814410871,0.712711,0.062032,0.231993,0.659071,-2.38384413719177,3.78106689453125,8.58700942993164,1.75648057460785,-0.09185354411602,0.15567399561405
57,3814427538,0.712835,0.062077,0.232014,0.658925,-2.38913440704346,3.80123734474182,8.57246017456055,1.60064017772675,-0.03418654948473,0.21203474700451
58,3814444205,0.713064,0.062155,0.232021,0.658668,-2.39356327056885,3.80892586708069,8.56015300750732,1.56378340721130,-0.02645151689649,0.22011554241180
59,3814460872,0.713118,0.062174,0.232051,0.658597,-2.39840483665466,3.78259921073914,8.56232643127441,1.59167563915253,0.00769661692902,0.27688610553741
60,3814477539,0.713155,0.062167,0.232072,0.658549,-2.39761376380920,3.82186055183411,8.56892490386963,1.46270287036896,-0.00715234689415,0.17318028211594
61,3814494206,0.713278,0.062191,0.232064,0.658418,-2.41252565383911,3.79668259620667,8.56866359710693,1.37960255146027,-0.12805709242821,0.16239732503891
62,3814510873,0.713192,0.062161,0.232090,0.658504,-2.39508128166199,3.80787038803101,8.58083724975586,1.53245902061462,-0.14845760166645,0.20976801216602
63,3814527540,0.712860,0.062032,0.232134,0.658860,-2.39185881614685,3.81614875793457,8.58921432495117,1.47900533676147,-0.18175414204597,0.09789174795151
64,3814544207,0.712681,0.061967,0.232161,0.659050,-2.39250349998474,3.78994607925415,8.55150508880615,1.49024927616119,-0.19526483118534,0.18885523080826
65,3814560874,0.712777,0.062031,0.232157,0.658941,-2.38934206962585,3.77483844757080,8.55541324615479,1.61162781715393,-0.31751421093941,0.29162618517876
66,3814577541,0.712738,0.062017,0.232176,0.658979,-2.38848543167114,3.80275845527649,8.57088279724121,1.48339784145355,-0.09733466058969,0.33984208106995
67,3814594208,0.712493,0.061895,0.232168,0.659257,-2.40354275703430,3.81901049613953,8.56242084503174,1.08171403408051,-0.18421295285225,0.34493908286095
68,3814610875,0.712443,0.061840,0.232146,0.659325,-2.39103436470032,3.77081871032715,8.59261608123779,1.10041117668152,-0.15804955363274,0.32173389196396
69,3814627542,0.712262,0.061794,0.232167,0.659517,-2.39725780487061,3.81279778480530,8.56306648254395,1.50603950023651,-0.22096717357635,0.42155942320824
70,3814644209,0.712222,0.061813,0.232157,0.659562,-2.38319563865662,3.80806684494019,8.57827854156494,1.50638520717621,-0.38584885001183,0.42105990648270
71,3814660876,0.712201,0.061781,0.232081,0.659614,-2.38426351547241,3.79405164718628,8.54944515228271,0.93004828691483,-0.49951803684235,0.35003593564034
72,3814677543,0.712268,0.061768,0.232017,0.659567,-2.38902282714844,3.77953243255615,8.56764602661133,0.98573035001755,-0.35898113250732,0.24399936199188
73,3814694210,0.712109,0.061679,0.232008,0.659749,-2.38934540748596,3.78885602951050,8.56935119628906,1.16983449459076,-0.22902238368988,0.18854789435863
74,3814710877,0.712026,0.061644,0.231986,0.659849,-2.40241146087646,3.80582356452942,8.55862712860107,1.27652406692505,-0.36395007371902,0.26158249378204
75,3814727544,0.712127,0.061690,0.231904,0.659765,-2.39166235923767,3.78461217880249,8.56443119049072,1.11219310760498,-0.58135062456131,0.45374178886414
76,3814744211,0.712132,0.061713,0.231881,0.659765,-2.38653993606567,3.78445148468018,8.57900619506836,1.39703202247620,-0.37496352195740,0.44057682156563
77,3814760878,0.712118,0.061695,0.231839,0.659798,-2.36929988861084,3.78293919563293,8.55509281158447,1.14743614196777,-0.36533319950104,0.34208321571350
78,3814777545,0.712075,0.061658,0.231819,0.659854,-2.39329600334167,3.80498790740967,8.55315399169922,1.23505723476410,-0.27320429682732,0.19408023357391
79,3814794212,0.712204,0.061674,0.231787,0.659724,-2.40664291381836,3.77801752090454,8.58193492889404,1.20451414585114,-0.18609547615051,0.20011201500893
80,3814810879,0.712161,0.061657,0.231780,0.659775,-2.39047217369080,3.77451181411743,8.56835365295410,1.34989798069000,-0.22896473109722,0.36304080486298
81,3814827546,0.712192,0.061659,0.231757,0.659749,-2.38828325271606,3.81083321571350,8.59344577789307,1.26084923744202,-0.20834010839462,0.39042723178864
82,3814844213,0.712087,0.061617,0.231737,0.659874,-2.39133191108704,3.80523753166199,8.55776596069336,1.20361757278442,-0.25585165619850,0.51840108633041
83,3814860880,0.711957,0.061576,0.231721,0.660024,-2.39570903778076,3.77793860435486,8.57356929779053,1.28666675090790,-0.32814350724220,0.43595373630524
84,3814877547,0.711774,0.061540,0.231747,0.660216,-2.36850476264954,3.75960636138916,8.57613372802734,1.57438695430756,-0.24276354908943,0.45134696364403
85,3814894214,0.711693,0.061543,0.231757,0.660299,-2.39156794548035,3.79374146461487,8.57172584533691,1.58392786979675,-0.32098478078842,0.36623600125313
86,3814910881,0.711663,0.061524,0.231705,0.660352,-2.38800406455994,3.78805780410767,8.57844448089600,1.14312040805817,-0.48585373163223,0.25994327664375
87,3814927548,0.711616,0.061489,0.231646,0.660426,-2.39222693443298,3.78217816352844,8.56749153137207,1.04429376125336,-0.46765586733818,0.29968139529228
88,3814944215,0.711685,0.061495,0.231609,0.660364,-2.38457989692688,3.78249263763428,8.57184886932373,1.20423221588135,-0.29877853393555,0.24351273477077
89,3814960882,0.711629,0.061448,0.231577,0.660440,-2.39900422096252,3.79767513275146,8.59294509887695,1.14944684505463,-0.32313624024391,0.16687954962254
90,3814977549,0.712073,0.061595,0.231468,0.659985,-2.40597581863403,3.78561592102051,8.58135414123535,1.09811902046204,-0.53641319274902,0.20762935280800
91,3814994216,0.712115,0.061613,0.231419,0.659956,-2.40290665626526,3.78458428382874,8.58369731903076,1.24120426177979,-0.47886148095131,0.29426431655884
92,3815010883,0.712091,0.061605,0.231408,0.659986,-2.38250827789307,3.80644202232361,8.56196117401123,1.34692072868347,-0.23858867585659,0.36463519930840
93,3815027550,0.712039,0.061579,0.231394,0.660049,-2.38886237144470,3.78669524192810,8.56457996368408,1.29450428485870,-0.25514730811119,0.32907196879387
94,3815044217,0.712222,0.061606,0.231323,0.659875,-2.38400220870972,3.76919007301331,8.56176376342773,0.99327331781387,-0.31262221932411,0.24544650316238
95,3815060884,0.712287,0.061589,0.231281,0.659821,-2.38919472694397,3.77824425697327,8.57752704620361,1.05929005146027,-0.20722593367100,0.27775689959526
96,3815077551,0.712296,0.061556,0.231257,0.659823,-2.38716864585876,3.79406619071960,8.58054161071777,1.13990592956543,-0.16747502982616,0.24682956933975
97,3815094218,0.712324,0.061538,0.231222,0.659806,-2.38990402221680,3.76871204376221,8.59756183624268,1.13822841644287,-0.23908813297749,0.28512057662010
98,3815110885,0.712289,0.061523,0.231214,0.659848,-2.38595414161682,3.79582667350769,8.57792949676514,1.33002901077271,-0.20558673143387,0.38775068521500
99,3815127552,0.712162,0.061459,0.231167,0.660008,-2.39095520973206,3.78587532043457,8.56446552276611,1.00769329071045,-0.36716446280479,0.49117469787598
100,3815144219,0.712021,0.061429,0.231168,0.660162,-2.39483380317688,3.78266096115112,8.58072566986084,1.43419611454010,-0.31826984882355,0.42504277825356
101,3815160886,0.712027,0.061432,0.231140,0.660165,-2.39085698127747,3.79119324684143,8.57455158233643,1.29590010643005,-0.33527663350105,0.33384874463081
102,3815177553,0.711973,0.061390,0.231124,0.660233,-2.38226652145386,3.79529547691345,8.59494876861572,1.20314383506775,-0.19634056091309,0.33072397112846
103,3815194220,0.711885,0.061318,0.231115,0.660338,-2.38866734504700,3.77488017082214,8.58322525024414,1.13678121566772,-0.12023241072893,0.23612345755100
104,3815210887,0.711973,0.061324,0.231081,0.660254,-2.38862442970276,3.79039382934570,8.58448886871338,1.18817317485809,-0.22740878164768,0.25917491316795
105,3815227554,0.711935,0.061291,0.231041,0.660312,-2.38478994369507,3.75648283958435,8.55452251434326,1.11036169528961,-0.32364845275879,0.34829422831535
106,3815244221,0.711820,0.061251,0.231063,0.660432,-2.39386606216431,3.76566791534424,8.58415126800537,1.45211195945740,-0.11211317777634,0.37435522675514
107,3815260888,0.711719,0.061190,0.231034,0.660556,-2.39323997497559,3.77900719642639,8.57936191558838,1.09580087661743,-0.25781103968620,0.38310194015503
108,3815277555,0.711783,0.061221,0.231030,0.660486,-2.37285423278809,3.76253819465637,8.57695960998535,1.48672747612000,-0.23591217398643,0.27505478262901
109,3815294222,0.711773,0.061191,0.231012,0.660506,-2.38099312782288,3.79922437667847,8.59950351715088,1.22086787223816,-0.20886516571045,0.20664326846600
110,3815310889,0.711696,0.061115,0.230981,0.660607,-2.39094996452332,3.77202105522156,8.56035137176514,1.01463425159454,-0.21271987259388,0.22268961369991
111,3815327556,0.711199,0.060952,0.231002,0.661150,-2.39033675193787,3.77785325050354,8.58178615570068,1.36064898967743,-0.42917284369469,0.32704854011536
112,3815344223,0.711011,0.060883,0.230974,0.661368,-2.37397003173828,3.76903653144836,8.59560012817383,1.18046379089355,-0.41445830464363,0.38323003053665
113,3815360890,0.711247,0.060992,0.230945,0.661115,-2.37573432922363,3.76680111885071,8.59482002258301,1.51221227645874,-0.32337954640388,0.37132012844086
114,3815377557,0.711385,0.061070,0.230957,0.660954,-2.37628746032715,3.79360604286194,8.59689998626709,1.67959117889404,-0.16300562024117,0.36960402131081
115,3815394224,0.711282,0.061006,0.230942,0.661077,-2.38002490997314,3.78570222854614,8.57856750488281,1.15801429748535,-0.19815906882286,0.30995208024979
116,3815410891,0.711241,0.060973,0.230955,0.661119,-2.37405681610107,3.73604393005371,8.57657146453857,1.39756977558136,-0.09903790801764,0.18601225316525
117,3815427558,0.711013,0.060876,0.230946,0.661377,-2.38169908523560,3.79325723648071,8.58860969543457,1.21902370452881,-0.33813247084618,0.22546860575676
118,3815444225,0.710940,0.060863,0.230924,0.661464,-2.39951992034912,3.78959679603577,8.58952331542969,1.34772753715515,-0.41153845191002,0.33460432291031
119,3815460892,0.710748,0.060808,0.230913,0.661679,-2.37450909614563,3.75966000556946,8.58697319030762,1.34712553024292,-0.40759411454201,0.36144641041756
120,3815477559,0.710589,0.060763,0.230934,0.661847,-2.38769125938416,3.78263401985168,8.57100677490234,1.52531301975250,-0.25745242834091,0.23430499434471
121,3815494226,0.710636,0.060777,0.230910,0.661804,-2.39359545707703,3.76868653297424,8.57855224609375,1.35938131809235,-0.34719935059547,0.16032268106937
122,3815510893,0.710408,0.060702,0.230879,0.662066,-2.37916254997253,3.77026891708374,8.60638141632080,1.18550932407379,-0.50101643800735,0.40314385294914
123,3815527560,0.710353,0.060711,0.230813,0.662146,-2.38980388641357,3.76294469833374,8.58213043212891,1.20223450660706,-0.66251724958420,0.48314511775970
124,3815544227,0.710222,0.060694,0.230789,0.662297,-2.36796522140503,3.76748538017273,8.57522487640381,1.40282046794891,-0.53856462240219,0.35980722308159
125,3815560894,0.710097,0.060658,0.230784,0.662437,-2.37883400917053,3.77352523803711,8.56138801574707,1.40889060497284,-0.36483371257782,0.24188631772995
126,3815577561,0.710413,0.060751,0.230737,0.662105,-2.36706471443176,3.77886629104614,8.57519817352295,1.30095875263214,-0.27097594738007,0.10334724932909
127,3815594228,0.710444,0.060738,0.230718,0.662079,-2.41254734992981,3.76288819313049,8.58665657043457,1.29914033412933,-0.28497332334518,0.03423137590289
128,3815610895,0.710433,0.060732,0.230711,0.662094,-2.40496873855591,3.78088831901550,8.58436679840088,1.37299442291260,-0.22329790890217,0.31604790687561
129,3815627562,0.710307,0.060736,0.230682,0.662239,-2.38940072059631,3.78169274330139,8.61246395111084,1.44428718090057,-0.59967654943466,0.47900864481926
130,3815644229,0.710212,0.060727,0.230621,0.662364,-2.36716127395630,3.76746630668640,8.57229614257812,1.17156338691711,-0.61112540960312,0.54293805360794
131,3815660896,0.710205,0.060751,0.230592,0.662379,-2.37564682960510,3.75639820098877,8.56681919097900,1.41968631744385,-0.48326683044434,0.33290109038353
132,3815677563,0.710080,0.060715,0.230600,0.662514,-2.36783576011658,3.76651239395142,8.57535648345947,1.42447602748871,-0.22908641397953,0.38868552446365
133,3815694230,0.709983,0.060697,0.230609,0.662616,-2.38004398345947,3.77261161804199,8.58297252655029,1.50235140323639,-0.26635289192200,0.33877918124199
134,3815710897,0.709897,0.060672,0.230582,0.662719,-2.37989759445190,3.76228427886963,8.59084701538086,1.29282665252686,-0.42851963639259,0.30709627270699
135,3815727564,0.709714,0.060601,0.230549,0.662933,-2.37025094032288,3.76581859588623,8.58613491058350,1.15438997745514,-0.44781878590584,0.32998120784760
136,3815744231,0.709745,0.060588,0.230522,0.662911,-2.36730504035950,3.77061653137207,8.57943725585938,1.24252343177795,-0.29923954606056,0.09763561189175
137,3815760898,0.709701,0.060556,0.230489,0.662972,-2.37973427772522,3.76346850395203,8.58715629577637,1.17123055458069,-0.33534067869186,0.26405411958694
138,3815777565,0.709799,0.060598,0.230487,0.662864,-2.38290333747864,3.77433705329895,8.57956600189209,1.50550174713135,-0.19497668743134,0.28229039907455
139,3815794232,0.709725,0.060592,0.230456,0.662955,-2.38431048393250,3.78084683418274,8.59218120574951,1.33552300930023,-0.48648124933243,0.37900394201279
140,3815810899,0.709655,0.060598,0.230442,0.663034,-2.37166142463684,3.76884961128235,8.58611583709717,1.47413897514343,-0.44448921084404,0.38033577799797
141,3815827566,0.709668,0.060591,0.230395,0.663037,-2.36118483543396,3.75833630561829,8.59237957000732,1.15473568439484,-0.39325097203255,0.31357625126839
142,3815844233,0.709534,0.060531,0.230398,0.663185,-2.36697673797607,3.75280308723450,8.58039665222168,1.33128404617310,-0.22222219407558,0.23509895801544
143,3815860900,0.709522,0.060512,0.230406,0.663197,-2.36034870147705,3.75582718849182,8.56895160675049,1.42811286449432,-0.17578636109829,0.09589394181967
144,3815877567,0.709579,0.060486,0.230354,0.663156,-2.36723804473877,3.77827429771423,8.58077621459961,1.02067887783051,-0.30406755208969,0.12230063229799
145,3815894234,0.709485,0.060419,0.230303,0.663281,-2.37327218055725,3.78744459152222,8.61139392852783,1.00332629680634,-0.42661157250404,0.18283624947071
146,3815910901,0.709498,0.060384,0.230233,0.663294,-2.37470364570618,3.77084517478943,8.60826206207275,0.91908603906631,-0.41274222731590,0.24388413131237
147,3815927568,0.709529,0.060421,0.230202,0.663268,-2.38752222061157,3.75904798507690,8.60913848876953,1.41795742511749,-0.45172476768494,0.36857953667641
148,3815944235,0.709512,0.060436,0.230197,0.663287,-2.36960434913635,3.76342701911926,8.56896495819092,1.49989235401154,-0.33243361115456,0.31904456019402
149,3815960902,0.709486,0.060426,0.230164,0.663327,-2.37777853012085,3.77761268615723,8.58507823944092,1.24759471416473,-0.38561838865280,0.32608810067177
150,3815977569,0.709428,0.060401,0.230107,0.663411,-2.36913967132568,3.76652503013611,8.56827640533447,1.11542022228241,-0.52150660753250,0.31025946140289
151,3815994236,0.709397,0.060415,0.230087,0.663450,-2.36807990074158,3.77925062179565,8.59225463867188,1.42461681365967,-0.42014434933662,0.39681756496429
152,3816010903,0.709352,0.060394,0.230066,0.663507,-2.38959908485413,3.77399420738220,8.57853984832764,1.28582167625427,-0.30888277292252,0.29404661059380
153,3816027570,0.709273,0.060397,0.230025,0.663606,-2.36694455146790,3.75215220451355,8.58238220214844,1.36003446578979,-0.62537890672684,0.34164780378342
154,3816044237,0.709190,0.060374,0.230024,0.663697,-2.37294602394104,3.77398467063904,8.58275413513184,1.40447223186493,-0.26198589801788,0.33573126792908
155,3816060904,0.709145,0.060340,0.229992,0.663759,-2.37283349037170,3.74859476089478,8.58270740509033,1.15636229515076,-0.29875293374062,0.32389825582504
156,3816077571,0.709221,0.060363,0.229947,0.663691,-2.35490751266479,3.77390718460083,8.61995792388916,1.25401055812836,-0.43247681856155,0.21442951261997
157,3816094238,0.709141,0.060339,0.229887,0.663800,-2.37867760658264,3.76602458953857,8.59288978576660,1.13808751106262,-0.59797328710556,0.30393311381340
158,3816110905,0.709054,0.060336,0.229862,0.663901,-2.36029219627380,3.78024816513062,8.58545780181885,1.40016949176788,-0.49687999486923,0.37349718809128
159,3816127572,0.709016,0.060316,0.229808,0.663963,-2.36418890953064,3.75678539276123,8.58423709869385,1.10648143291473,-0.45910125970840,0.37945216894150
160,3816144239,0.708861,0.060266,0.229770,0.664146,-2.37067556381226,3.75240540504456,8.60354804992676,1.18432474136353,-0.49563133716583,0.38034215569496
161,3816160906,0.708874,0.060284,0.229771,0.664131,-2.35924148559570,3.75421333312988,8.58256244659424,1.51869237422943,-0.27743035554886,0.26118552684784
162,3816177573,0.708829,0.060249,0.229760,0.664185,-2.36672568321228,3.77162504196167,8.57368087768555,1.26775169372559,-0.20798152685165,0.23148757219315
163,3816194240,0.708822,0.060235,0.229749,0.664198,-2.35217761993408,3.75150060653687,8.56057834625244,1.31459736824036,-0.20275653898716,0.30161511898041
164,3816210907,0.708830,0.060239,0.229726,0.664196,-2.34912252426147,3.78021550178528,8.59174537658691,1.31138312816620,-0.29318216443062,0.37119203805923
165,3816227574,0.708725,0.060224,0.229711,0.664315,-2.36179542541504,3.78507733345032,8.59817600250244,1.38446891307831,-0.39558178186417,0.43883517384529
166,3816244241,0.708697,0.060232,0.229670,0.664358,-2.36467576026917,3.72852349281311,8.61155223846436,1.29003477096558,-0.48900410532951,0.40433487296104
167,3816260908,0.708513,0.060206,0.229703,0.664546,-2.36131024360657,3.75084424018860,8.61091613769531,1.66357052326202,-0.25595408678055,0.43686297535896
168,3816277575,0.708469,0.060192,0.229668,0.664606,-2.35693669319153,3.76467299461365,8.58083534240723,1.24849104881287,-0.41917103528976,0.31757187843323
169,3816294242,0.708338,0.060153,0.229684,0.664744,-2.35666251182556,3.74226617813110,8.57102012634277,1.48047792911530,-0.23397840559483,0.27178913354874
170,3816310909,0.708212,0.060073,0.229676,0.664888,-2.35699677467346,3.76642203330994,8.58346652984619,1.19630515575409,-0.21083734929562,0.13413371145725
171,3816327576,0.708129,0.060047,0.229702,0.664970,-2.33752083778381,3.76139140129089,8.58772659301758,1.50708961486816,-0.09511915594339,0.33670455217361
172,3816344243,0.708035,0.059984,0.229711,0.665072,-2.34594774246216,3.76667141914368,8.60807418823242,1.28543734550476,-0.07844530045986,0.22822196781635
173,3816360910,0.707759,0.059839,0.229733,0.665372,-2.37152361869812,3.75584363937378,8.59277343750000,1.18087351322174,-0.05194895714521,0.16326816380024
174,3816377577,0.707567,0.059747,0.229757,0.665576,-2.38464045524597,3.74707102775574,8.58447170257568,1.33805871009827,-0.06885334104300,0.23804445564747
175,3816394244,0.707433,0.059715,0.229785,0.665711,-2.39109349250793,3.78286838531494,8.60072517395020,1.52157366275787,-0.11849076300859,0.46849474310875
176,3816410911,0.707216,0.059677,0.229837,0.665928,-2.37467503547668,3.77885150909424,8.57729625701904,1.68322813510895,-0.09091867506504,0.59404814243317
177,3816427578,0.707062,0.059648,0.229866,0.666083,-2.35933637619019,3.74770355224609,8.58229732513428,1.52946221828461,-0.09928122162819,0.62502664327621
178,3816444245,0.706977,0.059620,0.229887,0.666169,-2.34931635856628,3.76206994056702,8.56015014648438,1.41930210590363,-0.00885559152812,0.58320122957230
179,3816460912,0.706881,0.059577,0.229940,0.666256,-2.34831428527832,3.76236486434937,8.57958793640137,1.53972029685974,0.14444282650948,0.41059723496437
180,3816477579,0.706765,0.059534,0.229985,0.666368,-2.37538981437683,3.77613401412964,8.58432483673096,1.55549764633179,0.01860762573779,0.34541285037994
181,3816494246,0.706699,0.059499,0.230012,0.666432,-2.35911607742310,3.74694776535034,8.61597728729248,1.50719201564789,-0.10709308832884,0.11277271807194
182,3816510913,0.706628,0.059432,0.230055,0.666498,-2.36021065711975,3.76381874084473,8.60049533843994,1.42774164676666,0.10918694734573,0.05004721879959
183,3816527580,0.706858,0.059478,0.230063,0.666247,-2.38320231437683,3.75975632667542,8.58017921447754,1.44419777393341,0.06062525883317,0.07965549826622
184,3816544247,0.706732,0.059402,0.230072,0.666384,-2.37173962593079,3.78112435340881,8.56771755218506,1.26999270915985,-0.10764376819134,0.18694707751274
185,3816560914,0.706711,0.059368,0.230066,0.666412,-2.37170457839966,3.76515173912048,8.59475708007812,1.25240981578827,-0.12804429233074,0.25996887683868
186,3816577581,0.706610,0.059303,0.230083,0.666519,-2.36191987991333,3.76256394386292,8.58803653717041,1.29654049873352,-0.00319518428296,0.31568935513496
187,3816594248,0.706705,0.059305,0.230099,0.666412,-2.37344956398010,3.75991630554199,8.58409118652344,1.35164618492126,0.13757862150669,0.35211059451103
188,3816610915,0.706703,0.059279,0.230120,0.666410,-2.36997032165527,3.74422264099121,8.57702159881592,1.39764654636383,0.02362771704793,0.25205457210541
189,3816627582,0.706665,0.059234,0.230136,0.666448,-2.38078641891479,3.74136352539062,8.58889770507812,1.31781172752380,0.02405032515526,0.26218438148499
190,3816644249,0.706632,0.059209,0.230177,0.666472,-2.35777807235718,3.76905369758606,8.59263229370117,1.53008985519409,0.07171555608511,0.27185317873955
191,3816660916,0.706588,0.059167,0.230204,0.666512,-2.37170529365540,3.77268481254578,8.58540344238281,1.40091228485107,0.03307880461216,0.23262733221054
192,3816677583,0.706499,0.059109,0.230242,0.666599,-2.37178850173950,3.76391267776489,8.60458278656006,1.39799225330353,0.13645166158676,0.35663124918938
193,3816694250,0.706510,0.059088,0.230268,0.666580,-2.37371611595154,3.74561357498169,8.58718013763428,1.40763556957245,0.08609709143639,0.31001609563828
194,3816710917,0.706391,0.059034,0.230313,0.666696,-2.37125253677368,3.76366138458252,8.56683063507080,1.50089144706726,0.07649233937263,0.35974317789078
195,3816727584,0.706251,0.058984,0.230374,0.666827,-2.37505912780762,3.75615406036377,8.58289623260498,1.59349417686462,0.13704076409340,0.42190515995026
196,3816744251,0.706121,0.058935,0.230423,0.666952,-2.38125896453857,3.77745103836060,8.60451793670654,1.56439816951752,0.03260497003794,0.33772906661034
197,3816760918,0.706024,0.058870,0.230463,0.667046,-2.37185716629028,3.74947619438171,8.57225131988525,1.39791536331177,0.12369652837515,0.28638839721680
198,3816777585,0.705958,0.058822,0.230526,0.667099,-2.37825822830200,3.78109860420227,8.57676219940186,1.54933798313141,0.24849443137646,0.29646700620651
199,3816794252,0.705798,0.058727,0.230603,0.667250,-2.37446784973145,3.76340889930725,8.57328224182129,1.49993073940277,0.34190389513969,0.29253542423248
200,3816810919,0.705770,0.058677,0.230695,0.667252,-2.37564373016357,3.75415110588074,8.56878376007080,1.62109184265137,0.49855118989944,0.25310471653938
201,3816827586,0.705743,0.058630,0.230795,0.667251,-2.37816548347473,3.76121711730957,8.60524845123291,1.63608789443970,0.59573853015900,0.42103433609009
202,3816844253,0.705515,0.058499,0.230879,0.667473,-2.37741518020630,3.77034378051758,8.59207439422607,1.42669141292572,0.43126660585403,0.32703575491905
203,3816860920,0.705435,0.058409,0.230939,0.667545,-2.38721895217896,3.77365994453430,8.56853199005127,1.35746026039124,0.37540534138680,0.20474793016911
204,3816877587,0.705307,0.058360,0.230957,0.667678,-2.40860128402710,3.75881624221802,8.60389518737793,1.39717292785645,-0.10651682317257,0.38864710927010
205,3816894254,0.705236,0.058340,0.230998,0.667741,-2.38803601264954,3.77243804931641,8.57785320281982,1.59111213684082,-0.01530999131501,0.33516779541969
206,3816910921,0.705274,0.058334,0.231004,0.667699,-2.39049887657166,3.78803181648254,8.60842418670654,1.34519171714783,-0.00824088603258,0.37452167272568
207,3816927588,0.705184,0.058270,0.231022,0.667794,-2.37831115722656,3.75667524337769,8.57942199707031,1.28475880622864,0.02421681024134,0.29576265811920
208,3816944255,0.705177,0.058261,0.231064,0.667788,-2.39994859695435,3.74168062210083,8.58433532714844,1.53694140911102,0.13070160150528,0.44055125117302
209,3816960922,0.704986,0.058182,0.231076,0.667993,-2.38928556442261,3.78048253059387,8.58953475952148,1.30045926570892,-0.12060379981995,0.40982881188393
210,3816977589,0.704845,0.058128,0.231093,0.668140,-2.38948178291321,3.76372361183167,8.57269001007080,1.39294672012329,-0.13102817535400,0.36115187406540
211,3816994256,0.704827,0.058104,0.231073,0.668168,-2.39035534858704,3.75181984901428,8.60751152038574,1.27812504768372,-0.30943340063095,0.11642253398895
212,3817010923,0.704809,0.058088,0.231054,0.668195,-2.40263938903809,3.76433730125427,8.59977436065674,1.31596779823303,-0.33125546574593,0.15044899284840
213,3817027590,0.704738,0.058045,0.231037,0.668279,-2.40299916267395,3.77263259887695,8.57884216308594,1.27930319309235,-0.33600661158562,0.08399684727192
214,3817044257,0.704687,0.058006,0.231007,0.668347,-2.37318277359009,3.76033806800842,8.57654285430908,1.14689815044403,-0.28857189416885,0.28988450765610
215,3817060924,0.704719,0.057997,0.230979,0.668323,-2.39134097099304,3.75746083259583,8.59344863891602,1.19912266731262,-0.22025001049042,0.30481675267220
216,3817077591,0.704720,0.057974,0.230987,0.668322,-2.36945962905884,3.75984597206116,8.59466361999512,1.33308982849121,-0.04534088447690,0.29343190789223
217,3817094258,0.704577,0.057887,0.231041,0.668461,-2.39270973205566,3.75524115562439,8.56575393676758,1.40773808956146,0.22279205918312,0.30823600292206
218,3817110925,0.704369,0.057756,0.231126,0.668662,-2.38731789588928,3.74378252029419,8.58650875091553,1.43732059001923,0.42980667948723,0.20688655972481
219,3817127592,0.704436,0.057773,0.231266,0.668542,-2.40176320075989,3.75490522384644,8.59469604492188,2.07391166687012,0.61913579702377,0.21521072089672
220,3817144259,0.704438,0.057756,0.231476,0.668469,-2.37751317024231,3.76800012588501,8.60615539550781,2.23782014846802,1.15896189212799,0.47260555624962
221,3817160926,0.704254,0.057667,0.231738,0.668580,-2.37344980239868,3.76446676254272,8.56938648223877,2.27475333213806,1.52633750438690,0.77168500423431
222,3817177593,0.704214,0.057596,0.231904,0.668570,-2.38500642776489,3.77677917480469,8.57224082946777,1.81401956081390,1.08364772796631,0.45561149716377
223,3817194260,0.704399,0.057625,0.232034,0.668328,-2.40935635566711,3.75816464424133,8.55631446838379,1.83042454719543,0.92821705341339,0.53212946653366
224,3817210927,0.704408,0.057623,0.232085,0.668300,-2.44352269172668,3.80370068550110,8.58274459838867,1.59099674224854,0.17681726813316,0.41117346286774
225,3817227594,0.704433,0.057601,0.232107,0.668268,-2.40866374969482,3.75782489776611,8.56577873229980,1.35356724262238,0.13058635592461,0.35528656840324
226,3817244261,0.704515,0.057642,0.232183,0.668152,-2.42121744155884,3.78051972389221,8.57421588897705,1.84985148906708,0.22852930426598,0.33639717102051
227,3817260928,0.704431,0.057591,0.232233,0.668227,-2.40459847450256,3.75248837471008,8.56732273101807,1.50747394561768,0.14029356837273,0.25548672676086
228,3817277595,0.704326,0.057565,0.232281,0.668323,-2.42906570434570,3.77077674865723,8.57874679565430,1.63661313056946,-0.02321150898933,0.33854869008064
229,3817294262,0.704356,0.057574,0.232241,0.668306,-2.42105054855347,3.77347755432129,8.57711982727051,1.23956501483917,-0.40614697337151,0.28679817914963
230,3817310929,0.704378,0.057601,0.232204,0.668292,-2.41497063636780,3.77963662147522,8.56463909149170,1.38964259624481,-0.53719431161880,0.19443880021572
231,3817327596,0.704322,0.057598,0.232174,0.668363,-2.39895081520081,3.77418708801270,8.57792282104492,1.37994825839996,-0.54220163822174,0.18404006958008
232,3817344263,0.704261,0.057592,0.232154,0.668434,-2.40355730056763,3.76217985153198,8.55988502502441,1.41456389427185,-0.46573495864868,0.18511579930782
233,3817360930,0.704252,0.057577,0.232124,0.668455,-2.38468670845032,3.76102662086487,8.57692623138428,1.24366307258606,-0.35138702392578,0.19779407978058
234,3817377597,0.704157,0.057538,0.232115,0.668562,-2.41481900215149,3.75436282157898,8.58165264129639,1.31153690814972,-0.27777615189552,0.27116167545319
235,3817394264,0.704002,0.057502,0.232111,0.668730,-2.42074751853943,3.78204250335693,8.60986518859863,1.45236814022064,-0.42527970671654,0.22855493426323
236,3817410931,0.703882,0.057486,0.232120,0.668854,-2.39930677413940,3.76418685913086,8.57596874237061,1.55659914016724,-0.36745902895927,0.25701066851616
237,3817427598,0.703783,0.057470,0.232143,0.668951,-2.40625143051147,3.77870941162109,8.57875251770020,1.61450946331024,-0.25371304154396,0.19942048192024
238,3817444265,0.703778,0.057480,0.232135,0.668958,-2.39688920974731,3.76586914062500,8.55473899841309,1.42840766906738,-0.28615149855614,0.33943229913712
239,3817460932,0.703697,0.057457,0.232160,0.669037,-2.40696263313293,3.76054954528809,8.55807209014893,1.52280306816101,-0.12573915719986,0.30546987056732
240,3817477599,0.703556,0.057418,0.232231,0.669164,-2.39923214912415,3.78250288963318,8.55617618560791,1.71286201477051,0.11588466167450,0.38836535811424
241,3817494266,0.703438,0.057394,0.232287,0.669271,-2.41090059280396,3.78515148162842,8.58002090454102,1.66642630100250,0.03480766341090,0.46504980325699
242,3817510933,0.703457,0.057388,0.232314,0.669243,-2.39453840255737,3.77353930473328,8.56157779693604,1.45022940635681,0.09426754713058,0.42738628387451
243,3817527600,0.703334,0.057351,0.232344,0.669365,-2.41866850852966,3.80059885978699,8.57433223724365,1.50683343410492,-0.08591140061617,0.39106750488281
244,3817544267,0.703227,0.057316,0.232356,0.669475,-2.39999961853027,3.76313853263855,8.57474517822266,1.41747093200684,-0.15415643155575,0.36857956647873
245,3817560934,0.703144,0.057306,0.232449,0.669531,-2.40424752235413,3.76324439048767,8.56511402130127,1.90495729446411,0.19217205047607,0.32282245159149
246,3817577601,0.703109,0.057320,0.232526,0.669540,-2.40934419631958,3.75716090202332,8.55708980560303,1.90434253215790,0.07537817209959,0.26383644342422
247,3817594268,0.703013,0.057287,0.232583,0.669624,-2.39837098121643,3.77725028991699,8.57551860809326,1.66367316246033,0.02823800407350,0.22358609735966
248,3817610935,0.702946,0.057266,0.232598,0.669691,-2.41883063316345,3.75582790374756,8.57658576965332,1.47823691368103,-0.17919284105301,0.25635749101639
249,3817627602,0.702881,0.057284,0.232653,0.669739,-2.41521239280701,3.78877854347229,8.57440757751465,1.84422969818115,-0.10482637584209,0.34387609362602
250,3817644269,0.702913,0.057284,0.232644,0.669709,-2.42595076560974,3.80187249183655,8.56593608856201,1.35256826877594,-0.20383226871490,0.21363553404808
251,3817660936,0.702935,0.057268,0.232613,0.669697,-2.40725851058960,3.74924993515015,8.57899188995361,1.16276538372040,-0.23967726528645,0.27674525976181
252,3817677603,0.702919,0.057302,0.232667,0.669693,-2.41738581657410,3.77603387832642,8.56871795654297,1.84462642669678,-0.06675309687853,0.39464047551155
253,3817694270,0.702823,0.057304,0.232712,0.669777,-2.40596365928650,3.79239106178284,8.55387401580811,1.73943519592285,-0.12398466467857,0.40995687246323
254,3817710937,0.703153,0.057437,0.232677,0.669432,-2.40048575401306,3.79815387725830,8.56622028350830,1.44355750083923,-0.23474679887295,0.44261309504509
255,3817727604,0.703095,0.057418,0.232662,0.669499,-2.41773891448975,3.78365206718445,8.59323501586914,1.34977650642395,-0.34864646196365,0.22701817750931
256,3817744271,0.703041,0.057421,0.232656,0.669558,-2.40602684020996,3.77653741836548,8.58072662353516,1.49324595928192,-0.37948414683342,0.27312102913857
257,3817760938,0.702841,0.057359,0.232682,0.669764,-2.41782307624817,3.77758264541626,8.56766986846924,1.50091695785522,-0.20488236844540,0.27609208226204
258,3817777605,0.702779,0.057309,0.232656,0.669842,-2.41494584083557,3.80253911018372,8.56193351745605,1.13812601566315,-0.25723475217819,0.23109059035778
259,3817794272,0.702703,0.057289,0.232629,0.669933,-2.41744756698608,3.76264381408691,8.56363964080811,1.29032945632935,-0.41430464386940,0.31735414266586
260,3817810939,0.702705,0.057330,0.232676,0.669911,-2.37396073341370,3.77216482162476,8.56901073455811,1.82639026641846,-0.11006417125463,0.36376434564590
261,3817827606,0.702793,0.057333,0.232636,0.669833,-2.39906930923462,3.80207633972168,8.58664608001709,1.21084022521973,-0.36882922053337,-0.02226383797824
262,3817844273,0.702800,0.057320,0.232614,0.669834,-2.41414141654968,3.74430561065674,8.55821037292480,1.27097916603088,-0.27883905172348,0.19016149640083
263,3817860940,0.702799,0.057331,0.232630,0.669828,-2.43470263481140,3.79127502441406,8.57212066650391,1.56978964805603,-0.20608618855476,0.21784883737564
264,3817877607,0.702721,0.057323,0.232659,0.669901,-2.40034985542297,3.77087759971619,8.55604171752930,1.65183997154236,-0.22466821968555,0.18797162175179
265,3817894274,0.702705,0.057348,0.232663,0.669914,-2.41120839118958,3.79891490936279,8.58326148986816,1.59349417686462,-0.34420266747475,0.29293245077133
266,3817910941,0.702745,0.057367,0.232616,0.669887,-2.40859675407410,3.76199960708618,8.56638622283936,1.24562251567841,-0.46997386217117,0.27721908688545
267,3817927608,0.702719,0.057373,0.232618,0.669913,-2.40656566619873,3.76589536666870,8.55704402923584,1.44501733779907,-0.19450923800468,0.47287443280220
268,3817944275,0.702666,0.057375,0.232618,0.669969,-2.42711210250854,3.81187129020691,8.56935310363770,1.45904028415680,-0.26473924517632,0.46531870961189
269,3817960942,0.702637,0.057400,0.232597,0.670004,-2.42248845100403,3.77166485786438,8.55986499786377,1.44277608394623,-0.42472901940346,0.48270970582962
270,3817977609,0.702486,0.057373,0.232614,0.670158,-2.38951802253723,3.78182029724121,8.57192420959473,1.55072081089020,-0.29064652323723,0.35527372360229
271,3817994276,0.702387,0.057355,0.232636,0.670256,-2.38990092277527,3.75689578056335,8.56813907623291,1.59197020530701,-0.24605481326580,0.21784880757332
272,3818010943,0.702434,0.057356,0.232622,0.670212,-2.40722751617432,3.78693866729736,8.57390499114990,1.31235635280609,-0.21042752265930,0.20721954107285
273,3818027610,0.702504,0.057360,0.232596,0.670147,-2.42661213874817,3.79412984848022,8.56580638885498,1.25903058052063,-0.26897814869881,0.12822997570038
274,3818044277,0.702466,0.057327,0.232561,0.670201,-2.40662479400635,3.76846313476562,8.58457660675049,1.15999925136566,-0.34106513857841,0.22902876138687
275,3818060944,0.702638,0.057413,0.232555,0.670017,-2.41265034675598,3.78208684921265,8.56553077697754,1.60615956783295,-0.28374391794205,0.26140320301056
276,3818077611,0.702506,0.057346,0.232558,0.670160,-2.37530755996704,3.77909016609192,8.55262756347656,1.30523598194122,-0.20690579712391,0.15887558460236
277,3818094278,0.702632,0.057347,0.232538,0.670034,-2.40368795394897,3.77361249923706,8.56388759613037,1.21706438064575,-0.11710767447948,0.05141749978065
278,3818110945,0.702796,0.057360,0.232509,0.669871,-2.40940332412720,3.76536083221436,8.55614471435547,1.15264821052551,-0.10327680408955,0.16144965589046
279,3818127612,0.702760,0.057315,0.232481,0.669923,-2.41308832168579,3.79887294769287,8.59115409851074,1.16495525836945,-0.30037933588028,0.06185467541218
280,3818144279,0.702749,0.057314,0.232494,0.669929,-2.41944098472595,3.79656028747559,8.58805179595947,1.52166330814362,-0.20347370207310,0.16933837532997
281,3818160946,0.702755,0.057300,0.232508,0.669920,-2.40190339088440,3.82421469688416,8.58039855957031,1.41871309280396,-0.06622804701328,0.22678765654564
282,3818177613,0.702670,0.057260,0.232520,0.670008,-2.42782235145569,3.78207659721375,8.55237007141113,1.35072410106659,-0.06479372829199,0.41935673356056
283,3818194280,0.702560,0.057233,0.232530,0.670123,-2.39708995819092,3.77203154563904,8.57040023803711,1.42794644832611,-0.18399524688721,0.46476802229881
284,3818210947,0.702587,0.057272,0.232510,0.670097,-2.39903092384338,3.77512454986572,8.56262874603271,1.47723817825317,-0.42166823148727,0.35337844491005
285,3818227614,0.702554,0.057302,0.232531,0.670122,-2.40301561355591,3.77041649818420,8.59063148498535,1.66186738014221,-0.22329793870449,0.48360627889633
286,3818244281,0.702477,0.057292,0.232541,0.670201,-2.39982724189758,3.79251885414124,8.57193946838379,1.49122262001038,-0.22282409667969,0.39953246712685
287,3818260948,0.702479,0.057276,0.232547,0.670197,-2.41784119606018,3.77879333496094,8.56587505340576,1.32719898223877,-0.02975555323064,0.40503925085068
288,3818277615,0.702407,0.057234,0.232553,0.670274,-2.40995645523071,3.77700901031494,8.57620716094971,1.31686413288116,-0.09792374819517,0.32343718409538
289,3818294282,0.702394,0.057235,0.232544,0.670291,-2.41009688377380,3.77634096145630,8.56573963165283,1.38268864154816,-0.26440629363060,0.34929317235947
290,3818310949,0.702306,0.057198,0.232513,0.670398,-2.40464973449707,3.76498508453369,8.59188747406006,1.21664166450500,-0.40325275063515,0.25881633162498
291,3818327616,0.702267,0.057202,0.232503,0.670441,-2.40149044990540,3.77505159378052,8.57259750366211,1.45660698413849,-0.37461772561073,0.25955909490585
292,3818344283,0.702161,0.057144,0.232476,0.670566,-2.39818692207336,3.77675986289978,8.56486606597900,1.15544021129608,-0.31883329153061,0.23526544868946
293,3818360950,0.702125,0.057148,0.232467,0.670607,-2.40966224670410,3.77119994163513,8.56893634796143,1.43782019615173,-0.34118038415909,0.32105520367622
294,3818377617,0.702058,0.057140,0.232453,0.670682,-2.40320205688477,3.77990293502808,8.58810424804688,1.38705575466156,-0.35663759708405,0.37822270393372
295,3818394284,0.702066,0.057167,0.232426,0.670681,-2.39947032928467,3.77271413803101,8.58346462249756,1.38936090469360,-0.40941262245178,0.42226374149323
296,3818410951,0.701999,0.057167,0.232443,0.670745,-2.41596913337708,3.78217411041260,8.56712818145752,1.55963420867920,-0.20319196581841,0.40890678763390
297,3818427618,0.702111,0.057205,0.232396,0.670641,-2.40505528450012,3.77584815025330,8.58442687988281,1.21292781829834,-0.35325679183006,0.38526624441147
298,3818444285,0.702122,0.057193,0.232395,0.670631,-2.40482258796692,3.77302122116089,8.56089305877686,1.33124566078186,-0.11309927701950,0.30325433611870
299,3818460952,0.702124,0.057215,0.232389,0.670630,-2.40130925178528,3.78132009506226,8.58346462249756,1.48894298076630,-0.31842347979546,0.34555369615555
300,3818477619,0.702118,0.057222,0.232348,0.670650,-2.39899611473083,3.76781082153320,8.58873653411865,1.25653350353241,-0.44419467449188,0.36323931813240
301,3818494286,0.702089,0.057231,0.232326,0.670686,-2.38912463188171,3.76735353469849,8.57361316680908,1.39061570167542,-0.40414914488792,0.34233933687210
302,3818510953,0.702055,0.057211,0.232329,0.670723,-2.39456820487976,3.76076388359070,8.56028461456299,1.39963173866272,-0.20492079854012,0.19382412731647
303,3818527620,0.701809,0.057114,0.232343,0.670983,-2.40794754028320,3.79016351699829,8.55064105987549,1.36788451671600,-0.25580042600632,0.14969341456890
304,3818544287,0.701825,0.057104,0.232332,0.670972,-2.41883158683777,3.79464173316956,8.57319641113281,1.31959176063538,-0.22528287768364,0.19013586640358
305,3818560954,0.701896,0.057119,0.232279,0.670914,-2.39884591102600,3.77204871177673,8.58494758605957,1.17439353466034,-0.43914890289307,0.20898680388927
306,3818577621,0.701853,0.057110,0.232259,0.670967,-2.38793897628784,3.77505135536194,8.57495021820068,1.34630572795868,-0.37352916598320,0.27187880873680
307,3818594288,0.701751,0.057071,0.232258,0.671078,-2.38341283798218,3.78290200233459,8.55729675292969,1.36224985122681,-0.26151207089424,0.25366818904877
308,3818610955,0.701931,0.057108,0.232230,0.670895,-2.39092206954956,3.77691602706909,8.57725238800049,1.28259444236755,-0.21928955614567,0.07834924757481
309,3818627622,0.701961,0.057087,0.232191,0.670880,-2.41877746582031,3.76214027404785,8.57693862915039,1.08157300949097,-0.22954739630222,0.30112850666046
310,3818644289,0.701899,0.057040,0.232179,0.670953,-2.40462231636047,3.78990030288696,8.58649158477783,1.18361401557922,-0.13585616648197,0.36868199706078
311,3818660956,0.702143,0.057139,0.232145,0.670700,-2.41619420051575,3.78876352310181,8.56236457824707,1.36022639274597,-0.20882675051689,0.56753903627396
312,3818677623,0.702088,0.057171,0.232160,0.670750,-2.40119767189026,3.79038119316101,8.56867790222168,1.65564346313477,-0.28179731965065,0.56299275159836
313,3818694290,0.702054,0.057188,0.232160,0.670784,-2.39797759056091,3.76929450035095,8.56847572326660,1.49296426773071,-0.25980883836746,0.53789228200912
314,3818710957,0.701929,0.057161,0.232160,0.670917,-2.40603494644165,3.75739407539368,8.56312942504883,1.41044008731842,-0.28834134340286,0.43108731508255
315,3818727624,0.701944,0.057180,0.232121,0.670914,-2.40066957473755,3.78867363929749,8.56793403625488,1.27131187915802,-0.41157686710358,0.45047610998154
316,3818744291,0.701590,0.057037,0.232114,0.671299,-2.40010547637939,3.77586984634399,8.58549118041992,1.12809848785400,-0.31488889455795,0.32588317990303
317,3818760958,0.701570,0.057031,0.232123,0.671317,-2.38842010498047,3.77106094360352,8.57590007781982,1.46896505355835,-0.17777132987976,0.25925174355507
318,3818777625,0.701571,0.057007,0.232131,0.671314,-2.40951991081238,3.78000760078430,8.57306766510010,1.35885608196259,-0.09120041131973,0.15754370391369
319,3818794292,0.701521,0.056997,0.232117,0.671373,-2.42033886909485,3.78402733802795,8.58168315887451,1.37770712375641,-0.34725055098534,0.27045729756355
320,3818810959,0.701485,0.056968,0.232042,0.671439,-2.40069055557251,3.76664686203003,8.60158538818359,0.98366856575012,-0.56947916746140,0.26288875937462
321,3818827626,0.701651,0.057060,0.231983,0.671277,-2.39562201499939,3.78318691253662,8.57709693908691,1.36591243743896,-0.57124638557434,0.39593392610550
322,3818844293,0.701578,0.057014,0.231943,0.671372,-2.37157964706421,3.77145195007324,8.56448745727539,1.11862182617188,-0.39234170317650,0.20889714360237
323,3818860960,0.701646,0.057026,0.231942,0.671301,-2.38559460639954,3.75956702232361,8.55754089355469,1.40383207798004,-0.14397539198399,0.21106143295765
324,3818877627,0.701616,0.057006,0.231971,0.671323,-2.38262963294983,3.75760149955750,8.56353759765625,1.53653144836426,-0.08547597378492,0.09917236864567
325,3818894294,0.701638,0.056996,0.231992,0.671293,-2.38786649703979,3.76570820808411,8.57165336608887,1.47287106513977,-0.03645327687263,0.15033376216888
326,3818910961,0.701583,0.056960,0.232009,0.671349,-2.39921617507935,3.78554868698120,8.57692432403564,1.42073631286621,-0.10987205803394,0.16006654500961
327,3818927628,0.701516,0.056921,0.232009,0.671422,-2.41379332542419,3.77518224716187,8.58142948150635,1.32982420921326,-0.18984772264957,0.19961255788803
328,3818944295,0.701522,0.056935,0.232004,0.671416,-2.41383194923401,3.78808856010437,8.59520530700684,1.46416282653809,-0.28645882010460,0.28020292520523
329,3818960962,0.701495,0.056950,0.231977,0.671453,-2.40531969070435,3.75780820846558,8.55327224731445,1.39311313629150,-0.46637526154518,0.35894918441772
330,3818977629,0.701398,0.056969,0.231976,0.671553,-2.39644861221313,3.79324817657471,8.57607078552246,1.60681247711182,-0.45661678910255,0.45929965376854
331,3818994296,0.701416,0.056987,0.231965,0.671536,-2.38806939125061,3.77438020706177,8.56037330627441,1.43436253070831,-0.30852419137955,0.29540407657623
332,3819010963,0.701469,0.057020,0.231963,0.671478,-2.40422105789185,3.78557467460632,8.56939506530762,1.51213538646698,-0.25736281275749,0.27866613864899
333,3819027630,0.701270,0.056950,0.231986,0.671684,-2.38575005531311,3.78534889221191,8.57924270629883,1.44844937324524,-0.19914515316486,0.24612525105476
334,3819044297,0.701280,0.056957,0.231961,0.671681,-2.41566681861877,3.76785516738892,8.58362770080566,1.32874834537506,-0.35060581564903,0.29021748900414
335,3819060964,0.701213,0.056961,0.231961,0.671752,-2.40110540390015,3.77934408187866,8.58863925933838,1.53017950057983,-0.37862613797188,0.29005101323128
336,3819077631,0.701183,0.056986,0.231985,0.671772,-2.39650559425354,3.78114438056946,8.58985996246338,1.67475056648254,-0.21117031574249,0.39456367492676
337,3819094298,0.701191,0.056988,0.231966,0.671771,-2.38930797576904,3.77757716178894,8.58312892913818,1.33175814151764,-0.30635991692543,0.28197023272514
338,3819110965,0.701149,0.056980,0.231968,0.671814,-2.39183306694031,3.78229546546936,8.57874298095703,1.45037031173706,-0.25627425312996,0.27737271785736
339,3819127632,0.701112,0.056978,0.231980,0.671849,-2.39557814598083,3.77826523780823,8.57736206054688,1.53965604305267,-0.24540165066719,0.19258187711239
340,3819144299,0.701133,0.056997,0.231918,0.671846,-2.40462613105774,3.77148962020874,8.58192729949951,1.21560442447662,-0.60718107223511,0.26136478781700
341,3819160966,0.701075,0.056998,0.231887,0.671918,-2.40049338340759,3.77815079689026,8.57730770111084,1.35139000415802,-0.50320631265640,0.32812425494194
342,3819177633,0.701006,0.056983,0.231861,0.672001,-2.40425229072571,3.79135680198669,8.58516788482666,1.32165384292603,-0.43931540846825,0.27611771225929
343,3819194300,0.701063,0.057010,0.231890,0.671929,-2.40426754951477,3.76900625228882,8.54646205902100,1.61038553714752,-0.04162703454494,0.28783547878265
344,3819210967,0.701098,0.056999,0.231907,0.671887,-2.38694095611572,3.78319668769836,8.58598423004150,1.42888140678406,-0.02541420236230,0.15782546997070
345,3819227634,0.701100,0.056991,0.231926,0.671879,-2.40064430236816,3.75286245346069,8.56541156768799,1.48280894756317,-0.08989417552948,0.20158475637436
346,3819244301,0.700980,0.056952,0.231929,0.672006,-2.39163732528687,3.78572463989258,8.57365608215332,1.39252400398254,-0.25677374005318,0.31422939896584
347,3819260968,0.700927,0.056961,0.231899,0.672071,-2.39871859550476,3.79448246955872,8.59136486053467,1.36935734748840,-0.48254960775375,0.41250526905060
348,3819277635,0.700984,0.057000,0.231863,0.672021,-2.39354753494263,3.76748275756836,8.58401489257812,1.33793056011200,-0.41173055768013,0.41700035333633
349,3819294302,0.700911,0.056986,0.231855,0.672101,-2.38605332374573,3.76118135452271,8.56343555450439,1.41298866271973,-0.34233295917511,0.29832392930984
350,3819310969,0.700882,0.056983,0.231858,0.672131,-2.38994407653809,3.77193188667297,8.53989887237549,1.47644412517548,-0.26642972230911,0.22064059972763
351,3819327636,0.700888,0.056981,0.231841,0.672130,-2.38654160499573,3.77282691001892,8.56086540222168,1.33899354934692,-0.30835768580437,0.20495283603668
352,3819344303,0.700810,0.056955,0.231851,0.672210,-2.39655876159668,3.76853895187378,8.57877349853516,1.47079646587372,-0.23237763345242,0.19881859421730
353,3819360970,0.700778,0.056932,0.231865,0.672241,-2.37156081199646,3.78462672233582,8.59529399871826,1.43376052379608,-0.12285771965981,0.17949379980564
354,3819377637,0.700701,0.056862,0.231879,0.672322,-2.37888979911804,3.79099941253662,8.59942150115967,1.25371599197388,0.00256127002649,0.16767354309559
355,3819394304,0.700735,0.056814,0.231843,0.672303,-2.41120171546936,3.78799939155579,8.56576442718506,1.01521050930023,-0.17825798690319,0.05185291171074
356,3819410971,0.700722,0.056792,0.231841,0.672319,-2.42306089401245,3.76863026618958,8.59174537658691,1.32157683372498,-0.14000542461872,0.26340100169182
357,3819427638,0.700746,0.056840,0.231858,0.672284,-2.39694786071777,3.76660752296448,8.59255409240723,1.66431343555450,-0.21301443874836,0.47543576359749
358,3819444305,0.700856,0.056918,0.231862,0.672162,-2.38062620162964,3.79057288169861,8.57286739349365,1.61824870109558,-0.21236127614975,0.54526871442795
359,3819460972,0.700749,0.056891,0.231857,0.672277,-2.37958860397339,3.76203846931458,8.56775379180908,1.34311711788177,-0.24135482311249,0.50317424535751
360,3819477639,0.700784,0.056900,0.231871,0.672235,-2.39487314224243,3.76258730888367,8.56744956970215,1.43063580989838,-0.00194016203750,0.47961065173149
361,3819494306,0.700919,0.056936,0.231863,0.672094,-2.38999676704407,3.77016973495483,8.57071971893311,1.32525217533112,-0.04431637376547,0.44357350468636
362,3819510973,0.700887,0.056931,0.231907,0.672112,-2.40675139427185,3.76229333877563,8.56540584564209,1.61938846111298,0.04518080130219,0.38680297136307
363,3819527640,0.700803,0.056884,0.231933,0.672195,-2.39254713058472,3.79066276550293,8.58216953277588,1.43660342693329,-0.05673853680491,0.19123722612858
364,3819544307,0.700783,0.056870,0.231980,0.672201,-2.41328167915344,3.76688504219055,8.57666873931885,1.63649773597717,0.01448398176581,0.11433508992195
365,3819560974,0.700630,0.056780,0.232011,0.672358,-2.39649677276611,3.78325009346008,8.60293292999268,1.36151993274689,-0.01318413764238,0.07786261290312
366,3819577641,0.700584,0.056745,0.232027,0.672403,-2.42712664604187,3.77744197845459,8.55810832977295,1.38822126388550,-0.05805758759379,0.22208774089813
367,3819594308,0.700504,0.056707,0.232044,0.672483,-2.39529538154602,3.78749656677246,8.57986450195312,1.39832532405853,-0.07077428698540,0.33000683784485
368,3819610975,0.700406,0.056674,0.232064,0.672581,-2.39744663238525,3.77707195281982,8.57337284088135,1.46153748035431,-0.12436886131763,0.33498847484589
369,3819627642,0.700377,0.056665,0.232091,0.672604,-2.37941741943359,3.78127741813660,8.56982326507568,1.54783940315247,-0.08433622121811,0.26182582974434
370,3819644309,0.700305,0.056599,0.232106,0.672679,-2.37201642990112,3.76805520057678,8.54504585266113,1.27708768844604,-0.00010885397933,0.15973360836506
371,3819660976,0.700262,0.056546,0.232118,0.672724,-2.37907028198242,3.78522658348083,8.57038021087646,1.28231263160706,-0.00945748947561,0.17521648108959
372,3819677643,0.700287,0.056521,0.232147,0.672689,-2.40419363975525,3.77856278419495,8.56721687316895,1.45188128948212,0.04744752123952,0.05201938748360
373,3819694310,0.700215,0.056487,0.232187,0.672753,-2.40404987335205,3.79515671730042,8.59517478942871,1.51422286033630,0.04719140008092,0.31955686211586
374,3819710977,0.700192,0.056488,0.232241,0.672759,-2.41408872604370,3.78772473335266,8.60008049011230,1.69211590290070,0.06532519310713,0.33653810620308
375,3819727644,0.700118,0.056492,0.232267,0.672826,-2.41326689720154,3.75684976577759,8.57454681396484,1.61374080181122,-0.16639930009842,0.46081086993217
376,3819744311,0.700109,0.056510,0.232284,0.672828,-2.39959645271301,3.77098870277405,8.54530715942383,1.52839934825897,-0.09765482693911,0.55931735038757
377,3819760978,0.700121,0.056507,0.232295,0.672813,-2.40135383605957,3.78766036033630,8.55729293823242,1.37829637527466,-0.01061006076634,0.47889348864555
378,3819777645,0.699975,0.056439,0.232342,0.672954,-2.40004467964172,3.77467250823975,8.58015251159668,1.45005035400391,0.11486015468836,0.38963320851326
379,3819794312,0.700097,0.056479,0.232354,0.672819,-2.41650128364563,3.77227854728699,8.57107925415039,1.47420299053192,0.00635195011273,0.42166188359261
380,3819810979,0.700012,0.056445,0.232379,0.672902,-2.40296435356140,3.77351880073547,8.57866287231445,1.45195829868317,-0.05193615332246,0.35855221748352
381,3819827646,0.699984,0.056423,0.232355,0.672942,-2.40909767150879,3.77384042739868,8.57748699188232,1.21693623065948,-0.25850260257721,0.34477254748344
382,3819844313,0.699949,0.056408,0.232357,0.672978,-2.40799450874329,3.75348901748657,8.56223869323730,1.36199367046356,-0.13671417534351,0.41546356678009
383,3819860980,0.699894,0.056376,0.232377,0.673031,-2.40396451950073,3.79056072235107,8.58709335327148,1.38382863998413,-0.00252925418317,0.39926359057426
384,3819877647,0.699873,0.056379,0.232428,0.673035,-2.39818954467773,3.78297519683838,8.59264373779297,1.67061400413513,0.06967934966087,0.38428017497063
385,3819894314,0.699838,0.056363,0.232439,0.673069,-2.39777588844299,3.78654861450195,8.59028911590576,1.42865073680878,-0.13266736268997,0.31513866782188
386,3819910981,0.699833,0.056367,0.232439,0.673074,-2.40337347984314,3.79715991020203,8.57281970977783,1.46765875816345,-0.27061739563942,0.20016324520111
387,3819927648,0.699887,0.056366,0.232393,0.673034,-2.40568304061890,3.77567648887634,8.56568431854248,1.13265764713287,-0.34124439954758,0.25379624962807
388,3819944315,0.699803,0.056371,0.232424,0.673110,-2.39519739151001,3.79142069816589,8.57789802551270,1.66111183166504,-0.17860378324986,0.43111297488213
389,3819960982,0.699783,0.056348,0.232479,0.673114,-2.40741109848022,3.79992794990540,8.55282115936279,1.55851984024048,0.21626082062721,0.36475044488907
390,3819977649,0.699629,0.056245,0.232523,0.673267,-2.40781593322754,3.76570034027100,8.56271553039551,1.30947506427765,0.19853684306145,0.22893914580345
391,3819994316,0.699534,0.056185,0.232553,0.673360,-2.40594840049744,3.77791285514832,8.56072330474854,1.38563442230225,0.03784276545048,0.23786514997482
392,3820010983,0.699545,0.056197,0.232566,0.673344,-2.40208148956299,3.80038046836853,8.58452892303467,1.52768230438232,-0.16332578659058,0.28683662414551
393,3820027650,0.699601,0.056253,0.232531,0.673293,-2.41566801071167,3.77673101425171,8.57274055480957,1.43949770927429,-0.51282382011414,0.39474290609360
394,3820044317,0.699569,0.056266,0.232522,0.673328,-2.39228987693787,3.76567530632019,8.58474254608154,1.51203298568726,-0.42107921838760,0.21417340636253
395,3820060984,0.699588,0.056301,0.232551,0.673296,-2.40922498703003,3.77233481407166,8.56943130493164,1.73144423961639,-0.21360352635384,0.20322398841381
396,3820077651,0.699609,0.056305,0.232533,0.673279,-2.39913034439087,3.79929757118225,8.58933162689209,1.37153434753418,-0.34672552347183,0.11500101536512
397,3820094318,0.699512,0.056260,0.232544,0.673381,-2.40470433235168,3.78253769874573,8.58134555816650,1.40043830871582,-0.19025753438473,0.16202594339848
398,3820110985,0.699475,0.056250,0.232544,0.673420,-2.40544700622559,3.78257060050964,8.57386016845703,1.41953253746033,-0.23586094379425,0.28358381986618
399,3820127652,0.699429,0.056238,0.232520,0.673477,-2.38992404937744,3.76810216903687,8.57677936553955,1.31697952747345,-0.40396988391876,0.24557454884052
400,3820144319,0.699374,0.056228,0.232564,0.673520,-2.38467597961426,3.76972413063049,8.55446624755859,1.68254935741425,-0.08705115318298,0.16730214655399
401,3820160986,0.699412,0.056202,0.232535,0.673492,-2.41297531127930,3.80274271965027,8.59077930450439,1.13405346870422,-0.20530499517918,0.11999548971653
402,3820177653,0.699418,0.056198,0.232542,0.673484,-2.41985201835632,3.75220298767090,8.58648300170898,1.44732248783112,-0.17631141841412,0.18904735147953
403,3820194320,0.699329,0.056202,0.232592,0.673559,-2.40185546875000,3.78140091896057,8.57649230957031,1.75005185604095,-0.07948261499405,0.43736249208450
404,3820210987,0.699366,0.056237,0.232607,0.673512,-2.40129804611206,3.81354355812073,8.57737922668457,1.57342648506165,-0.13787956535816,0.44956690073013
405,3820227654,0.699328,0.056223,0.232609,0.673552,-2.41298651695251,3.78891038894653,8.56162357330322,1.35705041885376,-0.12257597595453,0.46428138017654
406,3820244321,0.699291,0.056202,0.232622,0.673587,-2.40557551383972,3.74470424652100,8.55061531066895,1.37419819831848,-0.04071779176593,0.43983411788940
407,3820260988,0.699224,0.056178,0.232657,0.673648,-2.40951013565063,3.77794003486633,8.57502079010010,1.49687004089355,0.04414348304272,0.45539373159409
408,3820277655,0.699225,0.056195,0.232687,0.673634,-2.42346119880676,3.79065489768982,8.57776546478271,1.60692799091339,-0.05426691100001,0.42248147726059
409,3820294322,0.699314,0.056240,0.232671,0.673544,-2.40283465385437,3.76097607612610,8.57159709930420,1.42438638210297,-0.26885014772415,0.39479416608810
410,3820310989,0.699303,0.056230,0.232638,0.673567,-2.39909243583679,3.78532814979553,8.57488632202148,1.21486163139343,-0.34392094612122,0.32283523678780
411,3820327656,0.699335,0.056203,0.232594,0.673552,-2.40132951736450,3.77961945533752,8.56325149536133,1.06032729148865,-0.28496047854424,0.17093914747238
412,3820344323,0.699342,0.056169,0.232590,0.673549,-2.42359709739685,3.78958868980408,8.56823539733887,1.25867211818695,-0.11571178585291,0.09814786165953
413,3820360990,0.699234,0.056131,0.232602,0.673660,-2.40643811225891,3.77779579162598,8.56465244293213,1.43352997303009,-0.20652160048485,0.24855843186378
414,3820377657,0.699289,0.056148,0.232575,0.673611,-2.42116641998291,3.77747154235840,8.57716846466064,1.31084525585175,-0.32567188143730,0.25916209816933
415,3820394324,0.699221,0.056115,0.232559,0.673689,-2.39372587203979,3.79887223243713,8.57944583892822,1.25967097282410,-0.25551870465279,0.32108083367348
416,3820410991,0.699223,0.056102,0.232529,0.673699,-2.39782524108887,3.76995515823364,8.55290508270264,1.22438943386078,-0.32613286375999,0.22713337838650
417,3820427658,0.699108,0.056051,0.232514,0.673827,-2.40110421180725,3.77240681648254,8.57947158813477,1.24368870258331,-0.29876574873924,0.27132815122604
418,3820444325,0.699155,0.056067,0.232515,0.673777,-2.40067958831787,3.75276684761047,8.56743144989014,1.45307254791260,-0.19062893092632,0.24221932888031
419,3820460992,0.699141,0.056074,0.232533,0.673785,-2.39805603027344,3.81474781036377,8.59286785125732,1.53905427455902,-0.13574090600014,0.35243073105812
420,3820477659,0.699194,0.056072,0.232530,0.673731,-2.41172051429749,3.76543855667114,8.58377933502197,1.34503805637360,-0.13504937291145,0.16112950444221
421,3820494326,0.699087,0.056054,0.232554,0.673836,-2.41305541992188,3.78514075279236,8.59514617919922,1.56835520267487,-0.19293405115604,0.35675927996635
422,3820510993,0.699044,0.056026,0.232552,0.673883,-2.40696287155151,3.76684093475342,8.54957008361816,1.28555262088776,-0.10547950863838,0.41571977734566
423,3820527660,0.699022,0.056014,0.232561,0.673904,-2.39728355407715,3.79210901260376,8.56311607360840,1.35633325576782,-0.03284187987447,0.52216607332230
424,3820544327,0.698971,0.055986,0.232583,0.673951,-2.40041136741638,3.78884840011597,8.56145763397217,1.40206480026245,0.01900462061167,0.44695433974266
425,3820560994,0.699017,0.056021,0.232595,0.673897,-2.41723370552063,3.76271939277649,8.58131217956543,1.57813918590546,-0.19425310194492,0.31965929269791
426,3820577661,0.699029,0.056022,0.232580,0.673889,-2.40847277641296,3.76688408851624,8.57150554656982,1.32001459598541,-0.24120119214058,0.33511656522751
427,3820594328,0.698940,0.055979,0.232562,0.673991,-2.41557574272156,3.78240251541138,8.58153915405273,1.23667085170746,-0.28814923763275,0.27961385250092
428,3820610995,0.698928,0.055966,0.232526,0.674017,-2.40845274925232,3.78235864639282,8.59903144836426,1.22318577766418,-0.40204894542694,0.20143108069897
429,3820627662,0.698843,0.055959,0.232518,0.674109,-2.41026997566223,3.77071690559387,8.56887149810791,1.45588982105255,-0.39194473624229,0.32019713521004
430,3820644329,0.698890,0.056010,0.232516,0.674057,-2.39844179153442,3.78196263313293,8.57801914215088,1.60201048851013,-0.35907086730003,0.31161695718765
431,3820660996,0.698736,0.055939,0.232485,0.674233,-2.40451455116272,3.78292083740234,8.54685974121094,1.10915791988373,-0.35042655467987,0.32100397348404
432,3820677663,0.698847,0.055969,0.232439,0.674131,-2.39559674263000,3.78030991554260,8.56855869293213,1.23135614395142,-0.40546822547913,0.17243748903275
433,3820694330,0.698827,0.055958,0.232423,0.674158,-2.39963960647583,3.77917766571045,8.56818962097168,1.31553232669830,-0.27358844876289,0.29501989483833
434,3820710997,0.698751,0.055949,0.232438,0.674232,-2.40514349937439,3.78432130813599,8.56071376800537,1.54334449768066,-0.24641340970993,0.28542792797089
435,3820727664,0.698612,0.055923,0.232467,0.674369,-2.40626335144043,3.78809905052185,8.57610702514648,1.58146882057190,-0.17576074600220,0.39941722154617
436,3820744331,0.698634,0.055948,0.232463,0.674345,-2.40339636802673,3.77659058570862,8.57627201080322,1.44292974472046,-0.21830342710018,0.48381108045578
437,3820760998,0.698638,0.055983,0.232474,0.674335,-2.39942240715027,3.76092672348022,8.57218170166016,1.57491207122803,-0.19682718813419,0.53935217857361
438,3820777665,0.698435,0.055951,0.232523,0.674530,-2.42302727699280,3.79867243766785,8.58808326721191,1.70152866840363,-0.13407608866692,0.50376337766647
439,3820794332,0.698257,0.055890,0.232535,0.674716,-2.39577603340149,3.74412703514099,8.57767200469971,1.36479842662811,-0.16228847205639,0.43253448605537
440,3820810999,0.698159,0.055893,0.232606,0.674792,-2.40411925315857,3.78137779235840,8.55170059204102,1.82902836799622,0.07542939484119,0.53512609004974
441,3820827666,0.698111,0.055884,0.232637,0.674832,-2.40255165100098,3.79158115386963,8.57682037353516,1.55899381637573,-0.06283435970545,0.36240690946579
442,3820844333,0.698082,0.055890,0.232629,0.674864,-2.41116738319397,3.78034996986389,8.56983661651611,1.44294273853302,-0.32685008645058,0.32562708854675
443,3820861000,0.698140,0.055913,0.232635,0.674800,-2.41255235671997,3.77369737625122,8.56788921356201,1.50939464569092,-0.20235952734947,0.17715021967888
444,3820877667,0.698187,0.055925,0.232646,0.674747,-2.40815591812134,3.77653121948242,8.59034824371338,1.49251604080200,-0.13598422706127,0.18847104907036
445,3820894334,0.698180,0.055963,0.232691,0.674736,-2.41705965995789,3.78087258338928,8.56361198425293,1.84110486507416,-0.17487707734108,0.26148000359535
446,3820911001,0.698171,0.056022,0.232731,0.674726,-2.40673851966858,3.80574560165405,8.57000827789307,1.91201353073120,-0.28663811087608,0.32879024744034
447,3820927668,0.698063,0.056013,0.232731,0.674838,-2.40342974662781,3.77889847755432,8.57832336425781,1.47333216667175,-0.32588958740234,0.46245008707047
448,3820944335,0.698335,0.056163,0.232754,0.674536,-2.40497446060181,3.77363181114197,8.56752204895020,1.86673021316528,-0.12708380818367,0.49067524075508
449,3820961002,0.698258,0.056159,0.232845,0.674585,-2.37436580657959,3.78747630119324,8.57602024078369,1.85205423831940,0.26785761117935,0.55378496646881
450,3820977669,0.698182,0.056121,0.232911,0.674645,-2.40058374404907,3.80295991897583,8.55870819091797,1.58160972595215,0.25822722911835,0.44660863280296
451,3820994336,0.698229,0.056140,0.232977,0.674572,-2.41687035560608,3.76788425445557,8.57412910461426,1.69643175601959,0.27727031707764,0.49495264887810
452,3821011003,0.698083,0.056101,0.233061,0.674697,-2.41840100288391,3.79543876647949,8.57781219482422,1.69860851764679,0.30398431420326,0.66009050607681
453,3821027670,0.698116,0.056140,0.233105,0.674643,-2.40447068214417,3.81530046463013,8.57143115997314,1.69909536838531,0.05251884087920,0.58243280649185
454,3821044337,0.698127,0.056186,0.233148,0.674614,-2.41478085517883,3.80015730857849,8.56770133972168,1.76522719860077,-0.06367956846952,0.53612500429153
455,3821061004,0.698187,0.056241,0.233162,0.674542,-2.38213276863098,3.78428578376770,8.57002162933350,1.60703051090240,-0.14072258770466,0.56419664621353
456,3821077671,0.698111,0.056275,0.233216,0.674600,-2.43055367469788,3.79308271408081,8.56758785247803,1.86655068397522,-0.11592946946621,0.59780031442642
457,3821094338,0.698151,0.056315,0.233203,0.674559,-2.40425539016724,3.81768846511841,8.59404850006104,1.43664181232452,-0.26680108904839,0.54587072134018
458,3821111005,0.698113,0.056318,0.233227,0.674590,-2.40094852447510,3.77465653419495,8.55471515655518,1.49405276775360,-0.01153211854398,0.63787150382996
459,3821127672,0.697992,0.056317,0.233298,0.674691,-2.38715362548828,3.78128385543823,8.57216548919678,1.81328928470612,0.07551904022694,0.63306897878647
460,3821144339,0.697905,0.056304,0.233340,0.674768,-2.39550495147705,3.78848385810852,8.55110645294189,1.54881286621094,0.08490610122681,0.69707530736923
461,3821161006,0.697825,0.056287,0.233348,0.674848,-2.41202783584595,3.82760953903198,8.57671165466309,1.42032659053802,-0.15653841197491,0.49951162934303
462,3821177673,0.697745,0.056265,0.233377,0.674923,-2.43399953842163,3.77392935752869,8.58449840545654,1.47611117362976,-0.00324640958570,0.52559822797775
463,3821194340,0.697729,0.056323,0.233376,0.674935,-2.42815637588501,3.79809117317200,8.57166099548340,1.61891484260559,-0.35288539528847,0.70742279291153
464,3821211007,0.697638,0.056344,0.233383,0.675025,-2.41324448585510,3.80110883712769,8.56208038330078,1.55461430549622,-0.25713232159615,0.77985554933548
465,3821227674,0.697549,0.056361,0.233396,0.675112,-2.39273262023926,3.79306960105896,8.56811809539795,1.56649851799011,-0.21635688841343,0.73942589759827
466,3821244341,0.697409,0.056361,0.233413,0.675250,-2.40007400512695,3.78868103027344,8.54303836822510,1.57514274120331,-0.23657812178135,0.70524573326111
467,3821261008,0.697372,0.056373,0.233427,0.675283,-2.40527319908142,3.79127979278564,8.56718444824219,1.49298977851868,-0.09867932647467,0.67187231779099
468,3821277675,0.697373,0.056405,0.233454,0.675270,-2.39944243431091,3.80216598510742,8.55407810211182,1.61238360404968,-0.06001695990562,0.60818636417389
469,3821294342,0.697360,0.056439,0.233457,0.675279,-2.41331529617310,3.81259322166443,8.57183074951172,1.54780089855194,-0.26038509607315,0.57860368490219
470,3821311009,0.697141,0.056374,0.233454,0.675511,-2.41001415252686,3.79152488708496,8.58768844604492,1.30500543117523,-0.27238464355469,0.52180749177933
471,3821327676,0.697127,0.056415,0.233475,0.675515,-2.41512036323547,3.80005979537964,8.57524394989014,1.71295166015625,-0.27417755126953,0.41960000991821
472,3821344343,0.697083,0.056429,0.233460,0.675565,-2.41385650634766,3.80729961395264,8.58166122436523,1.42670416831970,-0.37148019671440,0.48378545045853
473,3821361010,0.697012,0.056440,0.233467,0.675634,-2.39598870277405,3.78591847419739,8.55118179321289,1.54381835460663,-0.28356462717056,0.50335359573364
474,3821377677,0.696930,0.056428,0.233460,0.675722,-2.39351654052734,3.79698467254639,8.55425834655762,1.38135695457458,-0.27949219942093,0.48167240619659
475,3821394344,0.696855,0.056386,0.233446,0.675808,-2.40312838554382,3.81033611297607,8.55714035034180,1.23453211784363,-0.22655072808266,0.31293597817421
476,3821411011,0.696912,0.056398,0.233426,0.675755,-2.41824960708618,3.80774307250977,8.58609294891357,1.32174348831177,-0.26918309926987,0.22283048927784
477,3821427678,0.696923,0.056397,0.233402,0.675753,-2.41234874725342,3.78463745117188,8.54734706878662,1.31248426437378,-0.35114371776581,0.17549820244312
478,3821444345,0.696882,0.056365,0.233387,0.675802,-2.42979907989502,3.80388736724854,8.56169795989990,1.29559278488159,-0.29649901390076,0.09352476894855
479,3821461012,0.696912,0.056358,0.233343,0.675787,-2.41256117820740,3.81051254272461,8.56202793121338,1.19271934032440,-0.44506546854973,0.05259567499161
480,3821477679,0.696991,0.056387,0.233316,0.675713,-2.39923214912415,3.79333639144897,8.54429340362549,1.38585197925568,-0.40938696265221,0.09762280434370
481,3821494346,0.696930,0.056372,0.233283,0.675789,-2.39064550399780,3.81151986122131,8.55939579010010,1.28121113777161,-0.46237963438034,0.25031289458275
482,3821511013,0.697120,0.056418,0.233216,0.675612,-2.38947963714600,3.80671143531799,8.55444717407227,1.09250974655151,-0.39640134572983,0.22572471201420
483,3821527680,0.697109,0.056395,0.233185,0.675636,-2.40186071395874,3.79149985313416,8.57329273223877,1.17924702167511,-0.29589712619781,0.25068426132202
484,3821544347,0.697145,0.056379,0.233183,0.675600,-2.40181612968445,3.80628752708435,8.58365249633789,1.31558346748352,-0.11656980216503,0.12528452277184
485,3821561014,0.697242,0.056412,0.233145,0.675511,-2.41141700744629,3.79219508171082,8.58890438079834,1.29883289337158,-0.38924258947372,0.21567171812057
486,3821577681,0.697280,0.056459,0.233157,0.675463,-2.40750145912170,3.79301619529724,8.55537605285645,1.65087950229645,-0.26785123348236,0.32712543010712
487,3821594348,0.697178,0.056434,0.233174,0.675565,-2.40764594078064,3.81382179260254,8.56169223785400,1.48116970062256,-0.16643773019314,0.38508695363998
488,3821611015,0.697080,0.056377,0.233136,0.675684,-2.38566088676453,3.77915334701538,8.54409122467041,1.05321991443634,-0.29918834567070,0.38324284553528
489,3821627682,0.697002,0.056363,0.233178,0.675751,-2.39047336578369,3.81254148483276,8.55542564392090,1.61164069175720,-0.01822983846068,0.40771576762199
490,3821644349,0.696920,0.056331,0.233191,0.675834,-2.40280866622925,3.81898856163025,8.56566905975342,1.40527915954590,-0.12628981471062,0.35237950086594
491,3821661016,0.696961,0.056395,0.233154,0.675799,-2.39834833145142,3.80727005004883,8.59655380249023,1.45441734790802,-0.53497886657715,0.53250086307526
492,3821677683,0.697005,0.056439,0.233138,0.675756,-2.39352130889893,3.78433966636658,8.58131694793701,1.47594463825226,-0.36287432909012,0.40902200341225
493,3821694350,0.696898,0.056422,0.233116,0.675875,-2.40430617332458,3.79732203483582,8.56711483001709,1.31669771671295,-0.39008781313896,0.49642530083656
494,3821711017,0.696876,0.056452,0.233059,0.675915,-2.42338204383850,3.82557749748230,8.56335067749023,1.32943975925446,-0.70443242788315,0.33468112349510
495,3821727684,0.696946,0.056521,0.232978,0.675865,-2.38216853141785,3.80200600624084,8.56313514709473,1.29757773876190,-0.82921755313873,0.31745657324791
496,3821744351,0.696993,0.056552,0.232896,0.675842,-2.39456081390381,3.79116916656494,8.55478191375732,1.16685044765472,-0.77115345001221,0.16771192848682
497,3821761018,0.696969,0.056538,0.232787,0.675906,-2.38355064392090,3.81111836433411,8.55212211608887,0.91368186473846,-0.86099016666412,0.12931852042675
498,3821777685,0.696956,0.056511,0.232707,0.675949,-2.36695861816406,3.79850339889526,8.56866741180420,1.01021611690521,-0.67967784404755,-0.01944644190371
499,3821794352,0.696995,0.056463,0.232618,0.675943,-2.39712834358215,3.79894137382507,8.56569862365723,0.83356523513794,-0.57736778259277,-0.21196429431438
500,3821811019,0.697231,0.056513,0.232546,0.675720,-2.39362406730652,3.77641677856445,8.57092666625977,1.12489700317383,-0.49987661838531,-0.11769675463438
501,3821827686,0.697320,0.056528,0.232431,0.675667,-2.40277314186096,3.82720494270325,8.59749507904053,0.90658700466156,-0.82171303033829,0.03722805157304
502,3821844353,0.697454,0.056581,0.232317,0.675563,-2.40125656127930,3.80086994171143,8.57082653045654,1.03490674495697,-0.89547753334045,0.08342055976391
503,3821861020,0.697361,0.056563,0.232234,0.675689,-2.38322925567627,3.80625605583191,8.58159351348877,1.07162249088287,-0.79382091760635,0.26680749654770
504,3821877687,0.697456,0.056603,0.232183,0.675605,-2.37635207176208,3.75926399230957,8.55316638946533,1.25100111961365,-0.46846273541451,0.30855619907379
505,3821894354,0.697452,0.056640,0.232249,0.675584,-2.37524628639221,3.79567480087280,8.57703495025635,1.86223530769348,0.06770717352629,0.52502191066742
506,3821911021,0.697371,0.056613,0.232272,0.675662,-2.38236212730408,3.80356836318970,8.57953929901123,1.43825554847717,-0.03102337941527,0.47862449288368
507,3821927688,0.697313,0.056559,0.232288,0.675721,-2.38767313957214,3.78367638587952,8.56326770782471,1.26077234745026,0.07240710407495,0.38850623369217
508,3821944355,0.697284,0.056502,0.232297,0.675752,-2.39790439605713,3.79275441169739,8.57892894744873,1.20573067665100,0.08021897822618,0.27920404076576
509,3821961022,0.697315,0.056483,0.232320,0.675713,-2.42106246948242,3.78951787948608,8.57344150543213,1.39467549324036,0.06818100810051,0.22179318964481
510,3821977689,0.697271,0.056438,0.232318,0.675764,-2.39599776268005,3.80644512176514,8.56987667083740,1.25813436508179,-0.13276983797550,0.17236067354679
511,3821994356,0.697225,0.056411,0.232317,0.675813,-2.39457607269287,3.78010845184326,8.59130287170410,1.33741855621338,-0.17153465747833,0.29224094748497
512,3822011023,0.697182,0.056404,0.232306,0.675863,-2.37883257865906,3.79493427276611,8.56074142456055,1.31900274753571,-0.21295037865639,0.54094022512436
513,3822027690,0.697209,0.056426,0.232310,0.675831,-2.37196183204651,3.78668141365051,8.53918075561523,1.49391186237335,-0.20730276405811,0.34436270594597
514,3822044357,0.697157,0.056392,0.232337,0.675878,-2.38801527023315,3.80135583877563,8.58432769775391,1.43032824993134,0.01180745288730,0.31316646933556
515,3822061024,0.697079,0.056332,0.232327,0.675968,-2.39633202552795,3.79846358299255,8.57164001464844,1.17375314235687,-0.14583230018616,0.23634116351604
516,3822077691,0.697047,0.056283,0.232286,0.676019,-2.40480256080627,3.78253793716431,8.58340549468994,1.03060376644135,-0.27302497625351,0.24954451620579
517,3822094358,0.697059,0.056265,0.232280,0.676010,-2.38835072517395,3.79061126708984,8.58792018890381,1.33983862400055,-0.21015861630440,0.05340247601271
518,3822111025,0.697066,0.056253,0.232276,0.676005,-2.39465188980103,3.78013634681702,8.55934047698975,1.35812616348267,-0.20545867085457,0.15594291687012
519,3822127692,0.697131,0.056269,0.232296,0.675929,-2.38076519966125,3.79134345054626,8.58274078369141,1.54755771160126,-0.09750115126371,0.11606393754482
520,3822144359,0.697024,0.056212,0.232270,0.676054,-2.39004874229431,3.77992749214172,8.55081081390381,1.14821732044220,-0.29979026317596,0.29092186689377
521,3822161026,0.696940,0.056184,0.232280,0.676139,-2.39621067047119,3.79344606399536,8.58293342590332,1.45947563648224,-0.23659092187881,0.19990712404251
522,3822177693,0.696968,0.056164,0.232232,0.676129,-2.38460302352905,3.79926466941833,8.58525085449219,1.07306957244873,-0.34106507897377,0.19799895584583
523,3822194360,0.696966,0.056168,0.232237,0.676129,-2.40441727638245,3.77716350555420,8.57037353515625,1.48777770996094,-0.23550239205360,0.20097005367279
524,3822211027,0.696894,0.056140,0.232243,0.676203,-2.38123655319214,3.79909348487854,8.58104133605957,1.41958391666412,-0.23191659152508,0.18931628763676
525,3822227694,0.696956,0.056156,0.232220,0.676146,-2.39181900024414,3.78035354614258,8.55886268615723,1.33151471614838,-0.30867782235146,0.20663045346737
526,3822244361,0.696946,0.056146,0.232228,0.676154,-2.39570379257202,3.80194139480591,8.58071327209473,1.40426743030548,-0.10476234555244,0.32201567292213
527,3822261028,0.696882,0.056110,0.232225,0.676224,-2.39102053642273,3.79192686080933,8.58547496795654,1.31691539287567,-0.19815906882286,0.24170705676079
528,3822277695,0.696848,0.056099,0.232213,0.676264,-2.38710904121399,3.79641485214233,8.56838035583496,1.36773097515106,-0.32337954640388,0.21423743665218
529,3822294362,0.696817,0.056067,0.232180,0.676310,-2.38587045669556,3.78897809982300,8.58078479766846,1.16891241073608,-0.33174213767052,0.18835580348969
530,3822311029,0.696787,0.056058,0.232179,0.676341,-2.39293742179871,3.77773380279541,8.56785488128662,1.41396176815033,-0.24031756818295,0.25902122259140
531,3822327696,0.696771,0.056049,0.232212,0.676348,-2.39570307731628,3.77229881286621,8.58146572113037,1.55207848548889,-0.03065199777484,0.24148932099342
532,3822344363,0.696646,0.056015,0.232275,0.676458,-2.40750241279602,3.80265784263611,8.58113479614258,1.69173169136047,0.07217659056187,0.35608059167862
533,3822361030,0.696517,0.055940,0.232270,0.676599,-2.38268375396729,3.80166769027710,8.58131694793701,1.21162152290344,-0.18247126042843,0.17155385017395
534,3822377697,0.696555,0.055965,0.232254,0.676562,-2.40164184570312,3.77310919761658,8.56384849548340,1.39514935016632,-0.29509034752846,0.36824661493301
535,3822394364,0.696508,0.055966,0.232234,0.676618,-2.38166785240173,3.81367707252502,8.57630538940430,1.36881971359253,-0.38916575908661,0.38266655802727
536,3822411031,0.696516,0.055978,0.232233,0.676610,-2.39224982261658,3.78798866271973,8.56989192962646,1.41261732578278,-0.18020457029343,0.46776476502419
537,3822427698,0.696430,0.055951,0.232247,0.676695,-2.38479113578796,3.78323316574097,8.57673454284668,1.42027533054352,-0.10472391545773,0.43700385093689
538,3822444365,0.696677,0.056029,0.232275,0.676425,-2.39354491233826,3.77307152748108,8.59911537170410,1.59094548225403,0.12802506983280,0.32900792360306
539,3822461032,0.696627,0.056020,0.232308,0.676466,-2.40386509895325,3.80318546295166,8.57220554351807,1.55565142631531,-0.03704236447811,0.39697122573853
540,3822477699,0.696557,0.055984,0.232289,0.676548,-2.39282011985779,3.78032565116882,8.55379581451416,1.23396861553192,-0.27833959460258,0.30540579557419
541,3822494366,0.696580,0.056003,0.232318,0.676511,-2.39624667167664,3.77305626869202,8.57204055786133,1.63733041286469,-0.10594053566456,0.23244807124138
542,3822511033,0.696548,0.055991,0.232314,0.676548,-2.38655829429626,3.78564858436584,8.56104564666748,1.41072165966034,-0.28761139512062,0.16940237581730
543,3822527700,0.696513,0.055989,0.232345,0.676573,-2.37779378890991,3.78568863868713,8.54387855529785,1.61530327796936,-0.13415290415287,0.21120230853558
544,3822544367,0.696471,0.055919,0.232328,0.676628,-2.37305164337158,3.79475116729736,8.57593536376953,1.05574262142181,-0.06881491839886,0.18608906865120
545,3822561034,0.696370,0.055841,0.232314,0.676743,-2.40592551231384,3.77843928337097,8.57095050811768,1.10809504985809,-0.15057064592838,0.19484858214855
546,3822577701,0.696398,0.055857,0.232325,0.676709,-2.39392256736755,3.79019284248352,8.58893108367920,1.49981570243835,-0.13636840879917,0.33427134156227
547,3822594368,0.696401,0.055884,0.232295,0.676714,-2.40874195098877,3.79026103019714,8.57269287109375,1.40575289726257,-0.48371502757072,0.32836759090424
548,3822611035,0.696400,0.055901,0.232271,0.676722,-2.38218188285828,3.78537845611572,8.55940341949463,1.35436117649078,-0.37051975727081,0.41404211521149
549,3822627702,0.696353,0.055870,0.232248,0.676780,-2.38573980331421,3.78554987907410,8.54985427856445,1.20453977584839,-0.26445752382278,0.31857079267502
550,3822644369,0.696272,0.055832,0.232265,0.676861,-2.39705324172974,3.79249072074890,8.57463550567627,1.38089585304260,-0.05114215612411,0.38602179288864
551,3822661036,0.696264,0.055866,0.232223,0.676881,-2.41638898849487,3.79269909858704,8.57611751556396,1.36976718902588,-0.56823688745499,0.43902724981308
552,3822677703,0.696191,0.055863,0.232182,0.676970,-2.38576412200928,3.76582336425781,8.57588291168213,1.27019774913788,-0.51383560895920,0.43795156478882
553,3822694370,0.696233,0.055864,0.232143,0.676941,-2.37883520126343,3.79723858833313,8.58458709716797,1.18617522716522,-0.34558573365211,0.26051956415176
554,3822711037,0.696133,0.055776,0.232114,0.677060,-2.38470792770386,3.79189848899841,8.57978439331055,0.99203109741211,-0.18583936989307,0.16762232780457
555,3822727704,0.696142,0.055780,0.232145,0.677041,-2.38886618614197,3.77567744255066,8.57756519317627,1.58278787136078,-0.05339607223868,0.24228332936764
556,3822744371,0.696215,0.055820,0.232129,0.676968,-2.40534758567810,3.78734803199768,8.57814216613770,1.45486521720886,-0.33649319410324,0.27123847603798
557,3822761038,0.696213,0.055843,0.232104,0.676976,-2.40049958229065,3.78628897666931,8.56749248504639,1.39065444469452,-0.41598227620125,0.39620283246040
558,3822777705,0.696196,0.055846,0.232059,0.677009,-2.37761163711548,3.77871346473694,8.58575439453125,1.20728027820587,-0.45482397079468,0.40541061758995
559,3822794372,0.696380,0.055886,0.232020,0.676829,-2.38539743423462,3.76163029670715,8.57004165649414,1.20640933513641,-0.23552800714970,0.22551980614662
560,3822811039,0.696292,0.055836,0.232065,0.676908,-2.37158727645874,3.79409241676331,8.58955669403076,1.48852038383484,0.10379546135664,0.26628243923187
561,3822827706,0.696243,0.055795,0.232087,0.676956,-2.39279294013977,3.78291559219360,8.58970355987549,1.36625826358795,0.02155308797956,0.31454962491989
562,3822844373,0.696221,0.055771,0.232077,0.676983,-2.40159249305725,3.78081774711609,8.56613922119141,1.29981887340546,-0.23148116469383,0.18730567395687
563,3822861040,0.696232,0.055770,0.232042,0.676984,-2.40185093879700,3.77812218666077,8.57609176635742,1.24604511260986,-0.38800039887428,0.23503494262695
564,3822877707,0.696181,0.055761,0.232031,0.677041,-2.38947725296021,3.77278661727905,8.56463146209717,1.37276399135590,-0.31167456507683,0.33131307363510
565,3822894374,0.696228,0.055784,0.232014,0.676996,-2.39099836349487,3.78708839416504,8.57346248626709,1.39085924625397,-0.29913711547852,0.29729941487312
566,3822911041,0.696175,0.055753,0.231989,0.677062,-2.39434671401978,3.77509570121765,8.56274414062500,1.18305063247681,-0.26074370741844,0.39898180961609
567,3822927708,0.696147,0.055734,0.231958,0.677103,-2.39093255996704,3.79761505126953,8.59060955047607,1.17974650859833,-0.28955796360970,0.40195289254189
568,3822944375,0.696192,0.055753,0.231930,0.677065,-2.38571429252625,3.77906680107117,8.58461284637451,1.30277717113495,-0.32751601934433,0.34477254748344
569,3822961042,0.696120,0.055753,0.231956,0.677130,-2.39082980155945,3.79118013381958,8.56435012817383,1.60411036014557,-0.17647789418697,0.38977402448654
570,3822977709,0.696116,0.055736,0.231931,0.677144,-2.37981700897217,3.78943419456482,8.57760524749756,1.20585870742798,-0.24683599174023,0.32776573300362
571,3822994376,0.696110,0.055710,0.231915,0.677158,-2.39580607414246,3.78430581092834,8.57717132568359,1.19229686260223,-0.13789238035679,0.36741414666176
572,3823011043,0.696043,0.055657,0.231863,0.677249,-2.39876842498779,3.78471040725708,8.59538364410400,1.01880908012390,-0.41073161363602,0.18512858450413
573,3823027710,0.696009,0.055672,0.231861,0.677284,-2.40549015998840,3.77555131912231,8.56311035156250,1.51714265346527,-0.35128459334373,0.34201920032501
574,3823044377,0.696020,0.055668,0.231857,0.677274,-2.39645671844482,3.78162837028503,8.58801651000977,1.37043321132660,-0.19990071654320,0.23598261177540
575,3823061044,0.696039,0.055673,0.231828,0.677264,-2.38584923744202,3.77429318428040,8.57044410705566,1.30125319957733,-0.37117281556129,0.22667239606380
576,3823077711,0.696038,0.055640,0.231783,0.677283,-2.37234663963318,3.77836084365845,8.58981037139893,1.05680549144745,-0.32541576027870,0.20351849496365
577,3823094378,0.696011,0.055660,0.231774,0.677312,-2.39724397659302,3.77495455741882,8.56725692749023,1.51422286033630,-0.41164094209671,0.29582670331001
578,3823111045,0.695957,0.055653,0.231763,0.677371,-2.37296056747437,3.80037546157837,8.57479572296143,1.38288104534149,-0.32181715965271,0.35611900687218
579,3823127712,0.696051,0.055669,0.231728,0.677286,-2.38589739799500,3.77412295341492,8.54676628112793,1.21547651290894,-0.28255292773247,0.25630629062653
580,3823144379,0.696024,0.055666,0.231756,0.677304,-2.39145874977112,3.78841733932495,8.57321929931641,1.56794524192810,-0.09412025660276,0.27546456456184
581,3823161046,0.696037,0.055663,0.231736,0.677298,-2.39438009262085,3.78590321540833,8.57262802124023,1.28244066238403,-0.25801596045494,0.32337313890457
582,3823177713,0.695879,0.055651,0.231750,0.677456,-2.38071727752686,3.77202939987183,8.57378387451172,1.59049725532532,-0.34330621361732,0.46474239230156
583,3823194380,0.695813,0.055619,0.231722,0.677537,-2.39146232604980,3.79083633422852,8.58653163909912,1.18457448482513,-0.30861380696297,0.37681400775909
584,3823211047,0.695795,0.055611,0.231685,0.677569,-2.38958096504211,3.76406979560852,8.59138679504395,1.24822211265564,-0.45158389210701,0.19021271169186
585,3823227714,0.695753,0.055614,0.231699,0.677607,-2.38998246192932,3.76347637176514,8.56939125061035,1.56702327728271,-0.25509607791901,0.24590751528740
586,3823244381,0.695678,0.055600,0.231660,0.677698,-2.40348196029663,3.78573155403137,8.57599258422852,1.29216063022614,-0.55464935302734,0.21022902429104
587,3823261048,0.695660,0.055588,0.231612,0.677734,-2.38986277580261,3.77894663810730,8.56549644470215,1.15688729286194,-0.45805117487907,0.26872846484184
588,3823277715,0.695598,0.055581,0.231599,0.677803,-2.38565921783447,3.77907872200012,8.58978366851807,1.39755702018738,-0.36862438917160,0.31407573819160
589,3823294382,0.695553,0.055581,0.231622,0.677841,-2.35789155960083,3.78337526321411,8.58758068084717,1.59770727157593,-0.18592898547649,0.26865160465240
590,3823311049,0.695562,0.055552,0.231591,0.677844,-2.37998270988464,3.77860713005066,8.55992221832275,1.14145541191101,-0.26905500888824,0.14764440059662
591,3823327716,0.695588,0.055545,0.231552,0.677831,-2.39290356636047,3.75926566123962,8.56764984130859,1.16065239906311,-0.31496578454971,0.29618525505066
592,3823344383,0.695567,0.055536,0.231573,0.677847,-2.39209008216858,3.79381632804871,8.58762741088867,1.49949550628662,-0.10633753240108,0.24394816160202
593,3823361050,0.695501,0.055544,0.231580,0.677912,-2.37803530693054,3.80241608619690,8.57718944549561,1.52613270282745,-0.26376599073410,0.50792545080185
594,3823377717,0.695453,0.055543,0.231556,0.677969,-2.37743592262268,3.78126072883606,8.56279373168945,1.31261241436005,-0.35339763760567,0.48034057021141
595,3823394384,0.695370,0.055541,0.231538,0.678061,-2.37055420875549,3.76409792900085,8.57584095001221,1.41069614887238,-0.45167353749275,0.36863076686859
596,3823411051,0.695345,0.055566,0.231551,0.678079,-2.34986972808838,3.76109790802002,8.55865955352783,1.62750780582428,-0.28544715046883,0.35660564899445
597,3823427718,0.695342,0.055582,0.231574,0.678073,-2.38268756866455,3.78705382347107,8.57875633239746,1.59650361537933,-0.15224827826023,0.32831636071205
598,3823444385,0.695261,0.055573,0.231573,0.678157,-2.37760901451111,3.77913451194763,8.60011482238770,1.47960722446442,-0.34591868519783,0.28389120101929
599,3823461052,0.695226,0.055556,0.231561,0.678199,-2.37614893913269,3.74757075309753,8.56272029876709,1.32173061370850,-0.27246150374413,0.27210929989815
600,3823477719,0.695215,0.055552,0.231568,0.678209,-2.38780784606934,3.81288242340088,8.59391975402832,1.47840332984924,-0.23469555377960,0.15106369554996
601,3823494386,0.695237,0.055572,0.231560,0.678186,-2.39209032058716,3.75272107124329,8.56185150146484,1.48406374454498,-0.34407460689545,0.18252889811993
602,3823511053,0.695187,0.055591,0.231595,0.678224,-2.37072920799255,3.78885102272034,8.56274700164795,1.76612377166748,-0.25458383560181,0.22819635272026
603,3823527720,0.695164,0.055566,0.231572,0.678258,-2.36435747146606,3.78021812438965,8.57674789428711,1.18963289260864,-0.22469383478165,0.35357052087784
604,3823544387,0.695081,0.055536,0.231560,0.678350,-2.39918589591980,3.80294632911682,8.58161258697510,1.31776046752930,-0.31269901990891,0.27099514007568
605,3823561054,0.695039,0.055509,0.231507,0.678412,-2.38318705558777,3.76572251319885,8.58371543884277,1.11594533920288,-0.49600914120674,0.18679343163967
606,3823577721,0.694979,0.055531,0.231533,0.678464,-2.37929034233093,3.77632856369019,8.55951976776123,1.74138188362122,-0.32240626215935,0.27917847037315
607,3823594388,0.694979,0.055503,0.231491,0.678480,-2.38306999206543,3.79403972625732,8.58604049682617,1.09928417205811,-0.33098649978638,0.18365585803986
608,3823611055,0.695031,0.055477,0.231466,0.678437,-2.39117240905762,3.79918670654297,8.60428142547607,1.13281118869781,-0.15872830152512,0.12990760803223
609,3823627722,0.695035,0.055461,0.231453,0.678440,-2.39385795593262,3.75642204284668,8.59577083587646,1.28112149238586,-0.21342422068119,0.23607222735882
610,3823644389,0.695008,0.055488,0.231467,0.678460,-2.37795376777649,3.77405261993408,8.57528781890869,1.67069077491760,-0.34785252809525,0.23675100505352
611,3823661056,0.694986,0.055508,0.231464,0.678482,-2.38035678863525,3.77995109558105,8.57007789611816,1.53311216831207,-0.37699976563454,0.29238179326057
612,3823677723,0.694949,0.055483,0.231450,0.678527,-2.36094141006470,3.79388117790222,8.57383632659912,1.26679122447968,-0.22605127096176,0.30869701504707
613,3823694390,0.694887,0.055453,0.231485,0.678581,-2.38816046714783,3.76035499572754,8.58620548248291,1.49429607391357,0.02521570213139,0.32763764262199
614,3823711057,0.694861,0.055464,0.231531,0.678591,-2.38784527778625,3.78943252563477,8.60265731811523,1.69142436981201,-0.01733339577913,0.39741951227188
615,3823727724,0.694750,0.055427,0.231531,0.678708,-2.39075279235840,3.77429127693176,8.58618831634521,1.34389841556549,-0.20767416059971,0.41203150153160
616,3823744391,0.694712,0.055415,0.231513,0.678753,-2.39163875579834,3.77243256568909,8.58095455169678,1.32279348373413,-0.32295691967010,0.29974541068077
617,3823761058,0.694706,0.055413,0.231507,0.678761,-2.37002658843994,3.79207706451416,8.59178924560547,1.36094355583191,-0.20617583394051,0.36727330088615
618,3823777725,0.694716,0.055410,0.231511,0.678750,-2.38751649856567,3.77031612396240,8.57612037658691,1.40682864189148,-0.15529619157314,0.26858755946159
619,3823794392,0.694640,0.055417,0.231525,0.678823,-2.37410497665405,3.77999281883240,8.58467578887939,1.59880852699280,-0.29839435219765,0.36820814013481
620,3823811059,0.694590,0.055399,0.231506,0.678882,-2.37954211235046,3.78913903236389,8.58623981475830,1.29286503791809,-0.30296623706818,0.33916336297989
621,3823827726,0.694574,0.055377,0.231474,0.678911,-2.37622427940369,3.76820039749146,8.58788108825684,1.16991126537323,-0.30468225479126,0.28722083568573
622,3823844393,0.694510,0.055347,0.231472,0.678979,-2.39098405838013,3.77868652343750,8.58548545837402,1.33326900005341,-0.18555758893490,0.32250228524208
623,3823861060,0.694443,0.055353,0.231469,0.679049,-2.38264632225037,3.75619053840637,8.58215713500977,1.52312314510345,-0.41123110055923,0.28865513205528
624,3823877727,0.694373,0.055385,0.231508,0.679105,-2.37182950973511,3.79379343986511,8.58261108398438,1.83429169654846,-0.26550763845444,0.39072170853615
625,3823894394,0.694392,0.055416,0.231530,0.679074,-2.39060926437378,3.79653429985046,8.52719306945801,1.64106965065002,-0.17804028093815,0.32068377733231
626,3823911061,0.694341,0.055374,0.231508,0.679138,-2.36838507652283,3.76105499267578,8.56758308410645,1.14235198497772,-0.19426591694355,0.35873147845268
627,3823927728,0.694305,0.055339,0.231549,0.679164,-2.38278508186340,3.77366614341736,8.57682704925537,1.49292576313019,0.10061948746443,0.23287068307400
628,3823944395,0.694254,0.055323,0.231572,0.679210,-2.37356781959534,3.78374791145325,8.60374927520752,1.50701284408569,-0.11656980216503,0.28706714510918
629,3823961062,0.694208,0.055334,0.231568,0.679257,-2.39521145820618,3.77232193946838,8.58461189270020,1.52375066280365,-0.39514631032944,0.26819056272507
630,3823977729,0.694277,0.055357,0.231533,0.679197,-2.38267683982849,3.77663993835449,8.58764648437500,1.30681109428406,-0.41329294443130,0.17058058083057
631,3823994396,0.694212,0.055320,0.231507,0.679275,-2.40018653869629,3.78923153877258,8.59216117858887,1.20110750198364,-0.32620975375175,0.25562757253647
632,3824011063,0.694174,0.055306,0.231509,0.679313,-2.38185429573059,3.78511571884155,8.55393791198730,1.40278196334839,-0.20332001149654,0.29463568329811
633,3824027730,0.694184,0.055316,0.231490,0.679310,-2.38558578491211,3.80417251586914,8.59798526763916,1.35965025424957,-0.33046147227287,0.30087238550186
634,3824044397,0.693983,0.055255,0.231484,0.679522,-2.37723994255066,3.75930356979370,8.56831359863281,1.34699749946594,-0.37553980946541,0.29311174154282
635,3824061064,0.693959,0.055260,0.231475,0.679549,-2.37301707267761,3.78067922592163,8.57110023498535,1.44756591320038,-0.35498562455177,0.23626436293125
636,3824077731,0.693901,0.055207,0.231472,0.679613,-2.35841488838196,3.78620791435242,8.56309032440186,1.25716102123260,-0.15674331784248,0.10905887186527
637,3824094398,0.693945,0.055199,0.231466,0.679571,-2.38207507133484,3.76719236373901,8.60634899139404,1.27913665771484,-0.09755236655474,0.27405586838722
638,3824111065,0.693989,0.055208,0.231489,0.679518,-2.39446306228638,3.78447842597961,8.56790447235107,1.51349294185638,-0.02365973405540,0.29302212595940
639,3824127732,0.693937,0.055196,0.231511,0.679565,-2.39411449432373,3.78900384902954,8.57903766632080,1.49949550628662,-0.10490321367979,0.36097258329391
640,3824144399,0.693831,0.055186,0.231522,0.679669,-2.38751721382141,3.77535629272461,8.57684993743896,1.51213538646698,-0.23784594237804,0.48975327610970
641,3824161066,0.693929,0.055240,0.231474,0.679582,-2.38337063789368,3.78289914131165,8.58670139312744,1.29779541492462,-0.47741428017616,0.41790962219238
642,3824177733,0.693928,0.055249,0.231463,0.679585,-2.38172245025635,3.74796938896179,8.55232715606689,1.39822292327881,-0.28505015373230,0.34870409965515
643,3824194400,0.693978,0.055291,0.231453,0.679535,-2.37015342712402,3.78883814811707,8.57512760162354,1.45614612102509,-0.27226939797401,0.50582522153854
644,3824211067,0.693966,0.055275,0.231459,0.679546,-2.36850500106812,3.79920101165771,8.57033538818359,1.35026299953461,-0.06960891932249,0.38668775558472
645,3824227734,0.693950,0.055249,0.231471,0.679561,-2.39212727546692,3.77662682533264,8.57142734527588,1.37277662754059,-0.06877650320530,0.22441849112511
646,3824244401,0.693988,0.055255,0.231472,0.679520,-2.38008141517639,3.75837039947510,8.58750820159912,1.41019678115845,-0.16278789937496,0.24239861965179
647,3824261068,0.693978,0.055226,0.231507,0.679521,-2.37403416633606,3.79423260688782,8.54987525939941,1.49776685237885,0.01690438389778,0.06250780075788
648,3824277735,0.693906,0.055179,0.231484,0.679606,-2.39799237251282,3.78560209274292,8.59440517425537,1.19939172267914,-0.31258380413055,0.15659604966640
649,3824294402,0.693861,0.055172,0.231482,0.679654,-2.38757705688477,3.75905156135559,8.59129714965820,1.44656658172607,-0.30603969097137,0.22955377399921
650,3824311069,0.693865,0.055192,0.231479,0.679649,-2.39012622833252,3.78896141052246,8.57063293457031,1.50867772102356,-0.32711899280548,0.26538595557213
651,3824327736,0.693790,0.055137,0.231424,0.679749,-2.37009716033936,3.76693630218506,8.55768108367920,0.98049253225327,-0.40181842446327,0.27020120620728
652,3824344403,0.693824,0.055155,0.231444,0.679705,-2.36498570442200,3.76758956909180,8.57499599456787,1.56635761260986,-0.13460114598274,0.23107779026031
653,3824361070,0.693831,0.055132,0.231436,0.679704,-2.36653399467468,3.77994084358215,8.57913208007812,1.30518484115601,-0.20147588849068,0.09252586960793
654,3824377737,0.693805,0.055099,0.231465,0.679723,-2.37330651283264,3.77234745025635,8.59800720214844,1.46025693416595,-0.01341465301812,0.09429316967726
655,3824394404,0.693703,0.055042,0.231486,0.679824,-2.39924788475037,3.77929520606995,8.59905242919922,1.40965890884399,-0.09286525100470,0.11574378609657
656,3824411071,0.693675,0.055024,0.231504,0.679849,-2.40546298027039,3.79431843757629,8.57956886291504,1.44964051246643,-0.09456849843264,0.25320714712143
657,3824427738,0.693610,0.054993,0.231512,0.679914,-2.38142323493958,3.77302885055542,8.58481216430664,1.37010025978088,-0.12148743122816,0.33004525303841
658,3824444405,0.693631,0.055009,0.231509,0.679892,-2.38265800476074,3.79943394660950,8.58377170562744,1.44462037086487,-0.24679754674435,0.32315540313721
659,3824461072,0.693642,0.055010,0.231520,0.679878,-2.36626386642456,3.76684284210205,8.57805633544922,1.45796453952789,-0.13063117861748,0.27546459436417
660,3824477739,0.693579,0.054989,0.231546,0.679934,-2.38828563690186,3.80486822128296,8.59631156921387,1.49903452396393,-0.06914789229631,0.34796136617661
661,3824494406,0.693609,0.054972,0.231487,0.679925,-2.37816405296326,3.76393318176270,8.57819366455078,1.01142013072968,-0.37160828709602,0.28976929187775
662,3824511073,0.693563,0.054956,0.231496,0.679970,-2.39447975158691,3.77831721305847,8.58679771423340,1.42610228061676,-0.16254459321499,0.31125834584236
663,3824527740,0.693440,0.054901,0.231517,0.680093,-2.38899827003479,3.78321647644043,8.58685588836670,1.39741611480713,-0.09199441224337,0.27378693223000
664,3824544407,0.693468,0.054918,0.231517,0.680063,-2.37680983543396,3.77867436408997,8.57944202423096,1.43985641002655,-0.18416172266006,0.39506310224533
665,3824561074,0.693393,0.054889,0.231519,0.680141,-2.39823269844055,3.77537465095520,8.56362628936768,1.35322129726410,-0.18184377253056,0.35136783123016
666,3824577741,0.693380,0.054902,0.231499,0.680161,-2.38504624366760,3.77212405204773,8.56200981140137,1.39222943782806,-0.39100986719131,0.34889620542526
667,3824594408,0.693476,0.054934,0.231499,0.680060,-2.36843895912170,3.79305148124695,8.56263923645020,1.43625771999359,-0.12763448059559,0.33908650279045
668,3824611075,0.693408,0.054893,0.231526,0.680124,-2.38515377044678,3.77238440513611,8.58673095703125,1.42439913749695,-0.00949590932578,0.26345223188400
669,3824627742,0.693437,0.054903,0.231558,0.680082,-2.39655065536499,3.78352093696594,8.58897018432617,1.57415664196014,-0.00608941912651,0.30335682630539
670,3824644409,0.693469,0.054915,0.231580,0.680041,-2.40259075164795,3.79500675201416,8.60216140747070,1.55060553550720,-0.10340487211943,0.21590223908424
671,3824661076,0.693433,0.054912,0.231568,0.680082,-2.39307260513306,3.78382420539856,8.57737350463867,1.41530644893646,-0.37105756998062,0.21964171528816
672,3824677743,0.693385,0.054903,0.231580,0.680128,-2.37508344650269,3.78596401214600,8.57006740570068,1.48460161685944,-0.19251143932343,0.30217862129211
673,3824694410,0.693325,0.054860,0.231597,0.680187,-2.38105130195618,3.80743360519409,8.58752536773682,1.35564172267914,-0.02980678156018,0.28045907616615
674,3824711077,0.693301,0.054807,0.231616,0.680208,-2.36805558204651,3.77111148834229,8.59121990203857,1.28669226169586,0.07799066603184,0.18902170658112
675,3824727744,0.693291,0.054818,0.231634,0.680212,-2.38082122802734,3.78632140159607,8.58873939514160,1.56603729724884,-0.18197183310986,0.29873371124268
676,3824744411,0.693347,0.054866,0.231654,0.680145,-2.38202142715454,3.77917742729187,8.54523372650146,1.68668580055237,-0.23346616327763,0.25432130694389
677,3824761078,0.693393,0.054868,0.231608,0.680112,-2.38690543174744,3.78495216369629,8.56758403778076,1.15745067596436,-0.38675817847252,0.24131006002426
678,3824777745,0.693406,0.054859,0.231592,0.680105,-2.37740182876587,3.78530478477478,8.59558773040771,1.27468001842499,-0.22064702212811,0.28390398621559
679,3824794412,0.693376,0.054845,0.231637,0.680122,-2.37981295585632,3.76570844650269,8.56912231445312,1.59271287918091,0.04565463587642,0.29113954305649
680,3824811079,0.693361,0.054880,0.231680,0.680120,-2.38254356384277,3.79394292831421,8.57859325408936,1.79625689983368,-0.14786851406097,0.36770871281624
681,3824827746,0.693358,0.054877,0.231677,0.680125,-2.37704706192017,3.77465748786926,8.57605934143066,1.36811518669128,-0.19216568768024,0.34313330054283
682,3824844413,0.693339,0.054882,0.231671,0.680145,-2.39397668838501,3.76342821121216,8.57531547546387,1.44107270240784,-0.30825522542000,0.27321067452431
683,3824861080,0.693331,0.054885,0.231688,0.680147,-2.38150119781494,3.79303503036499,8.59822273254395,1.55905771255493,-0.20485675334930,0.16699481010437
684,3824877747,0.693313,0.054877,0.231708,0.680160,-2.38978099822998,3.80160474777222,8.57189178466797,1.51023995876312,-0.13152760267258,0.20572119951248
685,3824894414,0.693302,0.054873,0.231689,0.680177,-2.39093685150146,3.79084181785583,8.57663822174072,1.31380331516266,-0.31243008375168,0.28755375742912
686,3824911081,0.693261,0.054892,0.231699,0.680214,-2.38535308837891,3.78324341773987,8.56791019439697,1.56634461879730,-0.25619742274284,0.47492343187332
687,3824927748,0.693285,0.054909,0.231686,0.680193,-2.35712981224060,3.77615356445312,8.56537914276123,1.40390884876251,-0.30322235822678,0.32174673676491
688,3824944415,0.693233,0.054868,0.231680,0.680251,-2.36810564994812,3.77599430084229,8.58121871948242,1.28107047080994,-0.20757173001766,0.12970271706581
689,3824961082,0.693263,0.054828,0.231652,0.680234,-2.39039087295532,3.77170753479004,8.57079219818115,1.09230482578278,-0.18304754793644,0.07986039668322
690,3824977749,0.693290,0.054839,0.231639,0.680210,-2.39965963363647,3.79342484474182,8.59183216094971,1.38076794147491,-0.28064477443695,0.25172165036201
691,3824994416,0.693276,0.054829,0.231623,0.680230,-2.38929009437561,3.78637218475342,8.56963348388672,1.31124234199524,-0.28392317891121,0.27071344852448
692,3825011083,0.693225,0.054820,0.231614,0.680286,-2.38039588928223,3.79294395446777,8.58210754394531,1.38478922843933,-0.30751249194145,0.33441224694252
693,3825027750,0.693287,0.054840,0.231559,0.680240,-2.38111734390259,3.77593111991882,8.57007503509521,1.18402385711670,-0.48582804203033,0.25031289458275
694,3825044417,0.693215,0.054841,0.231557,0.680314,-2.36331892013550,3.75331139564514,8.54847049713135,1.48086237907410,-0.34695604443550,0.38207745552063
695,3825061084,0.693330,0.054920,0.231584,0.680181,-2.37978506088257,3.78556513786316,8.53867435455322,1.77357709407806,-0.17138096690178,0.35600373148918
696,3825077751,0.693272,0.054889,0.231591,0.680240,-2.37354278564453,3.78960585594177,8.57269001007080,1.36025214195251,-0.13072082400322,0.31136080622673
697,3825094418,0.693185,0.054832,0.231606,0.680329,-2.38362550735474,3.77407264709473,8.56561565399170,1.32198667526245,-0.05996573343873,0.21869403123856
698,3825111085,0.693193,0.054818,0.231635,0.680311,-2.37694573402405,3.78460478782654,8.57867908477783,1.49596083164215,0.00694104144350,0.18138913810253
699,3825127752,0.693178,0.054793,0.231665,0.680318,-2.39332818984985,3.79078698158264,8.57250785827637,1.46120452880859,0.01686596311629,0.21188104152679
700,3825144419,0.693203,0.054792,0.231668,0.680292,-2.39789032936096,3.77867126464844,8.57450962066650,1.43703889846802,-0.20040017366409,0.12784580886364
701,3825161086,0.693216,0.054820,0.231672,0.680275,-2.39223241806030,3.78179812431335,8.56050395965576,1.55593299865723,-0.29674232006073,0.28464671969414
702,3825177753,0.693160,0.054823,0.231706,0.680320,-2.38324189186096,3.80221009254456,8.56011962890625,1.69431865215302,-0.20501045882702,0.18813808262348
703,3825194420,0.693210,0.054828,0.231715,0.680266,-2.37903690338135,3.79197478294373,8.56314468383789,1.47133433818817,-0.16264703869820,0.08207589387894
704,3825211087,0.693204,0.054833,0.231740,0.680264,-2.37866067886353,3.76935338973999,8.56580638885498,1.60352158546448,-0.18332932889462,0.12324830889702
705,3825227754,0.693218,0.054815,0.231731,0.680253,-2.38550329208374,3.75957298278809,8.56874084472656,1.32853066921234,-0.23665495216846,0.04114680364728
706,3825244421,0.693119,0.054723,0.231733,0.680361,-2.38306355476379,3.79246759414673,8.58959770202637,1.19054234027863,-0.11968175321817,-0.11940000206232
707,3825261088,0.693112,0.054680,0.231745,0.680368,-2.39438724517822,3.79312300682068,8.58825302124023,1.35783159732819,-0.09510634839535,-0.09118761867285
708,3825277755,0.693070,0.054645,0.231780,0.680402,-2.39131975173950,3.76999688148499,8.58094501495361,1.53390622138977,-0.06045237183571,-0.00543629564345
709,3825294422,0.693021,0.054626,0.231836,0.680433,-2.39630961418152,3.77453041076660,8.58622074127197,1.67612051963806,0.04751155525446,0.17996762692928
710,3825311089,0.693043,0.054631,0.231860,0.680403,-2.37079191207886,3.77584934234619,8.57923412322998,1.54056560993195,-0.08739693462849,0.20038095116615
711,3825327756,0.693005,0.054597,0.231884,0.680436,-2.40313410758972,3.79513335227966,8.57988357543945,1.42063403129578,-0.01212120987475,0.22528931498528
712,3825344423,0.692990,0.054555,0.231878,0.680456,-2.38315343856812,3.78453493118286,8.58827209472656,1.23284173011780,-0.12708382308483,0.11661462485790
713,3825361090,0.692971,0.054548,0.231903,0.680468,-2.39042091369629,3.78719568252563,8.58321666717529,1.52827131748199,-0.10298226028681,0.22819632291794
714,3825377757,0.693034,0.054544,0.231843,0.680425,-2.38863539695740,3.79138803482056,8.59677791595459,1.04795634746552,-0.40549385547638,0.21035708487034
715,3825394424,0.692969,0.054519,0.231833,0.680496,-2.38795065879822,3.77105426788330,8.56908035278320,1.31898987293243,-0.27456173300743,0.30573880672455
716,3825411091,0.692938,0.054486,0.231788,0.680546,-2.37673425674438,3.80302882194519,8.58621025085449,1.03237104415894,-0.27609845995903,0.44578900933266
717,3825427758,0.692979,0.054464,0.231740,0.680522,-2.38307809829712,3.76870632171631,8.57026290893555,0.97782886028290,-0.19709612429142,0.43020373582840
718,3825444425,0.692917,0.054439,0.231759,0.680581,-2.38522434234619,3.78645372390747,8.57762908935547,1.40572738647461,-0.03620995208621,0.46817451715469
719,3825461092,0.692866,0.054413,0.231793,0.680623,-2.37545990943909,3.77553725242615,8.56780815124512,1.46794080734253,0.06034352257848,0.42418473958969
720,3825477759,0.692840,0.054385,0.231787,0.680654,-2.38836431503296,3.80109119415283,8.58240699768066,1.24925935268402,-0.10094604641199,0.38483077287674
721,3825494426,0.692797,0.054376,0.231735,0.680717,-2.39794826507568,3.78467488288879,8.59618091583252,1.12594711780548,-0.45484957098961,0.49581062793732
722,3825511093,0.692751,0.054355,0.231701,0.680777,-2.39382600784302,3.77192568778992,8.58550453186035,1.19149005413055,-0.37244066596031,0.32602405548096
723,3825527760,0.692892,0.054423,0.231674,0.680637,-2.38903880119324,3.78159761428833,8.57653236389160,1.45524954795837,-0.40951508283615,0.24622768163681
724,3825544427,0.692856,0.054420,0.231679,0.680671,-2.38263058662415,3.77007770538330,8.58133220672607,1.48484504222870,-0.26545643806458,0.23727604746819
725,3825561094,0.692793,0.054404,0.231670,0.680740,-2.38557553291321,3.79236698150635,8.57551670074463,1.36733400821686,-0.29485979676247,0.33824130892754
726,3825577761,0.692777,0.054399,0.231656,0.680761,-2.38780283927917,3.79248428344727,8.59271240234375,1.35368251800537,-0.31593903899193,0.23094972968102
727,3825594428,0.692809,0.054415,0.231638,0.680733,-2.39880681037903,3.77463316917419,8.58439254760742,1.37278950214386,-0.32553103566170,0.27949860692024
728,3825611095,0.692838,0.054429,0.231630,0.680707,-2.39062643051147,3.78196763992310,8.58100223541260,1.41516566276550,-0.27690532803535,0.24602280557156
729,3825627762,0.692918,0.054447,0.231601,0.680633,-2.38386750221252,3.76771450042725,8.56822109222412,1.28616738319397,-0.31468403339386,0.19780687987804
730,3825644429,0.692922,0.054463,0.231576,0.680637,-2.38510155677795,3.77288722991943,8.58335399627686,1.35816466808319,-0.40294539928436,0.33191499114037
731,3825661096,0.692873,0.054455,0.231589,0.680682,-2.37785387039185,3.77554774284363,8.56268787384033,1.52866852283478,-0.24577307701111,0.19455407559872
732,3825677763,0.692777,0.054408,0.231619,0.680773,-2.39900732040405,3.78634333610535,8.58779430389404,1.48569011688232,-0.07719027251005,0.12620657682419
733,3825694430,0.692809,0.054406,0.231653,0.680729,-2.38165760040283,3.78303027153015,8.56149959564209,1.54810845851898,0.00363700371236,0.15911890566349
734,3825711097,0.692767,0.054389,0.231695,0.680760,-2.39040017127991,3.76467657089233,8.56186676025391,1.62194991111755,-0.04546894505620,0.15098686516285
735,3825727764,0.692740,0.054423,0.231703,0.680781,-2.38736033439636,3.80882596969604,8.59070968627930,1.63179802894592,-0.35253959894180,0.38407525420189
736,3825744431,0.692597,0.054394,0.231706,0.680928,-2.38564991950989,3.77546095848083,8.58472347259521,1.46137106418610,-0.34189751744270,0.35218745470047
737,3825761098,0.692537,0.054378,0.231738,0.680979,-2.38878870010376,3.76881551742554,8.59326171875000,1.58597660064697,-0.11810653656721,0.20032972097397
738,3825777765,0.692591,0.054406,0.231731,0.680924,-2.39508652687073,3.76735877990723,8.59666633605957,1.44282734394073,-0.25153592228889,0.31465202569962
739,3825794432,0.692603,0.054394,0.231727,0.680915,-2.38383817672729,3.79160308837891,8.57365989685059,1.33169388771057,-0.17918004095554,0.20967836678028
740,3825811099,0.692615,0.054398,0.231765,0.680889,-2.38984441757202,3.76680350303650,8.56937980651855,1.64516770839691,-0.06583104282618,0.11383565515280
741,3825827766,0.692589,0.054367,0.231771,0.680916,-2.38480782508850,3.76777100563049,8.57670974731445,1.36855065822601,-0.16196832060814,0.09134769439697
742,3825844433,0.692544,0.054333,0.231808,0.680952,-2.38064527511597,3.77982568740845,8.58923625946045,1.49601221084595,0.03160607442260,0.19329905509949
743,3825861100,0.692506,0.054272,0.231787,0.681002,-2.38937401771545,3.79686665534973,8.56638717651367,1.10943961143494,-0.19420187175274,0.05406840518117
744,3825877767,0.692513,0.054251,0.231814,0.680988,-2.41195845603943,3.77777338027954,8.56591129302979,1.43643689155579,0.03806046769023,0.21404533088207
745,3825894434,0.692464,0.054253,0.231858,0.681023,-2.40411520004272,3.78527188301086,8.59327888488770,1.67250931262970,-0.03483967483044,0.40021124482155
746,3825911101,0.692389,0.054252,0.231886,0.681089,-2.40433716773987,3.79468846321106,8.57593822479248,1.58606648445129,-0.12813393771648,0.48991975188255
747,3825927768,0.692354,0.054249,0.231878,0.681128,-2.38138508796692,3.79159426689148,8.57042598724365,1.30804049968719,-0.16426064074039,0.63583523035049
748,3825944435,0.692265,0.054206,0.231888,0.681219,-2.38727116584778,3.76251506805420,8.55866909027100,1.31448221206665,-0.05609821900725,0.43594098091125
749,3825961102,0.692256,0.054216,0.231925,0.681214,-2.39464521408081,3.76734042167664,8.56239604949951,1.60144686698914,0.00943828001618,0.47603768110275
750,3825977769,0.692205,0.054219,0.231930,0.681264,-2.39492940902710,3.77300739288330,8.58920764923096,1.47063004970551,-0.23039266467094,0.47369411587715
751,3825994436,0.692116,0.054194,0.231946,0.681351,-2.38468194007874,3.78708934783936,8.57478332519531,1.47421574592590,-0.18266339600086,0.30322876572609
752,3826011103,0.692044,0.054144,0.231942,0.681430,-2.38232421875000,3.78850889205933,8.57665252685547,1.25675117969513,-0.17305861413479,0.19725620746613
753,3826027770,0.692044,0.054085,0.231915,0.681444,-2.38186144828796,3.78895831108093,8.56285858154297,1.02244615554810,-0.12534213066101,0.11795927584171
754,3826044437,0.692093,0.054053,0.231900,0.681401,-2.40730142593384,3.78862810134888,8.55668830871582,1.15964055061340,-0.08784515410662,0.09840398281813
755,3826061104,0.692125,0.054047,0.231896,0.681371,-2.40226268768311,3.78196120262146,8.56697940826416,1.34184932708740,-0.16840989887714,0.19848561286926
756,3826077771,0.692072,0.054046,0.231957,0.681404,-2.40175724029541,3.78332757949829,8.57398033142090,1.77186095714569,0.00038419049815,0.25645998120308
757,3826094438,0.692047,0.054017,0.231959,0.681432,-2.37835025787354,3.79182171821594,8.55423259735107,1.29663014411926,-0.08906176686287,0.31631684303284
758,3826111105,0.691971,0.053990,0.231984,0.681502,-2.39328479766846,3.78261041641235,8.56222343444824,1.47166740894318,-0.05992731824517,0.37427839636803
759,3826127772,0.691915,0.053970,0.231977,0.681563,-2.37594437599182,3.76296973228455,8.57855796813965,1.35349035263062,-0.26723653078079,0.28980770707130
760,3826144439,0.691877,0.053943,0.231990,0.681599,-2.38931274414062,3.79498648643494,8.59233379364014,1.40584254264832,-0.12153865396976,0.19523279368877
761,3826161106,0.691889,0.053909,0.231972,0.681596,-2.39067292213440,3.78993558883667,8.59846782684326,1.15809106826782,-0.14247705042362,0.18494932353497
762,3826177773,0.691836,0.053880,0.232000,0.681642,-2.40320777893066,3.78842377662659,8.59489917755127,1.45790052413940,0.00085802550893,0.33151799440384
763,3826194440,0.691781,0.053837,0.232017,0.681696,-2.39623451232910,3.79259562492371,8.57479476928711,1.32157683372498,0.02189885824919,0.36964246630669
764,3826211107,0.691685,0.053796,0.232025,0.681793,-2.40735673904419,3.78072404861450,8.55782985687256,1.35743474960327,-0.14261792600155,0.31926229596138
765,3826227774,0.691636,0.053750,0.232008,0.681852,-2.38507771492004,3.78347349166870,8.58068466186523,1.15640056133270,-0.16502903401852,0.30107730627060
766,3826244441,0.691654,0.053743,0.231993,0.681840,-2.38853502273560,3.78114843368530,8.58732700347900,1.29999840259552,-0.25038337707520,0.22012835741043
767,3826261108,0.691645,0.053713,0.231977,0.681857,-2.39492130279541,3.79217791557312,8.58418273925781,1.21671843528748,-0.18974529206753,0.21015220880508
768,3826277775,0.691721,0.053721,0.231942,0.681791,-2.39834880828857,3.79042530059814,8.56911945343018,1.17019307613373,-0.25855380296707,0.30872267484665
769,3826294442,0.691744,0.053695,0.231933,0.681773,-2.40553450584412,3.78859901428223,8.57384300231934,1.23175311088562,-0.11215160042048,0.18893207609653
770,3826311109,0.691724,0.053669,0.231912,0.681802,-2.40563821792603,3.77693271636963,8.58654403686523,1.21678256988525,-0.25640234351158,0.23407448828220
771,3826327776,0.691706,0.053660,0.231910,0.681822,-2.39556264877319,3.78769922256470,8.59768867492676,1.37698984146118,-0.21045316755772,0.29512232542038
772,3826344443,0.691680,0.053647,0.231908,0.681849,-2.39012312889099,3.77650117874146,8.56873989105225,1.38284230232239,-0.22162027657032,0.25352725386620
773,3826361110,0.691668,0.053627,0.231899,0.681867,-2.40188479423523,3.78978919982910,8.56267261505127,1.28255581855774,-0.18749134242535,0.27009871602058
