sep=,
DeviceTag:,A
FirmwareVersion:,3.0.0
AppVersion:,2023.6.0
StartTime: ,2024-03-14_11:44:43_000 EDT
© Movella Technologies B. V. 2005-2024

PacketCounter,SampleTimeFine,Quat_W,Quat_X,Quat_Y,Quat_Z,Acc_X,Acc_Y,Acc_Z,Gyr_X,Gyr_Y,Gyr_Z
0,2945665418,0.825482,-0.078883,0.304383,-0.468737,0.00000000000000,0.00000000000000,0.00000000000000,0.00000000000000,0.00000000000000,0.00000000000000
1,2945682085,0.825504,-0.078752,0.304341,-0.468748,-4.24328660964966,-4.17298316955566,7.98886823654175,1.91951179504395,0.79762434959412,1.16142714023590
2,2945698752,0.825503,-0.078702,0.304358,-0.468747,-4.27968025207520,-4.09412288665771,8.00071144104004,1.20823407173157,0.88443839550018,1.06609642505646
3,2945715419,0.825499,-0.078751,0.304407,-0.468713,-4.27566051483154,-4.12102270126343,7.97169446945190,0.44155651330948,0.71087402105331,1.10693597793579
4,2945732086,0.825504,-0.078737,0.304437,-0.468688,-4.26262569427490,-4.12825584411621,7.98968744277954,0.92594397068024,0.82788568735123,1.12646567821503
5,2945748753,0.825492,-0.078748,0.304487,-0.468674,-4.26615953445435,-4.13411998748779,7.99857568740845,0.70406115055084,0.87325853109360,1.03086626529694
6,2945765420,0.825470,-0.078740,0.304528,-0.468689,-4.30828475952148,-4.13210916519165,8.00036048889160,0.88950991630554,0.91978412866592,0.87322020530701
7,2945782087,0.825426,-0.078813,0.304602,-0.468705,-4.27068853378296,-4.11347198486328,8.00155925750732,0.32661953568459,0.90259790420532,0.61946225166321
8,2945798754,0.825376,-0.078968,0.304711,-0.468695,-4.26803588867188,-4.15569400787354,7.95094680786133,-0.30709624290466,0.83483952283859,0.59354227781296
9,2945815421,0.825352,-0.078932,0.304734,-0.468730,-4.24472284317017,-4.15306472778320,7.95555639266968,1.18053412437439,0.94798362255096,0.74082809686661
10,2945832088,0.825272,-0.079033,0.304857,-0.468775,-4.29266262054443,-4.13886880874634,7.98543310165405,0.05840336158872,1.18811547756195,0.30438771843910
11,2945848755,0.825218,-0.079025,0.304915,-0.468833,-4.28461170196533,-4.12172079086304,7.96540880203247,0.93175798654556,1.12372529506683,0.49434429407120
12,2945865422,0.825153,-0.079063,0.305010,-0.468879,-4.24008226394653,-4.15080595016479,7.96757411956787,0.51405334472656,1.20213842391968,0.46136790513992
13,2945882089,0.825090,-0.079052,0.305082,-0.468945,-4.30029058456421,-4.13734626770020,7.96055412292480,0.90140688419342,1.22361469268799,0.46063798666000
14,2945898756,0.825016,-0.079109,0.305167,-0.469010,-4.29263353347778,-4.10555505752563,8.00075721740723,0.46900054812431,1.10250508785248,0.28310358524323
15,2945915423,0.824931,-0.079279,0.305313,-0.469035,-4.27754688262939,-4.13471126556396,7.97589731216431,-0.46129748225212,1.08585691452026,0.28283464908600
16,2945932090,0.824869,-0.079363,0.305395,-0.469077,-4.26299238204956,-4.18453168869019,7.94947624206543,0.28391036391258,0.96508002281189,0.40042251348495
17,2945948757,0.824819,-0.079363,0.305439,-0.469136,-4.26823377609253,-4.13784742355347,7.95687866210938,0.91408526897430,0.99790269136429,0.50428205728531
18,2945965424,0.824774,-0.079414,0.305514,-0.469158,-4.28204250335693,-4.11637830734253,8.00099658966064,0.45586124062538,0.97435200214386,0.64977502822876
19,2945982091,0.824736,-0.079488,0.305603,-0.469155,-4.28426599502563,-4.15288066864014,7.96336126327515,0.21758626401424,0.94044077396393,0.79440993070602
20,2945998758,0.824711,-0.079524,0.305642,-0.469167,-4.28387403488159,-4.15744161605835,7.96507406234741,0.66963762044907,0.79780364036560,0.72799623012543
21,2946015425,0.824684,-0.079580,0.305676,-0.469183,-4.28821229934692,-4.15140295028687,7.97265148162842,0.55993843078613,0.69098573923111,0.69750422239304
22,2946032092,0.824669,-0.079621,0.305684,-0.469195,-4.26194524765015,-4.13521718978882,7.95809888839722,0.72328341007233,0.56289672851562,0.78379350900650
23,2946048759,0.824656,-0.079717,0.305744,-0.469163,-4.28779697418213,-4.17417812347412,7.95421409606934,0.15564195811749,0.65368086099625,0.94190061092377
24,2946065426,0.824655,-0.079668,0.305721,-0.469189,-4.29363822937012,-4.17203378677368,7.96325063705444,1.39589858055115,0.67524683475494,0.87621688842773
25,2946082093,0.824637,-0.079710,0.305739,-0.469202,-4.29576158523560,-4.13282918930054,7.97173786163330,0.68394225835800,0.61883479356766,0.77211397886276
26,2946098760,0.824589,-0.079903,0.305826,-0.469196,-4.29499912261963,-4.17674398422241,7.96841144561768,-0.44665986299515,0.58753609657288,0.48521333932877
27,2946115427,0.824568,-0.079953,0.305856,-0.469206,-4.27581310272217,-4.17048883438110,7.96797800064087,0.59089130163193,0.66283744573593,0.77190905809402
28,2946132094,0.824548,-0.080005,0.305892,-0.469209,-4.24174022674561,-4.19145679473877,7.95160818099976,0.55313831567764,0.69946360588074,0.79827743768692
29,2946148761,0.824515,-0.080034,0.305936,-0.469233,-4.29636621475220,-4.14749145507812,7.96616840362549,0.64965969324112,0.80788218975067,0.78051501512527
30,2946165428,0.824457,-0.080146,0.306017,-0.469262,-4.28010368347168,-4.17006778717041,7.96986770629883,0.09121322631836,0.83405834436417,0.44703760743141
31,2946182095,0.824440,-0.080180,0.306049,-0.469267,-4.26043367385864,-4.21148872375488,7.93313980102539,0.65658801794052,0.71207791566849,0.86690670251846
32,2946198762,0.824389,-0.080140,0.306063,-0.469354,-4.27599859237671,-4.16531753540039,7.95093441009521,1.28613531589508,0.96118700504303,0.43932825326920
33,2946215429,0.824316,-0.080264,0.306148,-0.469405,-4.32398271560669,-4.12474155426025,7.98883199691772,0.07427042722702,0.88906157016754,0.20618861913681
34,2946232096,0.824218,-0.080455,0.306278,-0.469460,-4.27294301986694,-4.16737174987793,7.96343946456909,-0.49737298488617,0.94794523715973,0.05896683782339
35,2946248763,0.824198,-0.080499,0.306342,-0.469445,-4.26114845275879,-4.25085926055908,7.90029716491699,0.47078061103821,0.86379456520081,0.94309163093567
36,2946265430,0.824174,-0.080369,0.306319,-0.469525,-4.26141929626465,-4.17808532714844,7.92359828948975,1.92918050289154,0.99566179513931,0.70983678102493
37,2946282097,0.824125,-0.080360,0.306358,-0.469586,-4.30532026290894,-4.11720037460327,7.97467803955078,1.00616300106049,1.01350092887878,0.48162758350372
38,2946298764,0.824053,-0.080505,0.306473,-0.469614,-4.26512575149536,-4.13307857513428,7.95071554183960,-0.21952642500401,0.95608997344971,0.36652413010597
39,2946315431,0.824013,-0.080625,0.306573,-0.469598,-4.26235008239746,-4.22432136535645,7.92703628540039,-0.10013284534216,0.85529124736786,0.74940836429596
40,2946332098,0.823978,-0.080558,0.306586,-0.469661,-4.27882814407349,-4.21629810333252,7.93983888626099,1.44305121898651,1.02812564373016,0.62535315752029
41,2946348765,0.823932,-0.080611,0.306625,-0.469708,-4.30125713348389,-4.15035581588745,7.97183513641357,0.61898851394653,0.80014711618423,0.44666627049446
42,2946365432,0.823880,-0.080762,0.306711,-0.469717,-4.28045701980591,-4.18759632110596,7.96716928482056,-0.16605992615223,0.72692036628723,0.47704294323921
43,2946382099,0.823816,-0.080887,0.306796,-0.469753,-4.27227163314819,-4.21243572235107,7.94809484481812,0.02126494236290,0.84838861227036,0.34493264555931
44,2946398766,0.823779,-0.080981,0.306848,-0.469767,-4.28810739517212,-4.20092058181763,7.94221735000610,0.28160527348518,0.69500702619553,0.60474795103073
45,2946415433,0.823739,-0.081011,0.306889,-0.469806,-4.25402975082397,-4.17833614349365,7.97247266769409,0.73411756753922,0.86320555210114,0.56097573041916
46,2946432100,0.823705,-0.081093,0.306963,-0.469803,-4.25973701477051,-4.22093391418457,7.92773628234863,0.23175013065338,0.83154833316803,0.75969183444977
47,2946448767,0.823675,-0.081072,0.306968,-0.469856,-4.28428220748901,-4.19673013687134,7.95521116256714,1.16936707496643,0.80519294738770,0.62107598781586
48,2946465434,0.823640,-0.081164,0.307030,-0.469860,-4.28330707550049,-4.17622470855713,7.97938680648804,0.24550411105156,0.74852472543716,0.66037863492966
49,2946482101,0.823606,-0.081244,0.307092,-0.469866,-4.26537990570068,-4.20953416824341,7.94528961181641,0.31867957115173,0.79032456874847,0.67428630590439
50,2946498768,0.823571,-0.081304,0.307123,-0.469897,-4.26578283309937,-4.18638181686401,7.96776294708252,0.57630491256714,0.69431537389755,0.57583105564117
51,2946515435,0.823541,-0.081385,0.307166,-0.469906,-4.26347875595093,-4.18035793304443,7.93661594390869,0.37351641058922,0.66268372535706,0.67419666051865
52,2946532102,0.823493,-0.081490,0.307227,-0.469932,-4.27452373504639,-4.20003318786621,7.93067073822021,0.22060857713223,0.74673181772232,0.45392742753029
53,2946548769,0.823441,-0.081615,0.307319,-0.469942,-4.26562404632568,-4.22431993484497,7.91727447509766,-0.05075155943632,0.84672379493713,0.54140758514404
54,2946565436,0.823413,-0.081638,0.307358,-0.469960,-4.26582288742065,-4.22639083862305,7.93371200561523,0.73092877864838,0.82659226655960,0.75593960285187
55,2946582103,0.823375,-0.081708,0.307428,-0.469971,-4.29594326019287,-4.21540594100952,7.93897628784180,0.36249011754990,0.87826591730118,0.65995603799820
56,2946598770,0.823327,-0.081737,0.307454,-0.470033,-4.27650022506714,-4.20291519165039,7.94080400466919,0.84580183029175,0.82514512538910,0.37862613797188
57,2946615437,0.823256,-0.081926,0.307566,-0.470050,-4.27396678924561,-4.19394826889038,7.95703029632568,-0.46755984425545,0.80039048194885,0.31697636842728
58,2946632104,0.823189,-0.082036,0.307658,-0.470089,-4.26279163360596,-4.22161293029785,7.96007347106934,0.05444619432092,0.89914017915726,0.42657309770584
59,2946648771,0.823147,-0.082103,0.307707,-0.470118,-4.27062702178955,-4.21522045135498,7.92166805267334,0.46359625458717,0.77621209621429,0.55819678306580
60,2946665438,0.823112,-0.082171,0.307768,-0.470128,-4.25955200195312,-4.22447729110718,7.92483758926392,0.38045740127563,0.81376028060913,0.70979833602905
61,2946682105,0.823058,-0.082238,0.307816,-0.470179,-4.27217292785645,-4.20812129974365,7.94036579132080,0.49307647347450,0.79584413766861,0.42976185679436
62,2946698772,0.823007,-0.082354,0.307892,-0.470199,-4.28251647949219,-4.21843719482422,7.95352554321289,0.10189372301102,0.81060987710953,0.44433552026749
63,2946715439,0.822951,-0.082470,0.307956,-0.470235,-4.26639938354492,-4.20466947555542,7.94691085815430,0.18250967562199,0.76788789033890,0.32980829477310
64,2946732106,0.822928,-0.082609,0.308047,-0.470191,-4.27134275436401,-4.27064657211304,7.90487289428711,-0.20245558023453,0.71959525346756,0.86589491367340
65,2946748773,0.822910,-0.082552,0.308028,-0.470244,-4.27306795120239,-4.24430751800537,7.90505123138428,1.44981348514557,0.75468468666077,0.73418170213699
66,2946765440,0.822889,-0.082536,0.308037,-0.470279,-4.26691579818726,-4.15377950668335,7.96051311492920,1.10217201709747,0.79239928722382,0.72642093896866
67,2946782107,0.822851,-0.082763,0.308170,-0.470217,-4.26412105560303,-4.24064826965332,7.93393087387085,-0.90052974224091,0.67148172855377,0.80274683237076
68,2946798774,0.822828,-0.082737,0.308165,-0.470265,-4.25096464157104,-4.20610475540161,7.94213199615479,1.22936475276947,0.75583720207214,0.66368269920349
69,2946815441,0.822789,-0.082923,0.308292,-0.470217,-4.25795984268188,-4.23194599151611,7.93575763702393,-0.60380661487579,0.80249071121216,0.76327764987946
70,2946832108,0.822784,-0.083084,0.308363,-0.470152,-4.26204442977905,-4.35769605636597,7.88347911834717,-0.31612470746040,0.46870598196983,1.02313125133514
71,2946848775,0.822754,-0.082867,0.308258,-0.470312,-4.30142927169800,-4.20515441894531,7.93480873107910,2.85135316848755,0.86686831712723,0.39480057358742
72,2946865442,0.822680,-0.083053,0.308364,-0.470339,-4.30813980102539,-4.16093730926514,7.96814393997192,-0.43414810299873,0.75857776403427,0.28438422083855
73,2946882109,0.822593,-0.083357,0.308518,-0.470335,-4.25115442276001,-4.28259372711182,7.90078067779541,-1.30186784267426,0.69737625122070,0.14202882349491
74,2946898776,0.822545,-0.083351,0.308535,-0.470409,-4.24832630157471,-4.24042844772339,7.89251375198364,1.07703328132629,0.86967289447784,0.42638105154037
75,2946915443,0.822524,-0.083499,0.308642,-0.470349,-4.25380659103394,-4.24832391738892,7.88826322555542,-0.34656542539597,0.75453096628189,0.97952568531036
76,2946932110,0.822508,-0.083526,0.308676,-0.470350,-4.26058626174927,-4.28377866744995,7.89729070663452,0.67401736974716,0.73305463790894,0.91587811708450
77,2946948777,0.822494,-0.083472,0.308653,-0.470399,-4.27520370483398,-4.22178268432617,7.91848611831665,1.43631553649902,0.70760852098465,0.76921987533569
78,2946965444,0.822461,-0.083647,0.308725,-0.470378,-4.30706930160522,-4.22421312332153,7.94435834884644,-0.33623069524765,0.49410095810890,0.68706703186035
79,2946982111,0.822429,-0.083759,0.308768,-0.470387,-4.26759862899780,-4.27642297744751,7.93160820007324,0.22058296203613,0.59374725818634,0.55572509765625
80,2946998778,0.822380,-0.083902,0.308838,-0.470402,-4.26954078674316,-4.25265741348267,7.93222808837891,-0.04853606224060,0.67278796434402,0.44235050678253
81,2947015445,0.822365,-0.084017,0.308883,-0.470377,-4.25858211517334,-4.28408002853394,7.87575721740723,0.10052344948053,0.50811117887497,0.85865944623947
82,2947032112,0.822354,-0.083958,0.308849,-0.470430,-4.25811958312988,-4.26438570022583,7.91025638580322,1.51796865463257,0.66087812185287,0.74673187732697
83,2947048779,0.822334,-0.083986,0.308875,-0.470443,-4.28023529052734,-4.23474216461182,7.92269372940063,0.73637151718140,0.71693152189255,0.79969894886017
84,2947065446,0.822316,-0.084062,0.308905,-0.470441,-4.28125762939453,-4.24688720703125,7.91873788833618,0.43671575188637,0.58461630344391,0.76331609487534
85,2947082113,0.822275,-0.084166,0.308979,-0.470444,-4.26539993286133,-4.25952482223511,7.91278266906738,0.12306262552738,0.78484356403351,0.64504939317703
86,2947098780,0.822278,-0.084232,0.309015,-0.470403,-4.26582860946655,-4.28477573394775,7.88127374649048,0.38550311326981,0.56220513582230,1.11426115036011
87,2947115447,0.822256,-0.084217,0.309022,-0.470441,-4.27267122268677,-4.28066539764404,7.89097404479980,1.09091532230377,0.76582616567612,0.73881757259369
88,2947132114,0.822218,-0.084260,0.309058,-0.470476,-4.26622724533081,-4.23559761047363,7.92861413955688,0.64133560657501,0.75723308324814,0.61199629306793
89,2947148781,0.822190,-0.084399,0.309138,-0.470448,-4.26138210296631,-4.31566333770752,7.89828634262085,-0.12472104281187,0.69300919771194,0.73871511220932
90,2947165448,0.822181,-0.084283,0.309082,-0.470520,-4.26552438735962,-4.27476930618286,7.89256000518799,1.95652222633362,0.72922557592392,0.74856317043304
91,2947182115,0.822147,-0.084329,0.309128,-0.470542,-4.28268527984619,-4.20817804336548,7.94351339340210,0.58633238077164,0.80886822938919,0.67326182126999
92,2947198782,0.822119,-0.084480,0.309225,-0.470499,-4.28541851043701,-4.27989339828491,7.89158201217651,-0.30196091532707,0.71752053499222,0.84833741188049
93,2947215449,0.822096,-0.084488,0.309231,-0.470535,-4.25305032730103,-4.28025388717651,7.88895606994629,0.95646136999130,0.68574804067612,0.70142298936844
94,2947232116,0.822069,-0.084535,0.309270,-0.470547,-4.27272844314575,-4.25345849990845,7.90499067306519,0.57828992605209,0.73632025718689,0.74725687503815
95,2947248783,0.822064,-0.084632,0.309326,-0.470501,-4.25280332565308,-4.32067775726318,7.87549734115601,0.13804605603218,0.59529680013657,1.04780924320221
96,2947265450,0.822078,-0.084530,0.309270,-0.470533,-4.27129173278809,-4.30757474899292,7.88112926483154,1.81360328197479,0.62603205442429,1.00593245029449
97,2947282117,0.822058,-0.084513,0.309263,-0.470575,-4.27840089797974,-4.21006774902344,7.94849109649658,1.17610323429108,0.71178340911865,0.67167389392853
98,2947298784,0.822030,-0.084677,0.309357,-0.470532,-4.28231191635132,-4.27793169021606,7.92080068588257,-0.37278008460999,0.64819985628128,0.83818197250366
99,2947315451,0.822002,-0.084669,0.309352,-0.470586,-4.26141643524170,-4.28789520263672,7.90077972412109,1.10424673557281,0.67632257938385,0.63626432418823
100,2947332118,0.821983,-0.084716,0.309382,-0.470592,-4.27350664138794,-4.26325178146362,7.88195037841797,0.60509359836578,0.67500346899033,0.79633086919785
101,2947348785,0.821962,-0.084791,0.309414,-0.470593,-4.25756216049194,-4.29031276702881,7.91473007202148,0.44977819919586,0.61206024885178,0.72827792167664
102,2947365452,0.821936,-0.084767,0.309417,-0.470641,-4.27259540557861,-4.24905967712402,7.89813280105591,1.17064774036407,0.78385746479034,0.68704140186310
103,2947382119,0.821953,-0.084850,0.309470,-0.470562,-4.26812553405762,-4.28737401962280,7.89223194122314,0.19052647054195,0.58505171537399,1.29205191135406
104,2947398786,0.821961,-0.084811,0.309450,-0.470568,-4.26023817062378,-4.32258844375610,7.88739347457886,1.28421437740326,0.61836111545563,1.01657450199127
105,2947415453,0.821964,-0.084687,0.309387,-0.470627,-4.30043888092041,-4.23146820068359,7.94856405258179,1.98365879058838,0.67707818746567,0.89683508872986
106,2947432120,0.821908,-0.084891,0.309508,-0.470608,-4.27117729187012,-4.23239994049072,7.92026376724243,-0.67590630054474,0.71338403224945,0.58689576387405
107,2947448787,0.821882,-0.085014,0.309599,-0.470573,-4.24963855743408,-4.33845376968384,7.88729619979858,-0.11945763230324,0.76241970062256,0.89015024900436
108,2947465454,0.821883,-0.084958,0.309565,-0.470603,-4.24955701828003,-4.32112646102905,7.86500120162964,1.46288836002350,0.61889880895615,0.90497982501984
109,2947482121,0.821868,-0.084930,0.309559,-0.470637,-4.27238273620605,-4.23291063308716,7.91931962966919,1.19999980926514,0.71430623531342,0.80947023630142
110,2947498788,0.821828,-0.085061,0.309664,-0.470615,-4.26717281341553,-4.26405286788940,7.91096878051758,-0.18927784264088,0.84701836109161,0.75382661819458
111,2947515455,0.821796,-0.085139,0.309727,-0.470614,-4.25228309631348,-4.28802537918091,7.89261627197266,0.29803577065468,0.78157794475555,0.76225310564041
112,2947532122,0.821771,-0.085199,0.309762,-0.470625,-4.27938222885132,-4.30763769149780,7.88549375534058,0.53486359119415,0.68568390607834,0.69704324007034
113,2947548789,0.821764,-0.085175,0.309773,-0.470635,-4.27052497863770,-4.28214073181152,7.90251111984253,1.06222903728485,0.75277638435364,0.99316436052322
114,2947565456,0.821755,-0.085236,0.309806,-0.470617,-4.25534534454346,-4.30597114562988,7.91695070266724,0.50768858194351,0.64855831861496,0.87021070718765
115,2947582123,0.821738,-0.085242,0.309812,-0.470642,-4.27888965606689,-4.28564786911011,7.90139198303223,0.95815199613571,0.68305867910385,0.76805442571640
116,2947598790,0.821719,-0.085297,0.309857,-0.470635,-4.26873302459717,-4.26172828674316,7.87218189239502,0.48657089471817,0.72156739234924,0.86241167783737
117,2947615457,0.821685,-0.085398,0.309926,-0.470630,-4.25204467773438,-4.29805946350098,7.88790798187256,0.15308070182800,0.75756603479385,0.69948917627335
118,2947632124,0.821656,-0.085444,0.309978,-0.470639,-4.26200294494629,-4.31332635879517,7.89534139633179,0.53942269086838,0.82505548000336,0.76574933528900
119,2947648791,0.821653,-0.085434,0.309972,-0.470649,-4.28188419342041,-4.31347370147705,7.88241147994995,1.06170392036438,0.62097340822220,0.92911982536316
120,2947665458,0.821630,-0.085412,0.309968,-0.470697,-4.26445865631104,-4.26215410232544,7.90963888168335,1.19852697849274,0.73749840259552,0.67377406358719
121,2947682125,0.821601,-0.085495,0.310034,-0.470689,-4.27516031265259,-4.26868438720703,7.89157772064209,0.25613337755203,0.78321713209152,0.76745247840881
122,2947698792,0.821586,-0.085540,0.310072,-0.470682,-4.27774047851562,-4.31347179412842,7.89320278167725,0.55001354217529,0.69166457653046,0.91717159748077
123,2947715459,0.821570,-0.085504,0.310068,-0.470718,-4.25741147994995,-4.24665260314941,7.90422010421753,1.27188181877136,0.77853012084961,0.77025717496872
124,2947732126,0.821569,-0.085633,0.310153,-0.470642,-4.27179241180420,-4.32364177703857,7.89864969253540,-0.21772076189518,0.62242060899734,1.19690060615540
125,2947748793,0.821577,-0.085565,0.310145,-0.470645,-4.24134111404419,-4.29197406768799,7.89979362487793,1.42289400100708,0.80017262697220,1.06873452663422
126,2947765460,0.821565,-0.085549,0.310183,-0.470643,-4.28237533569336,-4.26427125930786,7.88503789901733,0.90747720003128,0.88620585203171,1.03414475917816
127,2947782127,0.821536,-0.085709,0.310279,-0.470602,-4.28020715713501,-4.33048963546753,7.88892030715942,-0.37664753198624,0.65256673097610,0.86727797985077
128,2947798794,0.821509,-0.085698,0.310286,-0.470646,-4.29575490951538,-4.34408473968506,7.89561033248901,1.08453762531281,0.77310013771057,0.66519385576248
129,2947815461,0.821463,-0.085724,0.310291,-0.470718,-4.29672384262085,-4.27444267272949,7.93669223785400,0.92952972650528,0.69445633888245,0.36716446280479
130,2947832128,0.821397,-0.085896,0.310394,-0.470734,-4.25977134704590,-4.26977872848511,7.88825225830078,-0.33890721201897,0.79583132266998,0.35971114039421
131,2947848795,0.821369,-0.085988,0.310483,-0.470708,-4.23918437957764,-4.35311365127563,7.85908985137939,0.07767691463232,0.85305023193359,0.90926998853683
132,2947865462,0.821357,-0.085916,0.310459,-0.470757,-4.25798034667969,-4.30107164382935,7.86900949478149,1.54634737968445,0.76312392950058,0.80489820241928
133,2947882129,0.821355,-0.085952,0.310484,-0.470739,-4.27660560607910,-4.28229522705078,7.89386796951294,0.64568972587585,0.62808096408844,1.00476706027985
134,2947898796,0.821322,-0.086093,0.310562,-0.470719,-4.26419305801392,-4.32722043991089,7.89712953567505,-0.14458368718624,0.65190076828003,0.72957128286362
135,2947915463,0.821310,-0.086062,0.310549,-0.470754,-4.27798032760620,-4.30976867675781,7.87873840332031,1.21330559253693,0.65402668714523,0.85695612430573
136,2947932130,0.821290,-0.086154,0.310591,-0.470745,-4.27785873413086,-4.30293703079224,7.91079854965210,0.28868710994720,0.60278844833374,0.77336901426315
137,2947948797,0.821286,-0.086211,0.310625,-0.470718,-4.28146362304688,-4.32567358016968,7.86215019226074,0.47290650010109,0.60264760255814,1.02925264835358
138,2947965464,0.821280,-0.086188,0.310617,-0.470738,-4.26007795333862,-4.32246112823486,7.86363077163696,1.15269303321838,0.65925168991089,0.89185345172882
139,2947982131,0.821265,-0.086215,0.310637,-0.470747,-4.26630210876465,-4.31446504592896,7.89420413970947,0.76028096675873,0.67198121547699,0.84306126832962
140,2947998798,0.821261,-0.086258,0.310636,-0.470746,-4.29157733917236,-4.31604576110840,7.88485383987427,0.72081178426743,0.47521159052849,0.87040269374847
141,2948015465,0.821252,-0.086244,0.310622,-0.470774,-4.25105428695679,-4.29555559158325,7.87694597244263,1.14167964458466,0.60632306337357,0.82228928804398
142,2948032132,0.821247,-0.086273,0.310661,-0.470751,-4.25507831573486,-4.29623365402222,7.86292934417725,0.61757975816727,0.72902059555054,1.05723452568054
143,2948048799,0.821265,-0.086253,0.310666,-0.470720,-4.26922750473022,-4.32403945922852,7.86755609512329,1.03153240680695,0.67755192518234,1.21634078025818
144,2948065466,0.821274,-0.086200,0.310650,-0.470724,-4.28192424774170,-4.32782745361328,7.87849950790405,1.32591176033020,0.66748613119125,1.09551274776459
145,2948082133,0.821257,-0.086185,0.310629,-0.470770,-4.25944852828979,-4.27229356765747,7.89149618148804,1.20225369930267,0.60488873720169,0.69125473499298
146,2948098800,0.821228,-0.086355,0.310717,-0.470732,-4.28628253936768,-4.33061647415161,7.87663221359253,-0.38740485906601,0.58913689851761,0.80319499969482
147,2948115467,0.821210,-0.086323,0.310696,-0.470784,-4.25691986083984,-4.32689952850342,7.86926937103271,1.32082760334015,0.67236530780792,0.66616702079773
148,2948132134,0.821196,-0.086358,0.310719,-0.470786,-4.28096342086792,-4.31520414352417,7.87733173370361,0.66789591312408,0.62878537178040,0.91408526897430
149,2948148801,0.821182,-0.086339,0.310730,-0.470807,-4.27193546295166,-4.30935144424438,7.86375856399536,1.07777595520020,0.78686696290970,0.84487980604172
150,2948165468,0.821166,-0.086317,0.310750,-0.470825,-4.27859687805176,-4.28542280197144,7.88251113891602,1.02833068370819,0.81133985519409,0.92712211608887
151,2948182135,0.821157,-0.086356,0.310794,-0.470806,-4.26906728744507,-4.30468273162842,7.86105823516846,0.54015266895294,0.72890543937683,1.03260803222656
152,2948198802,0.821147,-0.086353,0.310816,-0.470809,-4.24359703063965,-4.32800769805908,7.87118482589722,0.92545723915100,0.77438068389893,0.92649459838867
153,2948215469,0.821148,-0.086273,0.310798,-0.470833,-4.28322553634644,-4.29487943649292,7.87953662872314,1.52170777320862,0.77942633628845,1.01781654357910
154,2948232136,0.821120,-0.086385,0.310860,-0.470820,-4.28576707839966,-4.31577301025391,7.87932968139648,0.09021432697773,0.65432125329971,0.74839663505554
155,2948248803,0.821113,-0.086400,0.310875,-0.470821,-4.27603435516357,-4.34746694564819,7.88085889816284,0.86344897747040,0.69379037618637,0.86403799057007
156,2948265470,0.821090,-0.086377,0.310872,-0.470867,-4.27779626846313,-4.31882143020630,7.87544441223145,1.17167210578918,0.72382122278214,0.73284971714020
157,2948282137,0.821061,-0.086448,0.310905,-0.470883,-4.25509357452393,-4.28884220123291,7.87875890731812,0.49183428287506,0.65517926216125,0.62924647331238
158,2948298804,0.821034,-0.086474,0.310933,-0.470907,-4.25834655761719,-4.30716419219971,7.86527395248413,0.75915408134460,0.75513285398483,0.72306579351425
159,2948315471,0.821031,-0.086485,0.310938,-0.470906,-4.25982618331909,-4.33507204055786,7.85090494155884,0.87879085540771,0.60847449302673,0.95556503534317
160,2948332138,0.821029,-0.086408,0.310913,-0.470941,-4.27082967758179,-4.29674243927002,7.86770153045654,1.53478336334229,0.72109353542328,0.96823042631149
161,2948348805,0.821021,-0.086424,0.310935,-0.470937,-4.28459024429321,-4.29156064987183,7.89409494400024,0.80607652664185,0.71725165843964,0.91895169019699
162,2948365472,0.821002,-0.086493,0.310971,-0.470933,-4.27178573608398,-4.33288478851318,7.87193202972412,0.44614118337631,0.62594228982925,0.80617880821228
163,2948382139,0.820991,-0.086512,0.310981,-0.470942,-4.27565670013428,-4.32815265655518,7.85799026489258,0.84290754795074,0.64259058237076,0.84864473342896
164,2948398806,0.820992,-0.086554,0.311006,-0.470917,-4.25883674621582,-4.35511636734009,7.87083148956299,0.59579622745514,0.60242986679077,1.04172611236572
165,2948415473,0.820991,-0.086439,0.310942,-0.470982,-4.27893018722534,-4.30038261413574,7.86476945877075,1.96424436569214,0.66536039113998,0.81484889984131
166,2948432140,0.820959,-0.086517,0.311001,-0.470984,-4.28383350372314,-4.28064203262329,7.89216566085815,0.32358446717262,0.77042365074158,0.71682912111282
167,2948448807,0.820930,-0.086611,0.311060,-0.470978,-4.25389051437378,-4.34458971023560,7.87711286544800,0.23160926997662,0.71089971065521,0.72336024045944
168,2948465474,0.820915,-0.086627,0.311080,-0.470988,-4.28004121780396,-4.35343122482300,7.87097787857056,0.83133053779602,0.71404999494553,0.83718299865723
169,2948482141,0.820895,-0.086634,0.311071,-0.471028,-4.27442407608032,-4.32370233535767,7.86906051635742,1.02526998519897,0.60643833875656,0.66433578729630
170,2948498808,0.820862,-0.086666,0.311078,-0.471075,-4.28767108917236,-4.30089998245239,7.89907741546631,0.84067928791046,0.64009338617325,0.55084598064423
171,2948515475,0.820818,-0.086780,0.311140,-0.471089,-4.27141714096069,-4.31597328186035,7.88306856155396,0.13046470284462,0.69756829738617,0.53901284933090
172,2948532142,0.820788,-0.086837,0.311171,-0.471111,-4.24130344390869,-4.33867740631104,7.85232067108154,0.57099026441574,0.68111211061478,0.65886741876602
173,2948548809,0.820776,-0.086871,0.311187,-0.471116,-4.24460697174072,-4.33956670761108,7.84561634063721,0.72120869159698,0.61568444967270,0.85726338624954
174,2948565476,0.820755,-0.086849,0.311201,-0.471147,-4.26136207580566,-4.32079410552979,7.88633728027344,1.10854959487915,0.83227825164795,0.76743972301483
175,2948582143,0.820724,-0.086916,0.311257,-0.471151,-4.28025913238525,-4.33001518249512,7.86674976348877,0.38951152563095,0.77359950542450,0.75837272405624
176,2948598810,0.820683,-0.086966,0.311291,-0.471191,-4.26823425292969,-4.33469104766846,7.86453723907471,0.61545401811600,0.72975069284439,0.56819856166840
177,2948615477,0.820639,-0.087076,0.311354,-0.471206,-4.26315402984619,-4.32611513137817,7.87004995346069,0.14085064828396,0.70888918638229,0.56785273551941
178,2948632144,0.820593,-0.087138,0.311417,-0.471232,-4.26735210418701,-4.33420324325562,7.86186981201172,0.42675244808197,0.87386053800583,0.59720498323441
179,2948648811,0.820567,-0.087136,0.311426,-0.471272,-4.27177047729492,-4.33744096755981,7.86904621124268,0.99289554357529,0.71105343103409,0.73997008800507
180,2948665478,0.820537,-0.087192,0.311471,-0.471285,-4.26436567306519,-4.34773111343384,7.86268901824951,0.50279647111893,0.75390338897705,0.72336018085480
181,2948682145,0.820520,-0.087215,0.311496,-0.471294,-4.28600025177002,-4.33568000793457,7.86862850189209,0.77890145778656,0.73671728372574,0.80935490131378
182,2948698812,0.820507,-0.087183,0.311487,-0.471328,-4.26735496520996,-4.30365133285522,7.88259267807007,1.23871326446533,0.70449644327164,0.80940610170364
183,2948715479,0.820488,-0.087322,0.311570,-0.471281,-4.27419328689575,-4.34077453613281,7.87078285217285,-0.20308311283588,0.63807004690170,0.94739454984665
184,2948732146,0.820499,-0.087266,0.311565,-0.471275,-4.24003791809082,-4.35534429550171,7.85803127288818,1.28532850742340,0.72912305593491,1.16809904575348
185,2948748813,0.820495,-0.087208,0.311575,-0.471286,-4.26723289489746,-4.29923152923584,7.86914396286011,1.28913187980652,0.87963610887527,1.02074921131134
186,2948765480,0.820454,-0.087375,0.311687,-0.471253,-4.28422641754150,-4.36084794998169,7.85988569259644,-0.43991094827652,0.75975596904755,0.75318628549576
187,2948782147,0.820426,-0.087396,0.311702,-0.471287,-4.29456615447998,-4.39463233947754,7.83431005477905,0.84683901071548,0.70728826522827,0.66963756084442
188,2948798814,0.820393,-0.087336,0.311680,-0.471370,-4.29297494888306,-4.31585979461670,7.88389635086060,1.53903508186340,0.80010873079300,0.51680672168732
189,2948815481,0.820353,-0.087421,0.311767,-0.471367,-4.26673364639282,-4.32424020767212,7.86344480514526,0.19495747983456,0.93193739652634,0.68667006492615
190,2948832148,0.820322,-0.087417,0.311796,-0.471402,-4.24756860733032,-4.35636186599731,7.85620355606079,0.94487172365189,0.87794572114944,0.71115583181381
191,2948848815,0.820305,-0.087393,0.311817,-0.471423,-4.26495456695557,-4.32172060012817,7.87219762802124,1.05907881259918,0.84904181957245,0.88652592897415
192,2948865482,0.820280,-0.087445,0.311882,-0.471413,-4.26840543746948,-4.34550857543945,7.88529062271118,0.41622558236122,0.83871978521347,0.90439081192017
193,2948882149,0.820264,-0.087437,0.311904,-0.471428,-4.26152133941650,-4.35370111465454,7.87243747711182,0.94286108016968,0.79181027412415,0.90423715114594
194,2948898816,0.820261,-0.087470,0.311931,-0.471409,-4.26231384277344,-4.35697460174561,7.85115337371826,0.65611410140991,0.65210580825806,1.01341128349304
195,2948915483,0.820266,-0.087426,0.311920,-0.471415,-4.28896093368530,-4.32583713531494,7.87470722198486,1.26121413707733,0.68432658910751,1.04522228240967
196,2948932150,0.820261,-0.087468,0.311929,-0.471411,-4.28651094436646,-4.34164810180664,7.88227224349976,0.69183099269867,0.53418475389481,0.89536237716675
197,2948948817,0.820239,-0.087523,0.311954,-0.471423,-4.26757621765137,-4.36448526382446,7.85015487670898,0.57736784219742,0.62680035829544,0.74875527620316
198,2948965484,0.820217,-0.087549,0.311970,-0.471446,-4.26357030868530,-4.36318969726562,7.86440038681030,0.81322252750397,0.68059992790222,0.71790480613708
199,2948982151,0.820205,-0.087588,0.311954,-0.471469,-4.27724409103394,-4.33585691452026,7.84806156158447,0.82715570926666,0.42381972074509,0.74250572919846
200,2948998818,0.820197,-0.087618,0.311947,-0.471483,-4.27729558944702,-4.33381080627441,7.83809328079224,0.84137070178986,0.49538168311119,0.80779254436493
201,2949015485,0.820201,-0.087618,0.311953,-0.471471,-4.25507640838623,-4.32534980773926,7.84521245956421,0.90392976999283,0.61504411697388,1.09174764156342
202,2949032152,0.820202,-0.087659,0.311994,-0.471435,-4.26416683197021,-4.38005733489990,7.84096002578735,0.51900935173035,0.67167389392853,1.14438188076019
203,2949048819,0.820218,-0.087571,0.311966,-0.471442,-4.27654504776001,-4.36547183990479,7.84945869445801,1.56349515914917,0.70091074705124,1.17536032199860
204,2949065486,0.820213,-0.087562,0.311967,-0.471452,-4.28733301162720,-4.32445144653320,7.86806869506836,1.01382112503052,0.63652044534683,0.96522098779678
205,2949082153,0.820195,-0.087618,0.311995,-0.471453,-4.27649545669556,-4.36275386810303,7.84476137161255,0.54682469367981,0.62886220216751,0.80859929323196
206,2949098820,0.820199,-0.087562,0.311971,-0.471474,-4.28155040740967,-4.35232782363892,7.84600400924683,1.40674543380737,0.65651100873947,0.98166412115097
207,2949115487,0.820198,-0.087526,0.311964,-0.471487,-4.27104377746582,-4.33664178848267,7.87626504898071,1.21621274948120,0.69546806812286,0.98309868574142
208,2949132154,0.820195,-0.087515,0.311970,-0.471489,-4.26694345474243,-4.34550046920776,7.85723972320557,1.00657272338867,0.68262326717377,0.98838764429092
209,2949148821,0.820180,-0.087509,0.311970,-0.471517,-4.26251697540283,-4.33395195007324,7.84741353988647,1.05473744869232,0.68617063760757,0.77297216653824
210,2949165488,0.820187,-0.087491,0.311975,-0.471506,-4.25921201705933,-4.35524129867554,7.83635473251343,1.03153216838837,0.67865329980850,1.09946990013123
211,2949182155,0.820193,-0.087462,0.311989,-0.471490,-4.27528047561646,-4.36453151702881,7.85650205612183,1.04973018169403,0.76153606176376,1.16762542724609
212,2949198822,0.820200,-0.087388,0.311976,-0.471500,-4.27332830429077,-4.36152410507202,7.87260007858276,1.44252634048462,0.75715625286102,1.10828065872192
213,2949215489,0.820199,-0.087344,0.311964,-0.471517,-4.28572130203247,-4.34132528305054,7.87118005752563,1.29323005676270,0.70477825403214,0.95816475152969
214,2949232156,0.820185,-0.087366,0.311981,-0.471528,-4.28196287155151,-4.35428047180176,7.85786104202271,0.77048766613007,0.63730156421661,0.89390248060226
215,2949248823,0.820179,-0.087338,0.311975,-0.471548,-4.27609491348267,-4.36747646331787,7.85122203826904,1.16006958484650,0.66948395967484,0.94005644321442
216,2949265490,0.820171,-0.087307,0.311950,-0.471583,-4.27190494537354,-4.34543085098267,7.87879896163940,1.23940491676331,0.56175690889359,0.89858961105347
217,2949282157,0.820166,-0.087312,0.311945,-0.471595,-4.28845024108887,-4.33389186859131,7.88349580764771,0.96589964628220,0.56741738319397,0.91008961200714
218,2949298824,0.820185,-0.087290,0.311913,-0.471587,-4.26001930236816,-4.34563541412354,7.84125947952271,1.17944562435150,0.45269811153412,1.11853861808777
219,2949315491,0.820210,-0.087204,0.311861,-0.471594,-4.27596521377563,-4.31541538238525,7.85198688507080,1.64185738563538,0.53332686424255,1.19570970535278
220,2949332158,0.820220,-0.087246,0.311895,-0.471546,-4.27068042755127,-4.33558559417725,7.85260677337646,0.49735373258591,0.59386235475540,1.24355411529541
221,2949348825,0.820260,-0.087186,0.311861,-0.471509,-4.28964757919312,-4.38985252380371,7.85843324661255,1.35851669311523,0.50502479076385,1.42655694484711
222,2949365492,0.820291,-0.087052,0.311772,-0.471540,-4.29460000991821,-4.32824897766113,7.87999582290649,2.08284378051758,0.49179583787918,1.15755951404572
223,2949382159,0.820292,-0.087087,0.311780,-0.471526,-4.28399944305420,-4.32101631164551,7.88433218002319,0.69478935003281,0.51105666160583,1.02021145820618
224,2949398826,0.820314,-0.087066,0.311741,-0.471518,-4.27769947052002,-4.35336256027222,7.84435606002808,1.20535290241241,0.40316313505173,1.12617123126984
225,2949415493,0.820324,-0.087036,0.311694,-0.471536,-4.25785779953003,-4.32581281661987,7.84497594833374,1.33669471740723,0.44009658694267,0.93394780158997
226,2949432160,0.820349,-0.087053,0.311664,-0.471509,-4.25840663909912,-4.32895755767822,7.86623907089233,0.91522496938705,0.30432370305061,1.17113435268402
227,2949448827,0.820357,-0.087017,0.311639,-0.471519,-4.24868059158325,-4.33767986297607,7.84878540039062,1.25575876235962,0.55868345499039,1.04406988620758
228,2949465494,0.820356,-0.087058,0.311672,-0.471492,-4.27823829650879,-4.36100482940674,7.86144065856934,0.56648248434067,0.64552325010300,1.06691622734070
229,2949482161,0.820320,-0.087053,0.311702,-0.471535,-4.30003976821899,-4.35058259963989,7.86434984207153,0.95797258615494,0.88785779476166,0.66191530227661
230,2949498828,0.820258,-0.087122,0.311765,-0.471588,-4.29296541213989,-4.32654190063477,7.89617204666138,0.45016241073608,0.91065311431885,0.36981534957886
231,2949515495,0.820183,-0.087280,0.311872,-0.471620,-4.29722881317139,-4.33333969116211,7.87028837203979,-0.25086355209351,0.87829142808914,0.27591919898987
232,2949532162,0.820116,-0.087359,0.311953,-0.471667,-4.27391910552979,-4.36759710311890,7.84864568710327,0.32359725236893,0.99477797746658,0.36037707328796
233,2949548829,0.820069,-0.087348,0.311973,-0.471737,-4.25524425506592,-4.36052465438843,7.84683227539062,1.08650994300842,0.89905047416687,0.47491702437401
234,2949565496,0.820015,-0.087371,0.312022,-0.471796,-4.24058055877686,-4.34326457977295,7.83758687973022,0.77023148536682,0.96698832511902,0.43958434462547
235,2949582163,0.819971,-0.087351,0.312053,-0.471854,-4.26731777191162,-4.34227752685547,7.85194683074951,1.07775044441223,0.97748953104019,0.57273197174072
236,2949598830,0.819920,-0.087331,0.312091,-0.471922,-4.28294324874878,-4.32374382019043,7.86541175842285,1.06482875347137,1.04084241390228,0.49607312679291
237,2949615497,0.819847,-0.087427,0.312213,-0.471950,-4.28924989700317,-4.37434768676758,7.84884881973267,0.04851685836911,1.15333342552185,0.45032888650894
238,2949632164,0.819788,-0.087380,0.312246,-0.472039,-4.28280544281006,-4.37896299362183,7.86393833160400,1.26061236858368,1.11833381652832,0.43917459249496
239,2949648831,0.819727,-0.087376,0.312290,-0.472116,-4.28845548629761,-4.35121870040894,7.87228059768677,0.97693872451782,1.05235528945923,0.37507876753807
240,2949665498,0.819676,-0.087319,0.312329,-0.472191,-4.27409982681274,-4.32732200622559,7.86124753952026,1.29235935211182,1.16669058799744,0.53733527660370
241,2949682165,0.819621,-0.087381,0.312424,-0.472211,-4.26150035858154,-4.36588144302368,7.85985136032104,0.31970408558846,1.07427978515625,0.60435080528259
242,2949698832,0.819596,-0.087302,0.312436,-0.472261,-4.26489400863647,-4.34892082214355,7.86036062240601,1.45693349838257,1.00949239730835,0.81279975175858
243,2949715499,0.819568,-0.087208,0.312453,-0.472316,-4.27161502838135,-4.31067180633545,7.86726522445679,1.52579343318939,1.08964741230011,0.81639838218689
244,2949732166,0.819565,-0.087256,0.312530,-0.472261,-4.29250621795654,-4.36361074447632,7.83990526199341,0.31365954875946,0.85661035776138,1.23711264133453
245,2949748833,0.819584,-0.087140,0.312494,-0.472274,-4.26294946670532,-4.36054515838623,7.87422037124634,1.77802729606628,0.74985665082932,1.18779551982880
246,2949765500,0.819591,-0.087116,0.312503,-0.472260,-4.29509067535400,-4.35195016860962,7.85430383682251,1.05352091789246,0.72975069284439,1.12163782119751
247,2949782167,0.819564,-0.087192,0.312537,-0.472272,-4.29765367507935,-4.36187934875488,7.88504791259766,0.44547528028488,0.62344515323639,0.66856187582016
248,2949798834,0.819526,-0.087257,0.312536,-0.472325,-4.29523515701294,-4.37395000457764,7.85377502441406,0.70973426103592,0.52758961915970,0.38992130756378
249,2949815501,0.819497,-0.087320,0.312524,-0.472372,-4.28685188293457,-4.34933090209961,7.86027908325195,0.76599252223969,0.46199545264244,0.40672326087952
250,2949832168,0.819450,-0.087427,0.312554,-0.472414,-4.26692295074463,-4.35938596725464,7.85673809051514,0.32323864102364,0.55179351568222,0.39259782433510
251,2949848835,0.819404,-0.087507,0.312558,-0.472477,-4.28255176544189,-4.37493562698364,7.83885717391968,0.61473685503006,0.52023875713348,0.29219609498978
252,2949865502,0.819344,-0.087634,0.312572,-0.472547,-4.27870702743530,-4.35570240020752,7.86640834808350,0.32800266146660,0.44861280918121,0.11489217728376
253,2949882169,0.819259,-0.087885,0.312630,-0.472611,-4.27834558486938,-4.38035345077515,7.86042118072510,-0.55970150232315,0.33498206734657,-0.14705531299114
254,2949898836,0.819175,-0.088071,0.312624,-0.472725,-4.25271844863892,-4.38067531585693,7.85371971130371,0.14102990925312,0.23723119497299,-0.35926932096481
255,2949915503,0.819092,-0.088235,0.312610,-0.472847,-4.27072095870972,-4.35371541976929,7.83308124542236,0.29838153719902,0.24082981050014,-0.33538547158241
256,2949932170,0.818995,-0.088449,0.312619,-0.472969,-4.25625896453857,-4.35824537277222,7.85582256317139,-0.09247464686632,0.23061032593250,-0.43927058577538
257,2949948837,0.818919,-0.088653,0.312645,-0.473045,-4.25731372833252,-4.39433288574219,7.81724405288696,-0.15170401334763,0.29602515697479,-0.11021143943071
258,2949965504,0.818845,-0.088753,0.312636,-0.473161,-4.24932098388672,-4.36593055725098,7.82577514648438,0.62190836668015,0.44688400626183,-0.10590850561857
259,2949982171,0.818772,-0.088957,0.312687,-0.473216,-4.24721813201904,-4.37389087677002,7.86880397796631,-0.28868073225021,0.41531631350517,0.03704236447811
260,2949998838,0.818727,-0.089134,0.312692,-0.473257,-4.26339006423950,-4.39960050582886,7.86187219619751,0.02587522752583,0.20100204646587,0.20136064291000
261,2950015505,0.818698,-0.089159,0.312599,-0.473363,-4.26523494720459,-4.33211946487427,7.84450387954712,1.33829569816589,0.13212952017784,0.17620897293091
262,2950032172,0.818679,-0.089441,0.312668,-0.473298,-4.23016691207886,-4.38126277923584,7.83888769149780,-0.99605238437653,0.08388800173998,0.71868598461151
263,2950048839,0.818701,-0.089505,0.312602,-0.473292,-4.23030042648315,-4.44456434249878,7.80701065063477,0.80879145860672,-0.03544797748327,0.93120741844177
264,2950065506,0.818737,-0.089501,0.312511,-0.473289,-4.25914192199707,-4.34954929351807,7.84761714935303,1.29857015609741,0.03504457324743,1.05937325954437
265,2950082173,0.818767,-0.089637,0.312495,-0.473222,-4.25500440597534,-4.38039255142212,7.86796474456787,0.15808796882629,0.00231154612266,1.10605239868164
266,2950098840,0.818803,-0.089724,0.312455,-0.473170,-4.25235700607300,-4.42263507843018,7.84401082992554,0.49871116876602,-0.02538218162954,1.20257377624512
267,2950115507,0.818836,-0.089691,0.312366,-0.473177,-4.24980640411377,-4.40334129333496,7.87079811096191,1.46922755241394,0.13585616648197,1.08320581912994
268,2950132174,0.818850,-0.089765,0.312352,-0.473149,-4.24086189270020,-4.38149929046631,7.87179899215698,0.54377681016922,0.25549310445786,1.00111711025238
269,2950148841,0.818856,-0.089842,0.312359,-0.473119,-4.23155212402344,-4.41590642929077,7.83653306961060,0.42543333768845,0.33659565448761,1.06158864498138
270,2950165508,0.818888,-0.089832,0.312319,-0.473092,-4.21891546249390,-4.41128349304199,7.81863594055176,1.11538827419281,0.33514857292175,1.22475457191467
271,2950182175,0.818912,-0.089791,0.312268,-0.473091,-4.22783517837524,-4.38253021240234,7.83844423294067,1.37499868869781,0.40855461359024,1.11267340183258
272,2950198842,0.818926,-0.089813,0.312271,-0.473062,-4.25012969970703,-4.37922286987305,7.85040521621704,0.79357743263245,0.52322256565094,1.11057293415070
273,2950215509,0.818917,-0.089865,0.312279,-0.473062,-4.26646327972412,-4.40275621414185,7.85441541671753,0.64178383350372,0.50047856569290,0.85033518075943
274,2950232176,0.818900,-0.089894,0.312250,-0.473106,-4.26601171493530,-4.42205095291138,7.86423015594482,0.97052270174026,0.41192266345024,0.60974228382111
275,2950248843,0.818875,-0.089990,0.312267,-0.473119,-4.24973344802856,-4.41425180435181,7.86500787734985,0.38654047250748,0.45839685201645,0.62233096361160
276,2950265510,0.818867,-0.090007,0.312238,-0.473149,-4.24377489089966,-4.43427467346191,7.84173917770386,1.03034114837646,0.43065837025642,0.72115761041641
277,2950282177,0.818862,-0.089978,0.312193,-0.473193,-4.23489713668823,-4.37514972686768,7.86101198196411,1.37366676330566,0.50347530841827,0.73195338249207
278,2950298844,0.818854,-0.090048,0.312198,-0.473190,-4.24783229827881,-4.40439844131470,7.83472013473511,0.53825730085373,0.42033639550209,0.82269906997681
279,2950315511,0.818846,-0.090044,0.312178,-0.473218,-4.22293424606323,-4.40654182434082,7.85364437103271,1.12884771823883,0.56618797779083,0.75538891553879
280,2950332178,0.818841,-0.090084,0.312185,-0.473215,-4.24974489212036,-4.40195417404175,7.85659599304199,0.70616137981415,0.52615529298782,0.90462130308151
281,2950348845,0.818848,-0.090078,0.312180,-0.473206,-4.23880910873413,-4.40620565414429,7.85679626464844,0.99262648820877,0.57042688131332,1.07425415515900
282,2950365512,0.818856,-0.090045,0.312147,-0.473221,-4.24409484863281,-4.39387416839600,7.85597467422485,1.29173183441162,0.52101993560791,0.98471236228943
283,2950382179,0.818862,-0.090043,0.312132,-0.473220,-4.22846937179565,-4.38148021697998,7.86593723297119,1.01254057884216,0.50676649808884,1.02001941204071
284,2950398846,0.818857,-0.090105,0.312161,-0.473197,-4.22783946990967,-4.40162420272827,7.83743429183960,0.46459516882896,0.56340897083282,0.98606973886490
285,2950415513,0.818871,-0.090073,0.312133,-0.473199,-4.22350597381592,-4.39810848236084,7.83258104324341,1.24204325675964,0.52173715829849,1.07150089740753
286,2950432180,0.818893,-0.090064,0.312127,-0.473167,-4.21992588043213,-4.40891408920288,7.84524726867676,0.99193495512009,0.54346948862076,1.23839318752289
287,2950448847,0.818911,-0.089998,0.312092,-0.473170,-4.25832891464233,-4.40234279632568,7.85604763031006,1.45615231990814,0.58789467811584,1.14590573310852
288,2950465514,0.818907,-0.090033,0.312114,-0.473156,-4.26319026947021,-4.37646865844727,7.86606740951538,0.66244047880173,0.61505699157715,1.00250029563904
289,2950482181,0.818905,-0.090089,0.312154,-0.473122,-4.23881530761719,-4.41697311401367,7.84808778762817,0.45429882407188,0.64885288476944,1.04577279090881
290,2950498848,0.818901,-0.090102,0.312158,-0.473124,-4.24894332885742,-4.42072105407715,7.82739639282227,0.87903422117233,0.59185183048248,0.93680369853973
291,2950515515,0.818893,-0.090106,0.312172,-0.473128,-4.22802114486694,-4.37597465515137,7.84002256393433,0.89094424247742,0.68684935569763,0.94697201251984
292,2950532182,0.818883,-0.090135,0.312200,-0.473121,-4.22144126892090,-4.38991403579712,7.83407115936279,0.67113596200943,0.67665547132492,0.97070199251175
293,2950548849,0.818885,-0.090136,0.312217,-0.473107,-4.23625373840332,-4.41720151901245,7.83570194244385,0.90510785579681,0.71538180112839,1.02325928211212
294,2950565516,0.818902,-0.090080,0.312216,-0.473089,-4.24980878829956,-4.40552997589111,7.83148431777954,1.26454365253448,0.75300693511963,1.23971235752106
295,2950582183,0.818926,-0.090032,0.312219,-0.473054,-4.23757505416870,-4.40357208251953,7.84934186935425,1.17612886428833,0.71074599027634,1.34642755985260
296,2950598850,0.818936,-0.089963,0.312234,-0.473040,-4.22781753540039,-4.40174531936646,7.84900379180908,1.26561939716339,0.87771517038345,1.27272713184357
297,2950615517,0.818931,-0.089950,0.312256,-0.473037,-4.25019121170044,-4.39923906326294,7.85274124145508,0.96036732196808,0.78626507520676,1.01595985889435
298,2950632184,0.818935,-0.089926,0.312267,-0.473028,-4.24418592453003,-4.37935733795166,7.85904788970947,1.04674613475800,0.73497557640076,1.10288918018341
299,2950648851,0.818914,-0.089951,0.312315,-0.473027,-4.22687864303589,-4.37664270401001,7.84381580352783,0.62540447711945,0.82012504339218,0.94524312019348
300,2950665518,0.818951,-0.089916,0.312324,-0.472963,-4.22145175933838,-4.40430450439453,7.80530691146851,1.04800117015839,0.67774397134781,1.48254621028900
301,2950682185,0.818956,-0.089785,0.312319,-0.472984,-4.22905445098877,-4.38533353805542,7.82965898513794,1.74707412719727,0.99170452356339,1.19006204605103
302,2950698852,0.818938,-0.089840,0.312405,-0.472946,-4.27281522750854,-4.37564277648926,7.85874938964844,0.28803399205208,0.94015890359879,1.06050026416779
303,2950715519,0.818903,-0.089955,0.312474,-0.472940,-4.29358434677124,-4.45615768432617,7.86582517623901,0.05882596597075,0.69726085662842,0.69578820466995
304,2950732186,0.818851,-0.089945,0.312461,-0.473041,-4.28307914733887,-4.39668273925781,7.86495780944824,1.26230275630951,0.75608050823212,0.23044389486313
305,2950748853,0.818789,-0.090074,0.312534,-0.473075,-4.23513412475586,-4.34528493881226,7.85773563385010,0.03494212403893,0.75596517324448,0.34759634733200
306,2950765520,0.818748,-0.090198,0.312622,-0.473064,-4.20268917083740,-4.40505313873291,7.80602788925171,-0.07419998943806,0.77814579010010,0.70554661750793
307,2950782187,0.818760,-0.090184,0.312633,-0.473039,-4.21746778488159,-4.43196630477905,7.78858375549316,0.95560348033905,0.66242766380310,1.21626400947571
308,2950798854,0.818787,-0.090115,0.312605,-0.473025,-4.23623466491699,-4.37680530548096,7.84249687194824,1.42759418487549,0.61606860160828,1.27578759193420
309,2950815521,0.818792,-0.090172,0.312655,-0.472972,-4.25070667266846,-4.38811445236206,7.84796285629272,0.36633205413818,0.65790706872940,1.20572423934937
310,2950832188,0.818816,-0.090164,0.312644,-0.472938,-4.25424289703369,-4.42722082138062,7.83826923370361,0.99721115827560,0.50501197576523,1.24790835380554
311,2950848855,0.818845,-0.090153,0.312614,-0.472911,-4.26527357101440,-4.38970375061035,7.84530830383301,1.09553861618042,0.40464869141579,1.21924793720245
312,2950865522,0.818858,-0.090203,0.312628,-0.472868,-4.26087188720703,-4.40891742706299,7.84280586242676,0.55076909065247,0.47571104764938,1.16178560256958
313,2950882189,0.818881,-0.090193,0.312629,-0.472831,-4.22759532928467,-4.43445873260498,7.83408403396606,0.96043151617050,0.58009570837021,1.26533782482147
314,2950898856,0.818887,-0.090141,0.312608,-0.472844,-4.21474790573120,-4.41086530685425,7.84602212905884,1.36234581470490,0.65893143415451,1.02411735057831
315,2950915523,0.818873,-0.090173,0.312619,-0.472856,-4.25012254714966,-4.40249300003052,7.82474899291992,0.74915230274200,0.58991813659668,0.83256000280380
316,2950932190,0.818854,-0.090173,0.312641,-0.472873,-4.23201370239258,-4.37014007568359,7.81591510772705,0.91055065393448,0.77648091316223,0.84956681728363
317,2950948857,0.818843,-0.090196,0.312709,-0.472843,-4.24274730682373,-4.40962219238281,7.82927846908569,0.54394328594208,0.92622572183609,1.10013592243195
318,2950965524,0.818823,-0.090231,0.312778,-0.472825,-4.24028730392456,-4.44975614547729,7.82838439941406,0.48411208391190,0.90407073497772,1.01083731651306
319,2950982191,0.818818,-0.090111,0.312743,-0.472879,-4.28793191909790,-4.39585208892822,7.86254072189331,1.88241183757782,0.86586940288544,0.86635601520538
320,2950998858,0.818758,-0.090203,0.312817,-0.472918,-4.24848747253418,-4.36902999877930,7.84732198715210,0.24228973686695,0.87013375759125,0.42858368158340
321,2951015525,0.818695,-0.090324,0.312906,-0.472944,-4.22831726074219,-4.41860055923462,7.82735347747803,0.01828106120229,0.87597346305847,0.40495598316193
322,2951032192,0.818653,-0.090330,0.312950,-0.472987,-4.22556638717651,-4.41026926040649,7.83322715759277,0.86250132322311,0.96079003810883,0.60061138868332
323,2951048859,0.818625,-0.090337,0.312985,-0.473011,-4.24848890304565,-4.41367864608765,7.86490249633789,0.84106338024139,0.85677683353424,0.77037233114243
324,2951065526,0.818594,-0.090360,0.313024,-0.473035,-4.25198650360107,-4.40588331222534,7.86528587341309,0.76428937911987,0.86329519748688,0.67488825321198
325,2951082193,0.818576,-0.090378,0.313063,-0.473036,-4.25640392303467,-4.42081022262573,7.83427619934082,0.73201733827591,0.80876582860947,0.89917862415314
326,2951098860,0.818551,-0.090395,0.313093,-0.473056,-4.21828603744507,-4.41206741333008,7.82468652725220,0.79161810874939,0.78474104404449,0.77819705009460
327,2951115527,0.818539,-0.090395,0.313141,-0.473045,-4.23426151275635,-4.40801429748535,7.79718923568726,0.78550940752029,0.89716798067093,1.02847158908844
328,2951132194,0.818532,-0.090427,0.313191,-0.473018,-4.24663400650024,-4.46464157104492,7.82280349731445,0.54846400022507,0.77526444196701,1.09498775005341
329,2951148861,0.818530,-0.090305,0.313147,-0.473075,-4.26278257369995,-4.40609359741211,7.84933853149414,1.92125344276428,0.80801033973694,0.86794400215149
330,2951165528,0.818507,-0.090332,0.313167,-0.473095,-4.24506950378418,-4.36755609512329,7.85536098480225,0.74910104274750,0.66254293918610,0.80451411008835
331,2951182195,0.818480,-0.090427,0.313215,-0.473092,-4.23625516891479,-4.41897439956665,7.83510971069336,0.23867832124233,0.62073016166687,0.75218737125397
332,2951198862,0.818473,-0.090423,0.313200,-0.473115,-4.23116779327393,-4.42753171920776,7.80884599685669,1.09371984004974,0.58026212453842,0.79941713809967
333,2951215529,0.818450,-0.090503,0.313246,-0.473109,-4.24877548217773,-4.42112207412720,7.81883430480957,0.30356815457344,0.62198519706726,0.85210257768631
334,2951232196,0.818436,-0.090485,0.313252,-0.473132,-4.25415277481079,-4.42872858047485,7.84254741668701,1.09410405158997,0.75025361776352,0.84382951259613
335,2951248863,0.818436,-0.090462,0.313230,-0.473152,-4.26053953170776,-4.43331241607666,7.84310960769653,1.20655655860901,0.56979930400848,0.90389132499695
336,2951265530,0.818441,-0.090442,0.313187,-0.473176,-4.24935579299927,-4.40208959579468,7.83673381805420,1.27605664730072,0.43747130036354,0.87917506694794
337,2951282197,0.818430,-0.090473,0.313193,-0.473184,-4.23173046112061,-4.38405990600586,7.84706497192383,0.77594310045242,0.57274478673935,0.84143477678299
338,2951298864,0.818414,-0.090518,0.313231,-0.473178,-4.24325513839722,-4.41313505172729,7.83554792404175,0.54350787401199,0.68065106868744,0.93115609884262
339,2951315531,0.818422,-0.090550,0.313244,-0.473150,-4.24351215362549,-4.44882202148438,7.83025074005127,0.67888379096985,0.53613138198853,1.11380028724670
340,2951332198,0.818434,-0.090515,0.313205,-0.473162,-4.24308109283447,-4.42977428436279,7.84420347213745,1.31865048408508,0.48237037658691,1.01321911811829
341,2951348865,0.818433,-0.090513,0.313198,-0.473169,-4.26170921325684,-4.39569711685181,7.83161401748657,1.01595985889435,0.58647322654724,0.92996513843536
342,2951365532,0.818415,-0.090580,0.313221,-0.473171,-4.25014925003052,-4.41873693466187,7.83740615844727,0.50273245573044,0.56046348810196,0.78573995828629
343,2951382199,0.818393,-0.090622,0.313230,-0.473195,-4.25306034088135,-4.41296911239624,7.84312582015991,0.73357969522476,0.57996755838394,0.69402086734772
344,2951398866,0.818383,-0.090666,0.313232,-0.473203,-4.25006389617920,-4.42938709259033,7.83957719802856,0.74742347002029,0.53527343273163,0.76512181758881
345,2951415533,0.818374,-0.090663,0.313217,-0.473230,-4.25890064239502,-4.41092920303345,7.82514142990112,1.07439506053925,0.56173127889633,0.80809992551804
346,2951432200,0.818362,-0.090680,0.313227,-0.473241,-4.22929430007935,-4.42315673828125,7.82005262374878,0.85751962661743,0.64524155855179,0.84283065795898
347,2951448867,0.818359,-0.090701,0.313231,-0.473239,-4.24231481552124,-4.41979598999023,7.82842922210693,0.83951383829117,0.57852041721344,0.92242205142975
348,2951465534,0.818345,-0.090737,0.313240,-0.473250,-4.24942779541016,-4.41642189025879,7.84333419799805,0.73282420635223,0.57093912363052,0.82164901494980
349,2951482201,0.818348,-0.090753,0.313239,-0.473243,-4.25942564010620,-4.41692113876343,7.84591913223267,0.86777740716934,0.54526233673096,0.98665875196457
350,2951498868,0.818336,-0.090825,0.313264,-0.473233,-4.24974870681763,-4.46598625183105,7.82872295379639,0.45743638277054,0.53967875242233,0.85057848691940
351,2951515535,0.818350,-0.090743,0.313196,-0.473269,-4.24954605102539,-4.42757701873779,7.80471706390381,1.73101496696472,0.48557192087173,0.96422207355499
352,2951532202,0.818344,-0.090739,0.313236,-0.473254,-4.22536039352417,-4.38271474838257,7.83551740646362,0.79131078720093,0.81486159563065,1.13487946987152
353,2951548869,0.818362,-0.090712,0.313270,-0.473205,-4.24050426483154,-4.42675781250000,7.80122041702271,0.89965248107910,0.81373465061188,1.40205848217010
354,2951565536,0.818367,-0.090615,0.313270,-0.473216,-4.23964214324951,-4.42632055282593,7.84805727005005,1.53454017639160,0.92068058252335,1.15675282478333
355,2951582203,0.818343,-0.090665,0.313323,-0.473212,-4.26725578308105,-4.42549800872803,7.85129880905151,0.46745100617409,0.76701712608337,0.89036792516708
356,2951598870,0.818296,-0.090712,0.313360,-0.473259,-4.27256393432617,-4.43483686447144,7.84239244461060,0.65485906600952,0.79210472106934,0.48015484213829
357,2951615537,0.818263,-0.090703,0.313344,-0.473330,-4.27110862731934,-4.43670463562012,7.83213090896606,1.19266176223755,0.66761416196823,0.49379360675812
358,2951632204,0.818248,-0.090709,0.313371,-0.473336,-4.22148370742798,-4.41720628738403,7.81964206695557,0.86576694250107,0.78677737712860,0.87427037954330
359,2951648871,0.818247,-0.090643,0.313389,-0.473338,-4.22508668899536,-4.39221096038818,7.81205272674561,1.30619001388550,0.96073871850967,1.06560993194580
360,2951665538,0.818250,-0.090655,0.313423,-0.473309,-4.24725770950317,-4.41505146026611,7.82651662826538,0.71804565191269,0.73083919286728,1.15937817096710
361,2951682205,0.818246,-0.090606,0.313443,-0.473311,-4.25507211685181,-4.38996076583862,7.83417940139771,1.15369188785553,0.86999297142029,1.11245560646057
362,2951698872,0.818242,-0.090644,0.313502,-0.473272,-4.24854278564453,-4.42480087280273,7.84532499313354,0.47124171257019,0.80017280578613,1.15731620788574
363,2951715539,0.818238,-0.090633,0.313497,-0.473284,-4.26082849502563,-4.45176219940186,7.83064222335815,1.06762063503265,0.63502204418182,0.91276621818542
364,2951732206,0.818231,-0.090633,0.313506,-0.473290,-4.25535440444946,-4.40196847915649,7.86100292205811,0.92808258533478,0.66227400302887,0.95716583728790
365,2951748873,0.818218,-0.090652,0.313514,-0.473304,-4.26057672500610,-4.41009712219238,7.84169721603394,0.83247047662735,0.60925573110580,0.85894119739532
366,2951765540,0.818194,-0.090704,0.313533,-0.473323,-4.23744487762451,-4.41343975067139,7.81013059616089,0.62919509410858,0.60163587331772,0.71262848377228
367,2951782207,0.818164,-0.090747,0.313563,-0.473347,-4.22901391983032,-4.42621803283691,7.82612514495850,0.65552502870560,0.71512573957443,0.67160981893539
368,2951798874,0.818141,-0.090804,0.313586,-0.473361,-4.24219131469727,-4.42876482009888,7.82625865936279,0.58076167106628,0.60547780990601,0.72572946548462
369,2951815541,0.818123,-0.090752,0.313575,-0.473409,-4.24462461471558,-4.39384269714355,7.83638334274292,1.38912415504456,0.79009419679642,0.75284045934677
370,2951832208,0.818101,-0.090858,0.313657,-0.473372,-4.25866651535034,-4.43738079071045,7.81921958923340,0.00908610504121,0.75514566898346,0.93389666080475
371,2951848875,0.818105,-0.090809,0.313641,-0.473386,-4.25672864913940,-4.49059963226318,7.81881713867188,1.30951988697052,0.65861141681671,1.03925454616547
372,2951865542,0.818106,-0.090690,0.313597,-0.473436,-4.27391529083252,-4.39563131332397,7.84735774993896,1.87380611896515,0.76553159952164,0.95927882194519
373,2951882209,0.818084,-0.090773,0.313664,-0.473413,-4.24648714065552,-4.42480754852295,7.81843233108521,0.20396032929420,0.74064886569977,0.92216604948044
374,2951898876,0.818072,-0.090755,0.313643,-0.473451,-4.23694324493408,-4.46344566345215,7.81436681747437,1.19454431533813,0.57894301414490,0.78303784132004
375,2951915543,0.818076,-0.090641,0.313579,-0.473508,-4.23179054260254,-4.40171861648560,7.83421611785889,1.93713343143463,0.65173435211182,0.86992889642715
376,2951932210,0.818074,-0.090646,0.313569,-0.473518,-4.25791501998901,-4.37262439727783,7.83544731140137,0.99553370475769,0.55224180221558,0.89502942562103
377,2951948877,0.818057,-0.090689,0.313618,-0.473506,-4.24299907684326,-4.44991970062256,7.83542633056641,0.48824849724770,0.72645938396454,1.00841677188873
378,2951965544,0.818063,-0.090609,0.313577,-0.473538,-4.24488401412964,-4.41615152359009,7.83767890930176,1.59433281421661,0.62537884712219,1.01012003421783
379,2951982211,0.818064,-0.090613,0.313601,-0.473520,-4.24520587921143,-4.40060329437256,7.82486486434937,0.83366143703461,0.72546052932739,1.07758390903473
380,2951998878,0.818064,-0.090619,0.313628,-0.473502,-4.25987243652344,-4.43982219696045,7.82020616531372,0.80839443206787,0.72890543937683,1.08068299293518
381,2952015545,0.818068,-0.090582,0.313623,-0.473505,-4.25659036636353,-4.43768358230591,7.82453060150146,1.19761800765991,0.70020645856857,1.05035769939423
382,2952032212,0.818050,-0.090588,0.313633,-0.473528,-4.24718379974365,-4.41387605667114,7.84861326217651,0.92808246612549,0.68804031610489,0.79817497730255
383,2952048879,0.818031,-0.090605,0.313655,-0.473543,-4.23180341720581,-4.40597391128540,7.82241535186768,0.82481217384338,0.73127454519272,0.80762600898743
384,2952065546,0.817990,-0.090696,0.313697,-0.473568,-4.26015663146973,-4.42875003814697,7.81921529769897,0.33791473507881,0.65288692712784,0.54140758514404
385,2952082213,0.817983,-0.090722,0.313717,-0.473562,-4.26186418533325,-4.45737695693970,7.81949663162231,0.79056799411774,0.70424038171768,0.84696722030640
386,2952098880,0.817961,-0.090692,0.313711,-0.473611,-4.25278615951538,-4.44374322891235,7.83451843261719,1.24607706069946,0.75433892011642,0.69367516040802
387,2952115547,0.817939,-0.090677,0.313714,-0.473649,-4.26214647293091,-4.41167402267456,7.82601690292358,1.10671854019165,0.74479806423187,0.73190218210220
388,2952132214,0.817899,-0.090724,0.313755,-0.473683,-4.25535774230957,-4.42127561569214,7.82490730285645,0.61303353309631,0.79594665765762,0.58185005187988
389,2952148881,0.817868,-0.090728,0.313761,-0.473730,-4.24460649490356,-4.40390777587891,7.82903003692627,1.00123250484467,0.71794319152832,0.61683708429337
390,2952165548,0.817855,-0.090796,0.313788,-0.473722,-4.24186468124390,-4.43939876556396,7.78389692306519,0.44110828638077,0.53381341695786,0.91432863473892
391,2952182215,0.817861,-0.090753,0.313764,-0.473736,-4.23623657226562,-4.43459749221802,7.82292747497559,1.32125031948090,0.61185532808304,0.99035984277725
392,2952198882,0.817869,-0.090698,0.313746,-0.473746,-4.25265789031982,-4.40347146987915,7.84241867065430,1.33387720584869,0.65209281444550,1.10162115097046
393,2952215549,0.817872,-0.090745,0.313781,-0.473707,-4.27193069458008,-4.43914079666138,7.81125020980835,0.50808554887772,0.62005144357681,1.13007712364197
394,2952232216,0.817879,-0.090709,0.313766,-0.473711,-4.24919271469116,-4.43534564971924,7.81332492828369,1.21386909484863,0.62019234895706,1.06888842582703
395,2952248883,0.817880,-0.090729,0.313780,-0.473697,-4.25080442428589,-4.44314670562744,7.82715272903442,0.77382999658585,0.60738587379456,1.02973914146423
396,2952265550,0.817898,-0.090671,0.313761,-0.473690,-4.24692153930664,-4.45797967910767,7.81957292556763,1.36540663242340,0.66888201236725,1.15863525867462
397,2952282217,0.817914,-0.090593,0.313717,-0.473707,-4.24130868911743,-4.40815544128418,7.83220195770264,1.59405100345612,0.58925217390060,1.07728922367096
398,2952298884,0.817918,-0.090601,0.313732,-0.473689,-4.25837993621826,-4.43358421325684,7.82325220108032,0.85211533308029,0.66849786043167,1.06170403957367
399,2952315551,0.817928,-0.090534,0.313695,-0.473709,-4.25608682632446,-4.41796588897705,7.84311819076538,1.49993717670441,0.59971493482590,1.04104721546173
400,2952332218,0.817938,-0.090457,0.313658,-0.473731,-4.26142358779907,-4.40019226074219,7.84673213958740,1.56024205684662,0.63110321760178,1.05197107791901
401,2952348885,0.817928,-0.090477,0.313698,-0.473717,-4.25639057159424,-4.43415784835815,7.83242130279541,0.69997590780258,0.79355186223984,0.98049908876419
402,2952365552,0.817930,-0.090447,0.313681,-0.473731,-4.27897787094116,-4.43406105041504,7.82996368408203,1.22179615497589,0.62258714437485,0.95588517189026
403,2952382219,0.817934,-0.090381,0.313657,-0.473753,-4.23394870758057,-4.41075277328491,7.82662820816040,1.49612092971802,0.72444880008698,0.95027589797974
404,2952398886,0.817927,-0.090422,0.313704,-0.473726,-4.26536178588867,-4.41093730926514,7.82913541793823,0.52904951572418,0.75222581624985,1.02623033523560
405,2952415553,0.817930,-0.090366,0.313706,-0.473729,-4.23158788681030,-4.39068698883057,7.82302808761597,1.29292249679565,0.81034088134766,1.07973515987396
406,2952432220,0.817901,-0.090450,0.313812,-0.473694,-4.25809383392334,-4.41605901718140,7.84318161010742,0.05548351630569,0.97231572866440,0.95829284191132
407,2952448887,0.817877,-0.090539,0.313889,-0.473667,-4.25633430480957,-4.47860765457153,7.82293558120728,0.13793079555035,0.78436970710754,0.91339361667633
408,2952465554,0.817851,-0.090500,0.313873,-0.473730,-4.27449321746826,-4.44886350631714,7.82986545562744,1.35165250301361,0.74230086803436,0.62277919054031
409,2952482221,0.817817,-0.090539,0.313908,-0.473758,-4.28357934951782,-4.40566968917847,7.84492444992065,0.66220992803574,0.76083171367645,0.66382360458374
410,2952498888,0.817784,-0.090603,0.313943,-0.473779,-4.23551988601685,-4.41843700408936,7.81699895858765,0.51980334520340,0.68887269496918,0.63045018911362
411,2952515555,0.817769,-0.090613,0.313970,-0.473786,-4.21987104415894,-4.43399143218994,7.79799127578735,0.83034449815750,0.76262462139130,0.88678216934204
412,2952532222,0.817768,-0.090546,0.313959,-0.473808,-4.25021123886108,-4.41771888732910,7.79757165908813,1.40169990062714,0.75952541828156,1.02858674526215
413,2952548889,0.817761,-0.090586,0.313998,-0.473786,-4.24696779251099,-4.40979766845703,7.83462047576904,0.55257481336594,0.69425141811371,1.03726959228516
414,2952565556,0.817761,-0.090597,0.314026,-0.473766,-4.26074743270874,-4.45786619186401,7.81960248947144,0.76822096109390,0.71520262956619,1.08953213691711
415,2952582223,0.817758,-0.090550,0.313994,-0.473801,-4.24898815155029,-4.40956735610962,7.83229827880859,1.39527118206024,0.60368502140045,0.87103033065796
416,2952598890,0.817759,-0.090616,0.314034,-0.473759,-4.25443935394287,-4.41645526885986,7.81792879104614,0.38619473576546,0.59422105550766,1.08776497840881
417,2952615557,0.817756,-0.090632,0.314048,-0.473752,-4.24633407592773,-4.45598936080933,7.82304477691650,0.81552755832672,0.64289790391922,0.97435188293457
418,2952632224,0.817754,-0.090625,0.314042,-0.473762,-4.26666975021362,-4.42726135253906,7.81484937667847,1.03898561000824,0.60762929916382,0.93754655122757
419,2952648891,0.817736,-0.090649,0.314054,-0.473780,-4.26864194869995,-4.42235088348389,7.81922578811646,0.80769008398056,0.63927382230759,0.79045277833939
420,2952665558,0.817705,-0.090732,0.314091,-0.473793,-4.27759218215942,-4.42381525039673,7.85377502441406,0.39056164026260,0.62814503908157,0.63915848731995
421,2952682225,0.817672,-0.090766,0.314107,-0.473832,-4.24458646774292,-4.44386339187622,7.82604742050171,0.73512929677963,0.63037335872650,0.68317389488220
422,2952698892,0.817660,-0.090760,0.314116,-0.473848,-4.21903848648071,-4.41949033737183,7.80360221862793,1.00308954715729,0.72234863042831,0.86539554595947
423,2952715559,0.817657,-0.090796,0.314159,-0.473819,-4.23967266082764,-4.46174192428589,7.82636785507202,0.53930747509003,0.70315188169479,1.10931801795959
424,2952732226,0.817668,-0.090703,0.314129,-0.473838,-4.25239610671997,-4.43106412887573,7.81033802032471,1.63856613636017,0.73514211177826,1.08998060226440
425,2952748893,0.817659,-0.090686,0.314140,-0.473848,-4.26259040832520,-4.40538311004639,7.82649183273315,1.01524269580841,0.73288828134537,0.97619605064392
426,2952765560,0.817627,-0.090771,0.314211,-0.473841,-4.23697471618652,-4.44696140289307,7.82094955444336,0.20672652125359,0.77509796619415,0.80835604667664
427,2952782227,0.817618,-0.090750,0.314210,-0.473860,-4.25831937789917,-4.45714282989502,7.81928014755249,1.09324598312378,0.67442721128464,0.93936491012573
428,2952798894,0.817622,-0.090745,0.314215,-0.473852,-4.26065254211426,-4.42935609817505,7.82503604888916,0.95933008193970,0.64275711774826,1.04902577400208
429,2952815561,0.817624,-0.090744,0.314230,-0.473839,-4.25429916381836,-4.44642686843872,7.83405733108521,0.90454435348511,0.68874460458755,1.06266427040100
430,2952832228,0.817641,-0.090703,0.314206,-0.473833,-4.24469184875488,-4.44124650955200,7.82284688949585,1.28096163272858,0.58387356996536,1.12280321121216
431,2952848895,0.817650,-0.090656,0.314221,-0.473817,-4.24803161621094,-4.41450071334839,7.82740783691406,1.14677655696869,0.81268459558487,1.21372818946838
432,2952865562,0.817660,-0.090635,0.314238,-0.473792,-4.26477670669556,-4.42866420745850,7.81721830368042,0.98323965072632,0.74093073606491,1.20546817779541
433,2952882229,0.817647,-0.090641,0.314254,-0.473802,-4.26445150375366,-4.43993616104126,7.82038545608521,0.86373072862625,0.68003642559052,0.93150198459625
434,2952898896,0.817629,-0.090637,0.314271,-0.473823,-4.25079870223999,-4.42882251739502,7.82546854019165,0.94852149486542,0.75439000129700,0.84701836109161
435,2952915563,0.817613,-0.090667,0.314293,-0.473831,-4.24766778945923,-4.43181037902832,7.81464672088623,0.73958593606949,0.68029254674911,0.82730937004089
436,2952932230,0.817588,-0.090695,0.314308,-0.473857,-4.26646327972412,-4.45218467712402,7.81078910827637,0.79022228717804,0.66794723272324,0.71408849954605
437,2952948897,0.817580,-0.090652,0.314296,-0.473887,-4.26134157180786,-4.44997358322144,7.81721448898315,1.32014906406403,0.73305475711823,0.84769719839096
438,2952965564,0.817558,-0.090649,0.314298,-0.473926,-4.24994516372681,-4.41270589828491,7.82297515869141,1.04187989234924,0.69918185472488,0.70404833555222
439,2952982231,0.817531,-0.090690,0.314334,-0.473939,-4.23666048049927,-4.44040966033936,7.81401300430298,0.61971843242645,0.73469382524490,0.76029378175735
440,2952998898,0.817507,-0.090711,0.314358,-0.473961,-4.24233150482178,-4.44493675231934,7.81456422805786,0.80085140466690,0.73708862066269,0.75565785169601
441,2953015565,0.817480,-0.090733,0.314390,-0.473983,-4.25851011276245,-4.42429637908936,7.80792045593262,0.74053353071213,0.76668423414230,0.78387027978897
442,2953032232,0.817450,-0.090775,0.314435,-0.473997,-4.25901699066162,-4.45776748657227,7.80961751937866,0.55689048767090,0.76005041599274,0.80565387010574
443,2953048899,0.817423,-0.090813,0.314474,-0.474010,-4.26638126373291,-4.44874668121338,7.81598949432373,0.62943845987320,0.76033210754395,0.78102725744247
444,2953065566,0.817386,-0.090868,0.314505,-0.474042,-4.27633476257324,-4.44998121261597,7.80093479156494,0.59457957744598,0.70271641016006,0.58972597122192
445,2953082233,0.817339,-0.090882,0.314525,-0.474107,-4.26245594024658,-4.42611360549927,7.82965517044067,0.91758137941360,0.79989105463028,0.46830904483795
446,2953098900,0.817300,-0.090974,0.314583,-0.474119,-4.24860048294067,-4.44781064987183,7.79453659057617,0.25859221816063,0.73036527633667,0.62329137325287
447,2953115567,0.817264,-0.090962,0.314577,-0.474187,-4.24700117111206,-4.44178104400635,7.80118274688721,1.17135202884674,0.72921276092529,0.51510334014893
448,2953132234,0.817238,-0.090995,0.314600,-0.474210,-4.25749683380127,-4.44328689575195,7.79239130020142,0.70988792181015,0.67118716239929,0.76475036144257
449,2953148901,0.817217,-0.090965,0.314604,-0.474249,-4.26230430603027,-4.43665647506714,7.81106805801392,1.17387461662292,0.77863240242004,0.78672605752945
450,2953165568,0.817207,-0.090939,0.314594,-0.474278,-4.25841474533081,-4.43043136596680,7.81739664077759,1.19535112380981,0.67487543821335,0.84375280141830
451,2953182235,0.817197,-0.090965,0.314623,-0.474271,-4.25631952285767,-4.43283367156982,7.82423543930054,0.72119593620300,0.72490978240967,0.90886020660400
452,2953198902,0.817206,-0.090957,0.314619,-0.474260,-4.26066160202026,-4.45780944824219,7.80652427673340,1.00889050960541,0.58635795116425,1.09001886844635
453,2953215569,0.817213,-0.090908,0.314592,-0.474276,-4.26370477676392,-4.46905803680420,7.81241989135742,1.36056566238403,0.60942214727402,1.00356316566467
454,2953232236,0.817224,-0.090897,0.314581,-0.474266,-4.25922727584839,-4.44194650650024,7.82360315322876,1.05655586719513,0.56532990932465,1.08072149753571
455,2953248903,0.817232,-0.090873,0.314550,-0.474277,-4.25297117233276,-4.44184589385986,7.81182336807251,1.20521187782288,0.47258630394936,1.02374589443207
456,2953265570,0.817232,-0.090861,0.314534,-0.474290,-4.25049161911011,-4.42248106002808,7.80522871017456,1.10569381713867,0.56995302438736,0.92465054988861
457,2953282237,0.817226,-0.090937,0.314587,-0.474251,-4.25272560119629,-4.47451591491699,7.81379890441895,0.28907138109207,0.65975117683411,1.03093039989471
458,2953298904,0.817246,-0.090818,0.314516,-0.474286,-4.25899553298950,-4.42898988723755,7.80006504058838,1.93845248222351,0.56192344427109,1.08307778835297
459,2953315571,0.817235,-0.090838,0.314543,-0.474283,-4.24849510192871,-4.39949560165405,7.82733392715454,0.74899858236313,0.71191149950027,0.95297819375992
460,2953332238,0.817247,-0.090887,0.314573,-0.474234,-4.24948787689209,-4.46242904663086,7.78930854797363,0.50457656383514,0.56994014978409,1.17671775817871
461,2953348905,0.817266,-0.090743,0.314539,-0.474251,-4.22544765472412,-4.42383003234863,7.79251575469971,1.93052506446838,0.86138719320297,1.24582099914551
462,2953365572,0.817266,-0.090813,0.314606,-0.474192,-4.26856994628906,-4.44949913024902,7.80093240737915,0.23735927045345,0.73112082481384,1.17959928512573
463,2953382239,0.817269,-0.090776,0.314595,-0.474202,-4.28633499145508,-4.48106098175049,7.83797788619995,1.22869884967804,0.66429740190506,1.01416683197021
464,2953398906,0.817260,-0.090685,0.314540,-0.474272,-4.29102945327759,-4.41038656234741,7.83914232254028,1.80061757564545,0.65799671411514,0.72161859273911
465,2953415573,0.817227,-0.090787,0.314588,-0.474278,-4.26193666458130,-4.40815687179565,7.82045316696167,0.22361806035042,0.61457031965256,0.66119825839996
466,2953432240,0.817213,-0.090855,0.314628,-0.474261,-4.22729015350342,-4.46926879882812,7.81494092941284,0.36830425262451,0.59843432903290,0.96450394392014
467,2953448907,0.817230,-0.090757,0.314579,-0.474285,-4.25123310089111,-4.44382143020630,7.78309631347656,1.75083935260773,0.64232170581818,1.07096314430237
468,2953465574,0.817243,-0.090771,0.314592,-0.474250,-4.25465440750122,-4.41308689117432,7.79136848449707,0.78672611713409,0.59443873167038,1.17509150505066
469,2953482241,0.817255,-0.090796,0.314598,-0.474221,-4.25705623626709,-4.44393444061279,7.81896114349365,0.75636214017868,0.52463132143021,1.12414765357971
470,2953498908,0.817270,-0.090753,0.314559,-0.474229,-4.26647043228149,-4.44213342666626,7.81483316421509,1.32936930656433,0.47504511475563,1.10405457019806
471,2953515575,0.817283,-0.090725,0.314520,-0.474237,-4.28399705886841,-4.42822837829590,7.82090902328491,1.26003587245941,0.44158214330673,1.04239201545715
472,2953532242,0.817283,-0.090798,0.314534,-0.474213,-4.26655721664429,-4.45702028274536,7.81477928161621,0.44174858927727,0.42150178551674,0.99315166473389
473,2953548909,0.817292,-0.090761,0.314503,-0.474227,-4.26474857330322,-4.47010374069214,7.82383584976196,1.29454922676086,0.52861416339874,1.01606225967407
474,2953565576,0.817286,-0.090743,0.314486,-0.474252,-4.24551534652710,-4.40907478332520,7.81260681152344,1.17030191421509,0.59984308481216,0.85511207580566
475,2953582243,0.817273,-0.090795,0.314493,-0.474259,-4.24297809600830,-4.43664360046387,7.78390979766846,0.63667410612106,0.48979803919792,0.82354432344437
476,2953598910,0.817251,-0.090818,0.314494,-0.474292,-4.26738834381104,-4.44021558761597,7.82400655746460,0.89035511016846,0.61217558383942,0.67167389392853
477,2953615577,0.817239,-0.090862,0.314503,-0.474299,-4.25800895690918,-4.45332717895508,7.80438756942749,0.69676148891449,0.54766994714737,0.81346571445465
478,2953632244,0.817238,-0.090866,0.314523,-0.474286,-4.23101806640625,-4.45964241027832,7.82366371154785,0.81427252292633,0.66643607616425,1.11766779422760
479,2953648911,0.817271,-0.090743,0.314462,-0.474294,-4.25516939163208,-4.44521093368530,7.81095981597900,1.89328432083130,0.60053455829620,1.26729714870453
480,2953665578,0.817277,-0.090755,0.314469,-0.474277,-4.26919698715210,-4.42683982849121,7.82993316650391,0.84167808294296,0.58882957696915,1.07865965366364
481,2953682245,0.817264,-0.090772,0.314476,-0.474290,-4.26332521438599,-4.42692089080811,7.81913042068481,0.87396299839020,0.63652050495148,0.81894689798355
482,2953698912,0.817257,-0.090839,0.314509,-0.474267,-4.24805879592896,-4.47751235961914,7.79414272308350,0.42520281672478,0.57250148057938,0.96295422315598
483,2953715579,0.817254,-0.090768,0.314480,-0.474306,-4.26623344421387,-4.43717384338379,7.82095861434937,1.53255498409271,0.69989895820618,0.90619641542435
484,2953732246,0.817254,-0.090755,0.314487,-0.474304,-4.25839662551880,-4.42129039764404,7.82578897476196,1.01353931427002,0.69428992271423,1.01492261886597
485,2953748913,0.817255,-0.090789,0.314503,-0.474285,-4.25166893005371,-4.44582176208496,7.79468441009521,0.67611765861511,0.56894129514694,1.02954733371735
486,2953765580,0.817273,-0.090730,0.314486,-0.474276,-4.24305963516235,-4.44736766815186,7.79024124145508,1.34430170059204,0.66454064846039,1.20645415782928
487,2953782247,0.817298,-0.090658,0.314469,-0.474259,-4.24732828140259,-4.42614698410034,7.81918334960938,1.42140877246857,0.69733774662018,1.27329063415527
488,2953798914,0.817308,-0.090631,0.314468,-0.474247,-4.26113367080688,-4.43963909149170,7.84323501586914,1.09202969074249,0.66274785995483,1.15474224090576
489,2953815581,0.817305,-0.090635,0.314489,-0.474238,-4.26736497879028,-4.45064020156860,7.82680988311768,0.84458523988724,0.70742917060852,1.03122496604919
490,2953832248,0.817302,-0.090618,0.314493,-0.474244,-4.26088571548462,-4.44194602966309,7.79470157623291,1.06896531581879,0.69911783933640,0.96986979246140
491,2953848915,0.817281,-0.090637,0.314518,-0.474259,-4.26042699813843,-4.43382310867310,7.82021331787109,0.76554435491562,0.71009284257889,0.85098832845688
492,2953865582,0.817268,-0.090640,0.314535,-0.474269,-4.26124811172485,-4.44909811019897,7.81851577758789,0.89770585298538,0.72557574510574,0.90743869543076
493,2953882249,0.817263,-0.090619,0.314519,-0.474292,-4.26098966598511,-4.44224166870117,7.82055282592773,1.17638480663300,0.60602843761444,0.87516677379608
494,2953898916,0.817255,-0.090575,0.314511,-0.474320,-4.26318931579590,-4.41305589675903,7.81385660171509,1.28466260433197,0.72968667745590,0.91133189201355
495,2953915583,0.817241,-0.090627,0.314557,-0.474304,-4.26268386840820,-4.41582489013672,7.83763074874878,0.50088840723038,0.74217271804810,0.89812856912613
496,2953932250,0.817238,-0.090619,0.314567,-0.474304,-4.24963998794556,-4.42573451995850,7.80106687545776,0.97993546724319,0.70886343717575,0.97640085220337
497,2953948917,0.817245,-0.090601,0.314569,-0.474293,-4.25409984588623,-4.42906665802002,7.81567811965942,1.04120099544525,0.65927726030350,1.10638535022736
498,2953965584,0.817250,-0.090627,0.314595,-0.474263,-4.25998592376709,-4.44266700744629,7.82239580154419,0.67628413438797,0.64399933815002,1.12444233894348
499,2953982251,0.817264,-0.090575,0.314594,-0.474250,-4.28652954101562,-4.44363307952881,7.80375337600708,1.23589587211609,0.72799611091614,1.21882498264313
500,2953998918,0.817260,-0.090611,0.314621,-0.474232,-4.25915765762329,-4.44370126724243,7.82856559753418,0.62032037973404,0.62185716629028,1.03400397300720
501,2954015585,0.817265,-0.090543,0.314602,-0.474249,-4.27413892745972,-4.44747591018677,7.80903053283691,1.44458806514740,0.72063237428665,1.04533743858337
502,2954032252,0.817247,-0.090594,0.314650,-0.474238,-4.25678062438965,-4.43186473846436,7.83529186248779,0.48763379454613,0.74944680929184,0.89615625143051
503,2954048919,0.817240,-0.090635,0.314686,-0.474218,-4.25983381271362,-4.46262407302856,7.79548597335815,0.56453591585159,0.67785924673080,1.01216900348663
504,2954065586,0.817236,-0.090593,0.314669,-0.474244,-4.24032783508301,-4.45239353179932,7.81316471099854,1.30674076080322,0.67326182126999,0.90691369771957
505,2954082253,0.817234,-0.090579,0.314659,-0.474257,-4.25303268432617,-4.42006158828735,7.82838058471680,1.09826612472534,0.60902518033981,0.92814660072327
506,2954098920,0.817227,-0.090626,0.314681,-0.474246,-4.26246547698975,-4.42868709564209,7.82035541534424,0.60824400186539,0.59026390314102,0.92899185419083
507,2954115587,0.817217,-0.090687,0.314711,-0.474232,-4.26662826538086,-4.44629001617432,7.80825853347778,0.49092498421669,0.59862637519836,0.89733445644379
508,2954132254,0.817211,-0.090678,0.314711,-0.474244,-4.26415014266968,-4.44383239746094,7.82425832748413,1.03796100616455,0.65560185909271,0.91517382860184
509,2954148921,0.817200,-0.090732,0.314728,-0.474242,-4.25701713562012,-4.44659328460693,7.82426404953003,0.59067368507385,0.54562091827393,0.86243718862534
510,2954165588,0.817186,-0.090720,0.314716,-0.474275,-4.26562976837158,-4.43216848373413,7.80522060394287,1.13799142837524,0.63160282373428,0.76266300678253
511,2954182255,0.817171,-0.090803,0.314738,-0.474271,-4.26179599761963,-4.44668960571289,7.78424215316772,0.41266539692879,0.49713608622551,0.78425443172455
512,2954198922,0.817165,-0.090810,0.314729,-0.474287,-4.24803161621094,-4.45453071594238,7.80898761749268,0.96757733821869,0.54623562097549,0.88058382272720
513,2954215589,0.817151,-0.090754,0.314709,-0.474334,-4.24210691452026,-4.38609647750854,7.81893730163574,1.43789052963257,0.73564159870148,0.77212685346603
514,2954232256,0.817139,-0.090945,0.314810,-0.474251,-4.28139257431030,-4.48091173171997,7.80507373809814,-0.63350456953049,0.52077662944794,1.08146429061890
515,2954248923,0.817160,-0.090751,0.314732,-0.474305,-4.23678112030029,-4.43852233886719,7.80724477767944,2.43244457244873,0.78019487857819,1.13053810596466
516,2954265590,0.817160,-0.090785,0.314798,-0.474253,-4.26812028884888,-4.41267251968384,7.80093336105347,0.46318644285202,0.85369044542313,1.20540404319763
517,2954282257,0.817138,-0.090883,0.314860,-0.474231,-4.27361106872559,-4.51170349121094,7.81337118148804,0.14598599076271,0.67108470201492,0.87393730878830
518,2954298924,0.817120,-0.090800,0.314813,-0.474309,-4.28525400161743,-4.43411493301392,7.84221410751343,1.74072217941284,0.70557218790054,0.63197416067123
519,2954315591,0.817087,-0.090900,0.314863,-0.474314,-4.26380443572998,-4.44111824035645,7.82408332824707,0.22949616611004,0.63179486989975,0.66141593456268
520,2954332258,0.817078,-0.090897,0.314859,-0.474333,-4.23579597473145,-4.43035697937012,7.80771255493164,1.05154848098755,0.65311747789383,0.80940616130829
521,2954348925,0.817083,-0.090908,0.314873,-0.474313,-4.24301576614380,-4.42552423477173,7.81053113937378,0.82745015621185,0.64303880929947,1.07620084285736
522,2954365592,0.817103,-0.090904,0.314881,-0.474274,-4.25544881820679,-4.46451711654663,7.77790355682373,0.93487000465393,0.64357674121857,1.18961393833160
523,2954382259,0.817105,-0.090922,0.314886,-0.474264,-4.25789117813110,-4.42997884750366,7.82701015472412,0.82579827308655,0.57214283943176,1.01292467117310
524,2954398926,0.817108,-0.090981,0.314923,-0.474222,-4.24876165390015,-4.46178436279297,7.79482507705688,0.41864597797394,0.58346372842789,1.13008999824524
525,2954415593,0.817113,-0.090955,0.314896,-0.474236,-4.25289058685303,-4.45991277694702,7.80950880050659,1.23423123359680,0.54227852821350,0.96392762660980
526,2954432260,0.817104,-0.090965,0.314902,-0.474246,-4.27218914031982,-4.43299722671509,7.81634140014648,0.89025259017944,0.62185716629028,0.90445494651794
527,2954448927,0.817086,-0.091041,0.314947,-0.474233,-4.26720333099365,-4.49047136306763,7.79964399337769,0.34755790233612,0.64298754930496,0.86310309171677
528,2954465594,0.817075,-0.091024,0.314925,-0.474270,-4.25860452651978,-4.46129941940308,7.80556201934814,1.20509684085846,0.58656281232834,0.75331431627274
529,2954482261,0.817052,-0.091058,0.314939,-0.474293,-4.25206232070923,-4.40682315826416,7.81771898269653,0.76732450723648,0.63905608654022,0.71498495340347
530,2954498928,0.817027,-0.091157,0.314995,-0.474281,-4.26486587524414,-4.46026563644409,7.79258775711060,0.18425133824348,0.65453892946243,0.78362697362900
531,2954515595,0.817022,-0.091119,0.314967,-0.474314,-4.25278663635254,-4.43147039413452,7.78266191482544,1.31332325935364,0.58200377225876,0.88843417167664
532,2954532262,0.817018,-0.091176,0.315017,-0.474277,-4.24881219863892,-4.45995283126831,7.79753351211548,0.40731236338615,0.69564735889435,1.07389569282532
533,2954548929,0.817039,-0.091124,0.315043,-0.474235,-4.27636241912842,-4.48804998397827,7.79441356658936,1.10005903244019,0.86161762475967,1.39429759979248
534,2954565596,0.817046,-0.091044,0.315021,-0.474254,-4.28600120544434,-4.43304634094238,7.82136392593384,1.53651237487793,0.74647569656372,1.05232965946198
535,2954582263,0.817027,-0.091099,0.315061,-0.474247,-4.27876901626587,-4.43062162399292,7.81791830062866,0.49675187468529,0.68786102533340,0.86860984563828
536,2954598930,0.817006,-0.091175,0.315101,-0.474242,-4.25250434875488,-4.47207355499268,7.79608917236328,0.40373936295509,0.64613795280457,0.76991122961044
537,2954615597,0.816998,-0.091131,0.315069,-0.474287,-4.26550674438477,-4.44561100006104,7.79863023757935,1.39232563972473,0.60449177026749,0.80136382579803
538,2954632264,0.816965,-0.091195,0.315110,-0.474303,-4.27030515670776,-4.40604686737061,7.82556200027466,0.49237212538719,0.72018426656723,0.65356558561325
539,2954648931,0.816943,-0.091290,0.315171,-0.474283,-4.26123285293579,-4.46608114242554,7.78437662124634,0.15936863422394,0.66863876581192,0.88003325462341
540,2954665598,0.816949,-0.091248,0.315156,-0.474290,-4.25603389739990,-4.47831916809082,7.80156993865967,1.29147565364838,0.67167395353317,1.01315510272980
541,2954682265,0.816949,-0.091206,0.315169,-0.474289,-4.24810361862183,-4.44749259948730,7.80167388916016,1.14892816543579,0.81363224983215,1.09109473228455
542,2954698932,0.816939,-0.091192,0.315183,-0.474300,-4.27274227142334,-4.46667289733887,7.82619333267212,0.99298506975174,0.73647391796112,0.96684736013412
543,2954715599,0.816928,-0.091172,0.315179,-0.474326,-4.26509523391724,-4.45763206481934,7.81652641296387,1.14175641536713,0.69230484962463,0.83984678983688
544,2954732266,0.816904,-0.091198,0.315206,-0.474345,-4.26655530929565,-4.44184732437134,7.80206918716431,0.75354486703873,0.74151962995529,0.75650310516357
545,2954748933,0.816876,-0.091231,0.315232,-0.474369,-4.24691867828369,-4.45297002792358,7.79892921447754,0.72179788351059,0.71168082952499,0.71591979265213
546,2954765600,0.816861,-0.091257,0.315253,-0.474376,-4.26427650451660,-4.47706699371338,7.79280138015747,0.73980361223221,0.66217148303986,0.88847249746323
547,2954782267,0.816849,-0.091231,0.315244,-0.474407,-4.25369071960449,-4.43793058395386,7.79714679718018,1.19649088382721,0.68828368186951,0.81265896558762
548,2954798934,0.816841,-0.091282,0.315277,-0.474390,-4.25820255279541,-4.43523740768433,7.81314468383789,0.54366153478622,0.65562748908997,0.92873561382294
549,2954815601,0.816834,-0.091319,0.315300,-0.474379,-4.25754165649414,-4.44754409790039,7.78923749923706,0.70397144556046,0.67086702585220,0.87858599424362
550,2954832268,0.816844,-0.091289,0.315282,-0.474380,-4.26359748840332,-4.44568824768066,7.80118083953857,1.20359849929810,0.58720314502716,1.04973030090332
551,2954848935,0.816847,-0.091284,0.315288,-0.474371,-4.25495481491089,-4.44364690780640,7.79252624511719,0.92070609331131,0.61048507690430,1.12716996669769
552,2954865602,0.816859,-0.091245,0.315271,-0.474370,-4.26655149459839,-4.45010995864868,7.78629112243652,1.24336194992065,0.61446785926819,1.09833014011383
553,2954882269,0.816858,-0.091222,0.315258,-0.474385,-4.27210140228271,-4.42693281173706,7.83198690414429,1.12852764129639,0.57969862222672,0.99805641174316
554,2954898936,0.816840,-0.091274,0.315293,-0.474382,-4.25202226638794,-4.46235370635986,7.81391191482544,0.52589917182922,0.65660077333450,0.87967461347580
555,2954915603,0.816833,-0.091320,0.315309,-0.474375,-4.26062870025635,-4.48026752471924,7.80511760711670,0.62980985641479,0.55708265304565,0.91753017902374
556,2954932270,0.816837,-0.091259,0.315270,-0.474404,-4.27129745483398,-4.46307325363159,7.79175233840942,1.49480187892914,0.59279948472977,0.94579368829727
557,2954948937,0.816841,-0.091255,0.315276,-0.474395,-4.25880813598633,-4.45472764968872,7.79781389236450,0.97177785634995,0.66095495223999,1.02685797214508
558,2954965604,0.816836,-0.091233,0.315265,-0.474416,-4.25406122207642,-4.46484756469727,7.81321382522583,1.17584705352783,0.65831685066223,0.86383306980133
559,2954982271,0.816830,-0.091198,0.315248,-0.474444,-4.25782585144043,-4.43521070480347,7.82563781738281,1.28298485279083,0.66602623462677,0.85015588998795
560,2954998938,0.816812,-0.091248,0.315282,-0.474441,-4.25867938995361,-4.44276523590088,7.81334543228149,0.53908967971802,0.65822720527649,0.88187730312347
561,2955015605,0.816813,-0.091239,0.315288,-0.474438,-4.25385713577271,-4.45122003555298,7.79232931137085,0.98861813545227,0.66048109531403,1.03195488452911
562,2955032272,0.816819,-0.091223,0.315278,-0.474438,-4.26737213134766,-4.46322631835938,7.80989742279053,1.08594667911530,0.58938020467758,1.04597783088684
563,2955048939,0.816818,-0.091183,0.315269,-0.474453,-4.27366209030151,-4.45311880111694,7.81504058837891,1.22940337657928,0.68186771869659,1.00311493873596
564,2955065606,0.816815,-0.091193,0.315274,-0.474453,-4.26243066787720,-4.43820285797119,7.82154083251953,0.89937072992325,0.61412209272385,0.94575530290604
565,2955082273,0.816815,-0.091201,0.315282,-0.474446,-4.26795005798340,-4.45259094238281,7.80177974700928,0.88506609201431,0.63221746683121,0.98446899652481
566,2955098940,0.816800,-0.091246,0.315313,-0.474444,-4.26439952850342,-4.46560049057007,7.79483461380005,0.58391189575195,0.66124951839447,0.88926655054092
567,2955115607,0.816807,-0.091210,0.315265,-0.474469,-4.27641153335571,-4.46655559539795,7.78256654739380,1.38441133499146,0.45456787943840,0.90856587886810
568,2955132274,0.816797,-0.091185,0.315244,-0.474506,-4.25730085372925,-4.42212438583374,7.80402612686157,1.23973798751831,0.61017775535583,0.79457634687424
569,2955148941,0.816792,-0.091238,0.315280,-0.474480,-4.25092267990112,-4.46193504333496,7.80775117874146,0.49613720178604,0.63763457536697,1.01036345958710
570,2955165608,0.816798,-0.091246,0.315267,-0.474477,-4.25900030136108,-4.47482156753540,7.78609657287598,0.96851229667664,0.50503766536713,0.97439044713974
571,2955182275,0.816800,-0.091173,0.315222,-0.474518,-4.26615571975708,-4.39705801010132,7.80871677398682,1.60064637660980,0.60556739568710,0.90040802955627
572,2955198942,0.816792,-0.091326,0.315319,-0.474438,-4.28307056427002,-4.47362995147705,7.79934978485107,-0.39820063114166,0.61471116542816,1.15495979785919
573,2955215609,0.816835,-0.091174,0.315244,-0.474443,-4.22702932357788,-4.48266029357910,7.78839683532715,2.10040140151978,0.59831905364990,1.37100291252136
574,2955232276,0.816846,-0.091094,0.315230,-0.474447,-4.25865077972412,-4.41687059402466,7.80645704269409,1.47698831558228,0.76875871419907,1.15604841709137
575,2955248943,0.816825,-0.091211,0.315322,-0.474401,-4.27050781250000,-4.45838594436646,7.80708980560303,-0.10615184158087,0.75843679904938,0.98272728919983
576,2955265610,0.816811,-0.091143,0.315275,-0.474469,-4.28108787536621,-4.47041845321655,7.78884077072144,1.64581406116486,0.64539515972137,0.65606278181076
577,2955282277,0.816777,-0.091185,0.315284,-0.474514,-4.27461147308350,-4.42801094055176,7.82909822463989,0.76907891035080,0.61734932661057,0.54765719175339
578,2955298944,0.816753,-0.091255,0.315342,-0.474503,-4.25239181518555,-4.46921062469482,7.79111003875732,0.33782511949539,0.75211054086685,0.85941499471664
579,2955315611,0.816756,-0.091171,0.315313,-0.474533,-4.23008584976196,-4.45188999176025,7.78942203521729,1.61477184295654,0.74026459455490,0.96564352512360
580,2955332278,0.816757,-0.091154,0.315324,-0.474528,-4.25822687149048,-4.41705560684204,7.80052185058594,1.01270687580109,0.72129839658737,1.05490386486053
581,2955348945,0.816761,-0.091206,0.315362,-0.474485,-4.25943279266357,-4.45094108581543,7.81285047531128,0.45816642045975,0.61910378932953,1.14256334304810
582,2955365612,0.816779,-0.091211,0.315348,-0.474463,-4.25466299057007,-4.48921918869019,7.80566549301147,0.95956057310104,0.47600561380386,1.12290561199188
583,2955382279,0.816790,-0.091174,0.315311,-0.474474,-4.27219009399414,-4.44300651550293,7.81668806076050,1.30574190616608,0.48803079128265,1.03738486766815
584,2955398946,0.816785,-0.091233,0.315346,-0.474449,-4.26576185226440,-4.44198560714722,7.80803966522217,0.46025380492210,0.61008810997009,1.00197517871857
585,2955415613,0.816785,-0.091267,0.315363,-0.474432,-4.26580524444580,-4.48604536056519,7.79460144042969,0.67624568939209,0.57631772756577,1.02243971824646
586,2955432280,0.816796,-0.091249,0.315331,-0.474437,-4.27519273757935,-4.47709798812866,7.79632568359375,1.20724809169769,0.48627623915672,0.97720766067505
587,2955448947,0.816779,-0.091262,0.315334,-0.474462,-4.25704050064087,-4.44348573684692,7.79041671752930,0.91372668743134,0.62280482053757,0.78744328022003
588,2955465614,0.816756,-0.091302,0.315320,-0.474503,-4.28087759017944,-4.45313405990601,7.80240774154663,0.86567717790604,0.48080796003342,0.56945353746414
589,2955482281,0.816728,-0.091402,0.315357,-0.474508,-4.25406360626221,-4.44222736358643,7.78364372253418,0.27604725956917,0.55788940191269,0.65847045183182
590,2955498948,0.816724,-0.091416,0.315387,-0.474492,-4.24437856674194,-4.45963859558105,7.77037048339844,0.74368399381638,0.71709793806076,1.05924522876740
591,2955515615,0.816746,-0.091365,0.315382,-0.474467,-4.24788331985474,-4.48124361038208,7.79447269439697,1.22644484043121,0.68460822105408,1.30603623390198
592,2955532282,0.816767,-0.091267,0.315358,-0.474466,-4.27121686935425,-4.45781087875366,7.82856321334839,1.60936760902405,0.75492793321609,1.23922562599182
593,2955548949,0.816767,-0.091261,0.315359,-0.474467,-4.27794313430786,-4.43707275390625,7.82238769531250,1.00501024723053,0.63839012384415,0.97966653108597
594,2955565616,0.816732,-0.091392,0.315440,-0.474447,-4.25007200241089,-4.46392107009888,7.78630208969116,-0.11165855824947,0.68978196382523,0.76942467689514
595,2955582283,0.816723,-0.091421,0.315467,-0.474439,-4.25894451141357,-4.51114082336426,7.79829931259155,0.69416177272797,0.68244403600693,0.94129878282547
596,2955598950,0.816733,-0.091338,0.315420,-0.474469,-4.25524806976318,-4.45141315460205,7.78692960739136,1.65635395050049,0.62420064210892,0.98395663499832
597,2955615617,0.816731,-0.091335,0.315435,-0.474464,-4.25137233734131,-4.43819236755371,7.80974102020264,0.90828388929367,0.69175410270691,1.04401838779449
598,2955632284,0.816732,-0.091369,0.315481,-0.474423,-4.24714899063110,-4.48631238937378,7.78152084350586,0.53410804271698,0.72448724508286,1.17246627807617
599,2955648951,0.816740,-0.091249,0.315439,-0.474463,-4.26156520843506,-4.43873405456543,7.78894662857056,1.87498402595520,0.77610963582993,1.01086282730103
600,2955665618,0.816732,-0.091360,0.315542,-0.474386,-4.26395368576050,-4.48028469085693,7.80251216888428,-0.17344920337200,0.79196393489838,1.22288477420807
601,2955682285,0.816736,-0.091291,0.315529,-0.474401,-4.26028156280518,-4.50892543792725,7.78936481475830,1.41216242313385,0.73789542913437,1.09201657772064
602,2955698952,0.816733,-0.091232,0.315513,-0.474429,-4.26685142517090,-4.42615747451782,7.82597589492798,1.42088365554810,0.75089389085770,0.90238016843796
603,2955715619,0.816706,-0.091346,0.315591,-0.474400,-4.26677799224854,-4.47290658950806,7.81414794921875,-0.01845394819975,0.70491909980774,0.88026362657547
604,2955732286,0.816702,-0.091284,0.315565,-0.474437,-4.26807785034180,-4.47721767425537,7.81480121612549,1.46876633167267,0.69147229194641,0.88607764244080
605,2955748953,0.816693,-0.091320,0.315576,-0.474439,-4.24662208557129,-4.45682477951050,7.80351018905640,0.72941756248474,0.57795697450638,0.86909651756287
606,2955765620,0.816687,-0.091353,0.315607,-0.474422,-4.25284624099731,-4.47977542877197,7.78426599502563,0.61937272548676,0.66078847646713,1.03757691383362
607,2955782287,0.816703,-0.091261,0.315554,-0.474448,-4.26578330993652,-4.45644140243530,7.80419301986694,1.72744226455688,0.59664154052734,1.04385209083557
608,2955798954,0.816688,-0.091324,0.315607,-0.474424,-4.25968790054321,-4.44686269760132,7.79436731338501,0.35875067114830,0.70415073633194,0.98460990190506
609,2955815621,0.816696,-0.091319,0.315619,-0.474405,-4.27141666412354,-4.48900270462036,7.79275989532471,0.91134470701218,0.65242594480515,1.15002942085266
610,2955832288,0.816706,-0.091253,0.315589,-0.474420,-4.26376104354858,-4.45061540603638,7.79947423934937,1.48262310028076,0.66366982460022,1.02705001831055
611,2955848955,0.816695,-0.091306,0.315629,-0.474403,-4.26061439514160,-4.44974899291992,7.80156612396240,0.49206477403641,0.67447847127914,0.95076268911362
612,2955865622,0.816693,-0.091325,0.315636,-0.474397,-4.26849603652954,-4.48107290267944,7.78653192520142,0.84139633178711,0.60590040683746,0.94435948133469
613,2955882289,0.816680,-0.091301,0.315625,-0.474431,-4.27183818817139,-4.44524908065796,7.79519844055176,1.19441616535187,0.66726839542389,0.80623012781143
614,2955898956,0.816667,-0.091357,0.315670,-0.474413,-4.26089382171631,-4.45776653289795,7.80607414245605,0.45016241073608,0.69115221500397,0.95270913839340
615,2955915623,0.816656,-0.091384,0.315693,-0.474411,-4.24971961975098,-4.46410846710205,7.80321455001831,0.73427134752274,0.67846125364304,0.90339201688766
616,2955932290,0.816652,-0.091353,0.315686,-0.474430,-4.26179981231689,-4.46175193786621,7.80830335617065,1.20482790470123,0.69194626808167,0.92007857561111
617,2955948957,0.816643,-0.091347,0.315687,-0.474445,-4.26036071777344,-4.44388294219971,7.81123208999634,1.01672804355621,0.65592199563980,0.89200705289841
618,2955965624,0.816640,-0.091384,0.315715,-0.474423,-4.24864673614502,-4.46282052993774,7.80188417434692,0.61998736858368,0.64781558513641,1.02503931522369
619,2955982291,0.816644,-0.091358,0.315709,-0.474426,-4.24664354324341,-4.46797561645508,7.78492689132690,1.14993977546692,0.65945649147034,1.00905704498291
620,2955998958,0.816639,-0.091340,0.315688,-0.474454,-4.25764083862305,-4.43836450576782,7.79834747314453,1.18826925754547,0.57674038410187,0.84450840950012
621,2956015625,0.816636,-0.091396,0.315724,-0.474424,-4.26131868362427,-4.47558498382568,7.79290199279785,0.46513307094574,0.62498188018799,1.02876603603363
622,2956032292,0.816630,-0.091387,0.315717,-0.474439,-4.27807426452637,-4.46987628936768,7.79946899414062,1.05633819103241,0.60581082105637,0.91598069667816
623,2956048959,0.816610,-0.091403,0.315729,-0.474464,-4.27557611465454,-4.45317506790161,7.80293273925781,0.87315607070923,0.67601513862610,0.76460945606232
624,2956065626,0.816589,-0.091476,0.315766,-0.474461,-4.26844263076782,-4.47683477401733,7.79272460937500,0.41224282979965,0.62048691511154,0.79286038875580
625,2956082293,0.816576,-0.091461,0.315759,-0.474491,-4.24648427963257,-4.47367572784424,7.78254890441895,1.12839949131012,0.67100787162781,0.79876393079758
626,2956098960,0.816568,-0.091498,0.315784,-0.474480,-4.27165842056274,-4.46923303604126,7.77658224105835,0.62270236015320,0.60583633184433,0.99817162752151
627,2956115627,0.816569,-0.091421,0.315739,-0.474524,-4.24761724472046,-4.43032550811768,7.81319189071655,1.63583827018738,0.63118010759354,0.88769131898880
628,2956132294,0.816567,-0.091513,0.315789,-0.474476,-4.25020074844360,-4.45205497741699,7.79392385482788,0.15998332202435,0.54312372207642,1.11508095264435
629,2956148961,0.816583,-0.091492,0.315786,-0.474455,-4.24149560928345,-4.48660230636597,7.76436328887939,1.03627049922943,0.58952111005783,1.23293769359589
630,2956165628,0.816590,-0.091411,0.315765,-0.474472,-4.28084564208984,-4.44801568984985,7.79761981964111,1.52945601940155,0.75309658050537,1.07192337512970
631,2956182295,0.816570,-0.091502,0.315823,-0.474450,-4.27535343170166,-4.47881507873535,7.79159736633301,0.17690049111843,0.64078480005264,0.92518830299377
632,2956198962,0.816554,-0.091495,0.315811,-0.474488,-4.26762628555298,-4.49426603317261,7.80198144912720,1.11482465267181,0.61837387084961,0.72530686855316
633,2956215629,0.816528,-0.091460,0.315770,-0.474567,-4.28538656234741,-4.43266296386719,7.81113147735596,1.44488286972046,0.59164696931839,0.51561564207077
634,2956232296,0.816483,-0.091586,0.315828,-0.474581,-4.23805618286133,-4.41967010498047,7.80525493621826,0.05047623068094,0.61613261699677,0.54914265871048
635,2956248963,0.816464,-0.091619,0.315862,-0.474585,-4.23638439178467,-4.48753309249878,7.75165367126465,0.60572111606598,0.67137932777405,0.95418190956116
636,2956265630,0.816469,-0.091546,0.315832,-0.474610,-4.24918222427368,-4.46007347106934,7.78350591659546,1.49781143665314,0.65452611446381,1.05389213562012
637,2956282297,0.816486,-0.091551,0.315834,-0.474578,-4.26035213470459,-4.46090698242188,7.81898260116577,0.86937820911407,0.54463481903076,1.21584129333496
638,2956298964,0.816494,-0.091530,0.315827,-0.474573,-4.25735855102539,-4.47877359390259,7.82018423080444,1.08814918994904,0.59848564863205,1.10387527942657
639,2956315631,0.816500,-0.091511,0.315806,-0.474580,-4.26964807510376,-4.46748208999634,7.80531835556030,1.15554893016815,0.54539042711258,0.98718380928040
640,2956332298,0.816503,-0.091540,0.315807,-0.474568,-4.25478839874268,-4.47051858901978,7.78323030471802,0.77773606777191,0.51086455583572,0.99066716432571
641,2956348965,0.816495,-0.091596,0.315824,-0.474561,-4.26653099060059,-4.47467041015625,7.78561162948608,0.56112945079803,0.51706278324127,0.91665929555893
642,2956365632,0.816479,-0.091606,0.315822,-0.474588,-4.26836681365967,-4.45994567871094,7.80158376693726,0.96431171894073,0.61524909734726,0.74633485078812
643,2956382299,0.816463,-0.091654,0.315823,-0.474604,-4.25441789627075,-4.46521425247192,7.80225610733032,0.72444880008698,0.51386123895645,0.72960978746414
644,2956398966,0.816451,-0.091710,0.315837,-0.474605,-4.26533603668213,-4.48440790176392,7.77387905120850,0.59534800052643,0.52627056837082,0.82944804430008
645,2956415633,0.816447,-0.091699,0.315816,-0.474629,-4.26383161544800,-4.45610713958740,7.79678773880005,1.13690304756165,0.54658138751984,0.85319113731384
646,2956432300,0.816446,-0.091711,0.315843,-0.474611,-4.24135208129883,-4.45256328582764,7.77981805801392,0.76864355802536,0.70840245485306,1.07904386520386
647,2956448967,0.816459,-0.091696,0.315857,-0.474582,-4.24541711807251,-4.47094678878784,7.79570388793945,0.93708550930023,0.67684763669968,1.24541127681732
648,2956465634,0.816466,-0.091677,0.315854,-0.474574,-4.27584552764893,-4.48542833328247,7.79826784133911,1.06107652187347,0.62308657169342,1.10118591785431
649,2956482301,0.816459,-0.091685,0.315843,-0.474593,-4.27734088897705,-4.45986413955688,7.79348421096802,0.99926030635834,0.56116789579391,0.81449031829834
650,2956498968,0.816419,-0.091806,0.315902,-0.474598,-4.26908397674561,-4.47018575668335,7.78460693359375,0.07119689881802,0.62559652328491,0.60871779918671
651,2956515635,0.816407,-0.091844,0.315908,-0.474608,-4.25660562515259,-4.50881910324097,7.77606248855591,0.76741415262222,0.56891572475433,0.78097605705261
652,2956532302,0.816390,-0.091871,0.315900,-0.474638,-4.26594161987305,-4.47196531295776,7.79229784011841,0.90234184265137,0.54312372207642,0.67432481050491
653,2956548969,0.816369,-0.091926,0.315910,-0.474657,-4.26270723342896,-4.47727680206299,7.79892206192017,0.67310810089111,0.57301366329193,0.65049213171005
654,2956565636,0.816359,-0.091960,0.315911,-0.474666,-4.25479364395142,-4.46030998229980,7.78897333145142,0.79193830490112,0.53980684280396,0.80361765623093
655,2956582303,0.816353,-0.091987,0.315926,-0.474661,-4.24820947647095,-4.49252986907959,7.76678228378296,0.75511997938156,0.61665779352188,0.94240003824234
656,2956598970,0.816349,-0.091998,0.315929,-0.474664,-4.26306152343750,-4.46188402175903,7.79646348953247,0.89675825834274,0.60076510906219,0.93123292922974
657,2956615637,0.816339,-0.092063,0.315943,-0.474660,-4.26513242721558,-4.48642587661743,7.79141616821289,0.55067944526672,0.50785505771637,0.81036663055420
658,2956632304,0.816338,-0.092089,0.315947,-0.474653,-4.26865100860596,-4.47573757171631,7.80293369293213,0.80474466085434,0.55623745918274,0.94677990674973
659,2956648971,0.816315,-0.092136,0.315965,-0.474672,-4.26300048828125,-4.46482610702515,7.81470727920532,0.65625494718552,0.61595338582993,0.71598368883133
660,2956665638,0.816294,-0.092191,0.315986,-0.474683,-4.26233196258545,-4.49052095413208,7.77774667739868,0.58576881885529,0.58005726337433,0.77745431661606
661,2956682305,0.816285,-0.092212,0.315979,-0.474700,-4.25701808929443,-4.48930263519287,7.77530622482300,0.89470916986465,0.53066307306290,0.81637281179428
662,2956698972,0.816283,-0.092232,0.315985,-0.474694,-4.25920200347900,-4.48189973831177,7.78181552886963,0.81610393524170,0.57553654909134,0.96947276592255
663,2956715639,0.816281,-0.092224,0.315972,-0.474708,-4.26150035858154,-4.46559524536133,7.77840232849121,1.06974637508392,0.55461096763611,0.94126027822495
664,2956732306,0.816287,-0.092218,0.315973,-0.474699,-4.24753761291504,-4.46891403198242,7.78147697448730,0.97851401567459,0.61935991048813,1.06038510799408
665,2956748973,0.816286,-0.092239,0.315990,-0.474685,-4.25870418548584,-4.48702669143677,7.78945636749268,0.75723296403885,0.62890058755875,1.03027713298798
666,2956765640,0.816288,-0.092218,0.315979,-0.474693,-4.26279878616333,-4.48164319992065,7.79338455200195,1.14404881000519,0.62472575902939,0.96395325660706
667,2956782307,0.816296,-0.092192,0.315966,-0.474694,-4.26284980773926,-4.47753095626831,7.78300476074219,1.19113767147064,0.62899023294449,0.99698060750961
668,2956798974,0.816288,-0.092236,0.316002,-0.474675,-4.25478649139404,-4.48936748504639,7.81207418441772,0.54171496629715,0.66680741310120,1.01095235347748
669,2956815641,0.816286,-0.092199,0.315991,-0.474692,-4.26052856445312,-4.48062801361084,7.76066541671753,1.23898243904114,0.67869180440903,0.95894598960876
670,2956832308,0.816285,-0.092169,0.315983,-0.474706,-4.24233341217041,-4.45778036117554,7.81372165679932,1.20992481708527,0.69192075729370,0.92760872840881
671,2956848975,0.816279,-0.092183,0.316000,-0.474701,-4.25702810287476,-4.47502565383911,7.78707361221313,0.79610031843185,0.64164298772812,1.00962054729462
672,2956865642,0.816276,-0.092182,0.316018,-0.474695,-4.26892089843750,-4.48229694366455,7.78428173065186,0.89610505104065,0.71769982576370,1.02022421360016
673,2956882309,0.816272,-0.092182,0.316027,-0.474696,-4.27174568176270,-4.49173736572266,7.79194116592407,0.92470175027847,0.66017371416092,0.99246013164520
674,2956898976,0.816266,-0.092195,0.316036,-0.474697,-4.24899768829346,-4.47463274002075,7.79161787033081,0.88076305389404,0.65024882555008,0.89847433567047
675,2956915643,0.816251,-0.092231,0.316083,-0.474685,-4.24947547912598,-4.50695800781250,7.77367687225342,0.55844008922577,0.75971752405167,0.98261195421219
676,2956932310,0.816255,-0.092160,0.316051,-0.474713,-4.26453351974487,-4.49450397491455,7.79179143905640,1.51889061927795,0.65958458185196,0.98907917737961
677,2956948977,0.816245,-0.092164,0.316054,-0.474728,-4.25354337692261,-4.44100570678711,7.79899978637695,0.95355451107025,0.63696867227554,0.87630653381348
678,2956965644,0.816224,-0.092238,0.316118,-0.474707,-4.25704956054688,-4.47689771652222,7.77953481674194,0.27955624461174,0.75761723518372,0.90294367074966
679,2956982311,0.816217,-0.092196,0.316115,-0.474729,-4.26974630355835,-4.48653364181519,7.79978561401367,1.25267219543457,0.75912839174271,0.92938876152039
680,2956998978,0.816188,-0.092262,0.316156,-0.474739,-4.24996423721313,-4.48210477828979,7.79319286346436,0.44738340377808,0.67529791593552,0.74546396732330
681,2957015645,0.816182,-0.092264,0.316157,-0.474747,-4.26649665832520,-4.50349998474121,7.79687166213989,0.94885450601578,0.60575956106186,0.94240015745163
682,2957032312,0.816169,-0.092211,0.316136,-0.474794,-4.25704240798950,-4.44253826141357,7.81969165802002,1.41737496852875,0.71834015846252,0.79214328527451
683,2957048979,0.816153,-0.092331,0.316218,-0.474744,-4.25947713851929,-4.48604774475098,7.79448318481445,-0.11183785647154,0.66260689496994,1.03522050380707
684,2957065646,0.816173,-0.092234,0.316185,-0.474750,-4.22223854064941,-4.46530771255493,7.78248167037964,1.66593337059021,0.72168266773224,1.15862250328064
685,2957082313,0.816181,-0.092256,0.316238,-0.474698,-4.26592588424683,-4.46155309677124,7.79583311080933,0.54358464479446,0.77559733390808,1.31145346164703
686,2957098980,0.816174,-0.092325,0.316294,-0.474658,-4.28643369674683,-4.53245401382446,7.80360651016235,0.30342724919319,0.68186771869659,1.07311451435089
687,2957115647,0.816163,-0.092289,0.316260,-0.474707,-4.29618406295776,-4.49230670928955,7.82325553894043,1.38633215427399,0.59875452518463,0.70963186025620
688,2957132314,0.816133,-0.092349,0.316274,-0.474738,-4.26322221755981,-4.45567750930786,7.78948783874512,0.62513548135757,0.57859730720520,0.58845812082291
689,2957148981,0.816104,-0.092442,0.316336,-0.474727,-4.22518682479858,-4.51212072372437,7.75034332275391,0.20440855622292,0.71315360069275,0.78009241819382
690,2957165648,0.816108,-0.092366,0.316293,-0.474765,-4.24730062484741,-4.47241258621216,7.77153348922729,1.61720490455627,0.63292175531387,0.91473829746246
691,2957182315,0.816099,-0.092390,0.316314,-0.474762,-4.25201845169067,-4.44744968414307,7.77897548675537,0.73256802558899,0.64593303203583,0.95839518308640
692,2957198982,0.816089,-0.092430,0.316358,-0.474742,-4.25244283676147,-4.49040937423706,7.77435064315796,0.52587348222733,0.70728826522827,1.05207359790802
693,2957215649,0.816081,-0.092439,0.316361,-0.474752,-4.26964759826660,-4.49052000045776,7.79364967346191,0.91781181097031,0.62345790863037,0.87891894578934
694,2957232316,0.816068,-0.092466,0.316369,-0.474764,-4.27874040603638,-4.48455810546875,7.79101753234863,0.80520570278168,0.59694880247116,0.82826995849609
695,2957248983,0.816058,-0.092531,0.316397,-0.474749,-4.26344776153564,-4.48222970962524,7.76424741744995,0.47658196091652,0.57791858911514,0.89638686180115
696,2957265650,0.816049,-0.092571,0.316400,-0.474756,-4.25103902816772,-4.50935506820679,7.78650903701782,0.74511820077896,0.52164745330811,0.81495130062103
697,2957282317,0.816026,-0.092552,0.316377,-0.474813,-4.26546239852905,-4.49889135360718,7.78448963165283,1.23312973976135,0.60860246419907,0.64990293979645
698,2957298984,0.816009,-0.092609,0.316394,-0.474820,-4.24367332458496,-4.49237394332886,7.79183816909790,0.56982505321503,0.53359580039978,0.81542521715164
699,2957315651,0.816001,-0.092667,0.316392,-0.474825,-4.27055120468140,-4.48368358612061,7.78779315948486,0.68394219875336,0.45881944894791,0.74884486198425
700,2957332318,0.815990,-0.092709,0.316401,-0.474828,-4.23939418792725,-4.47317838668823,7.79601860046387,0.70187115669250,0.54674786329269,0.84441864490509
701,2957348985,0.815983,-0.092787,0.316460,-0.474785,-4.24173164367676,-4.50699758529663,7.75548553466797,0.23089206218719,0.67091828584671,1.06937503814697
702,2957365652,0.815983,-0.092770,0.316460,-0.474789,-4.25912618637085,-4.49895191192627,7.79533147811890,1.04873132705688,0.65036416053772,1.03536140918732
703,2957382319,0.815978,-0.092771,0.316450,-0.474806,-4.28650379180908,-4.47447061538696,7.79959058761597,1.02286243438721,0.56745582818985,0.86547237634659
704,2957398986,0.815950,-0.092843,0.316476,-0.474821,-4.25691509246826,-4.47964286804199,7.79157209396362,0.47859248518944,0.57736784219742,0.69704318046570
705,2957415653,0.815924,-0.092895,0.316486,-0.474850,-4.26135587692261,-4.52165555953979,7.77456474304199,0.65448772907257,0.53847497701645,0.68083035945892
706,2957432320,0.815914,-0.092859,0.316455,-0.474894,-4.25376462936401,-4.47853708267212,7.78086090087891,1.36045062541962,0.60460704565048,0.75601649284363
707,2957448987,0.815898,-0.092955,0.316503,-0.474872,-4.25463342666626,-4.49442148208618,7.80000925064087,0.21261741220951,0.58474421501160,0.86917334794998
708,2957465654,0.815893,-0.092934,0.316484,-0.474896,-4.24334049224854,-4.49026775360107,7.78754806518555,1.17232525348663,0.57850766181946,0.90326380729675
709,2957482321,0.815885,-0.092915,0.316491,-0.474909,-4.24997377395630,-4.48674249649048,7.75744295120239,1.06724917888641,0.72651070356369,0.94232332706451
710,2957498988,0.815890,-0.092919,0.316506,-0.474890,-4.25486660003662,-4.49580860137939,7.77021455764771,0.86748296022415,0.67112320661545,1.07780158519745
711,2957515655,0.815891,-0.092886,0.316516,-0.474888,-4.25310039520264,-4.51486349105835,7.78394842147827,1.10734593868256,0.76385402679443,1.08590817451477
712,2957532322,0.815890,-0.092850,0.316505,-0.474903,-4.26340341567993,-4.50358629226685,7.78058290481567,1.21360027790070,0.65830403566360,0.99744188785553
713,2957548989,0.815878,-0.092857,0.316526,-0.474910,-4.25944566726685,-4.50474500656128,7.78527164459229,0.87387335300446,0.74178856611252,0.89646363258362
714,2957565656,0.815863,-0.092853,0.316521,-0.474939,-4.24378347396851,-4.50002908706665,7.77788972854614,1.01797044277191,0.60947334766388,0.84348386526108
715,2957582323,0.815852,-0.092873,0.316535,-0.474944,-4.26101922988892,-4.49255228042603,7.79009342193604,0.83271366357803,0.67043155431747,0.83851492404938
716,2957598990,0.815844,-0.092881,0.316526,-0.474962,-4.25368070602417,-4.50016307830811,7.77294731140137,1.00577867031097,0.58363014459610,0.79799568653107
717,2957615657,0.815830,-0.092888,0.316525,-0.474985,-4.25839281082153,-4.46815061569214,7.78015565872192,0.96946001052856,0.62065339088440,0.79000455141068
718,2957632324,0.815818,-0.092921,0.316551,-0.474982,-4.24588727951050,-4.50070667266846,7.79058647155762,0.68364775180817,0.67268550395966,0.89974212646484
719,2957648991,0.815827,-0.092878,0.316535,-0.474986,-4.25450563430786,-4.51330423355103,7.78600788116455,1.27152323722839,0.64091300964355,1.08253991603851
720,2957665658,0.815842,-0.092810,0.316505,-0.474994,-4.24990844726562,-4.47406291961670,7.78825330734253,1.46629488468170,0.63338279724121,1.12097167968750
721,2957682325,0.815842,-0.092855,0.316533,-0.474966,-4.27883291244507,-4.48161077499390,7.80961704254150,0.55172955989838,0.59424662590027,1.06846570968628
722,2957698992,0.815847,-0.092869,0.316531,-0.474957,-4.25543117523193,-4.51276445388794,7.79206991195679,0.88893347978592,0.54925793409348,0.99324119091034
723,2957715659,0.815850,-0.092881,0.316527,-0.474953,-4.25058174133301,-4.50553560256958,7.79275703430176,0.91449499130249,0.54893779754639,0.96951109170914
724,2957732326,0.815862,-0.092854,0.316512,-0.474945,-4.24974489212036,-4.48815250396729,7.78971529006958,1.18034219741821,0.60660481452942,1.07176983356476
725,2957748993,0.815867,-0.092884,0.316521,-0.474926,-4.25499629974365,-4.49170351028442,7.78617143630981,0.71995377540588,0.52646261453629,1.05733704566956
726,2957765660,0.815880,-0.092864,0.316496,-0.474924,-4.25560474395752,-4.50306892395020,7.75845623016357,1.16347599029541,0.51384842395782,1.06080758571625
727,2957782327,0.815885,-0.092845,0.316466,-0.474939,-4.24638652801514,-4.47084283828735,7.80891752243042,1.20932292938232,0.49994066357613,0.93207812309265
728,2957798994,0.815879,-0.092899,0.316487,-0.474925,-4.25842046737671,-4.50103998184204,7.78788137435913,0.52948498725891,0.52822989225388,0.99211436510086
729,2957815661,0.815891,-0.092907,0.316467,-0.474917,-4.25572681427002,-4.49172687530518,7.77882862091064,0.98346996307373,0.44096747040749,1.02524423599243
730,2957832328,0.815903,-0.092933,0.316455,-0.474898,-4.25662374496460,-4.49466085433960,7.77161359786987,0.82209724187851,0.41944000124931,1.06653201580048
731,2957848995,0.815911,-0.092955,0.316438,-0.474891,-4.26996278762817,-4.49993133544922,7.79597091674805,0.88496357202530,0.41791599988937,0.99020618200302
732,2957865662,0.815918,-0.093029,0.316442,-0.474863,-4.25439071655273,-4.50640344619751,7.78848600387573,0.47492983937263,0.35164317488670,1.00814783573151
733,2957882329,0.815927,-0.093052,0.316389,-0.474878,-4.24333763122559,-4.50455474853516,7.76511859893799,1.03167319297791,0.21245095133781,0.87056928873062
734,2957898996,0.815933,-0.093116,0.316373,-0.474866,-4.23840618133545,-4.47697305679321,7.78045701980591,0.64113062620163,0.29952129721642,0.91165190935135
735,2957915663,0.815938,-0.093192,0.316370,-0.474844,-4.25247430801392,-4.47656297683716,7.74794769287109,0.49490782618523,0.31012502312660,0.96515697240829
736,2957932330,0.815946,-0.093222,0.316369,-0.474825,-4.24313783645630,-4.47571754455566,7.77557563781738,0.75499194860458,0.46349376440048,1.07069396972656
737,2957948997,0.815953,-0.093289,0.316379,-0.474793,-4.26481866836548,-4.51109170913696,7.78085660934448,0.50347530841827,0.42576628923416,1.02341306209564
738,2957965664,0.815943,-0.093364,0.316386,-0.474791,-4.26237392425537,-4.53452157974243,7.77631425857544,0.50919967889786,0.42020836472511,0.80314379930496
739,2957982331,0.815923,-0.093431,0.316355,-0.474833,-4.25728893280029,-4.51605653762817,7.79081869125366,0.75561952590942,0.27305060625076,0.54199677705765
740,2957998998,0.815884,-0.093482,0.316330,-0.474906,-4.25507164001465,-4.47824144363403,7.79083347320557,0.88943296670914,0.42425510287285,0.33298429846764
741,2958015665,0.815851,-0.093624,0.316375,-0.474906,-4.22792434692383,-4.51099586486816,7.77236080169678,-0.00133186031599,0.47624891996384,0.58464181423187
742,2958032332,0.815843,-0.093639,0.316353,-0.474932,-4.24404811859131,-4.49649238586426,7.77276706695557,1.00754594802856,0.47245827317238,0.76119023561478
743,2958048999,0.815841,-0.093714,0.316362,-0.474914,-4.24079370498657,-4.48543262481689,7.79377365112305,0.48057743906975,0.40919488668442,0.91033297777176
744,2958065666,0.815840,-0.093777,0.316375,-0.474894,-4.23966836929321,-4.54272365570068,7.74481105804443,0.51775425672531,0.45692414045334,0.98193317651749
745,2958082333,0.815857,-0.093741,0.316318,-0.474910,-4.25662183761597,-4.50735139846802,7.77962350845337,1.38295137882233,0.37482264637947,1.00203919410706
746,2958099000,0.815856,-0.093786,0.316286,-0.474925,-4.25326108932495,-4.46618461608887,7.77733421325684,0.83983397483826,0.28407683968544,0.79581856727600
747,2958115667,0.815853,-0.093901,0.316314,-0.474887,-4.25078535079956,-4.49789142608643,7.77040147781372,0.15619263052940,0.38280099630356,0.93130975961685
748,2958132334,0.815861,-0.093962,0.316319,-0.474859,-4.23382759094238,-4.56674814224243,7.77694749832153,0.52771764993668,0.37569350004196,1.08050382137299
749,2958149001,0.815877,-0.093889,0.316228,-0.474906,-4.25164556503296,-4.52068424224854,7.78195905685425,1.75174844264984,0.29799735546112,0.93262881040573
750,2958165668,0.815878,-0.093961,0.316204,-0.474906,-4.25031089782715,-4.49281311035156,7.77172899246216,0.64472931623459,0.24417227506638,0.80199134349823
751,2958182335,0.815878,-0.093979,0.316170,-0.474925,-4.21585464477539,-4.48589277267456,7.75972270965576,1.02227330207825,0.38154599070549,0.80197840929031
752,2958199002,0.815879,-0.093990,0.316162,-0.474927,-4.21284675598145,-4.50262355804443,7.75410318374634,0.93830192089081,0.53372377157211,0.93328183889389
753,2958215669,0.815900,-0.093997,0.316161,-0.474890,-4.23683261871338,-4.53621959686279,7.81151247024536,0.86521625518799,0.50782936811447,1.24099302291870
754,2958232336,0.815916,-0.093866,0.316117,-0.474918,-4.23298311233521,-4.51409482955933,7.78472661972046,1.90536093711853,0.76537793874741,1.15346157550812
755,2958249003,0.815919,-0.093796,0.316092,-0.474942,-4.25481128692627,-4.52030038833618,7.79047489166260,1.47712910175323,0.68486434221268,1.02273428440094
756,2958265670,0.815907,-0.093694,0.316056,-0.475008,-4.22616481781006,-4.50918197631836,7.77220678329468,1.77769434452057,0.80781823396683,0.78198772668839
757,2958282337,0.815899,-0.093606,0.316045,-0.475047,-4.23482227325439,-4.50562334060669,7.78113651275635,1.56932187080383,0.87322002649307,0.93187326192856
758,2958299004,0.815902,-0.093492,0.316018,-0.475082,-4.23484611511230,-4.51282310485840,7.79280900955200,1.79439377784729,0.86083650588989,0.98997575044632
759,2958315671,0.815894,-0.093406,0.315995,-0.475127,-4.25102901458740,-4.48727226257324,7.80396890640259,1.58909487724304,0.78261512517929,0.91891306638718
760,2958332338,0.815906,-0.093366,0.315988,-0.475120,-4.27313852310181,-4.48825883865356,7.77424144744873,1.20996320247650,0.67538774013519,1.14065527915955
761,2958349005,0.815931,-0.093285,0.315961,-0.475110,-4.24035787582397,-4.50728940963745,7.78230381011963,1.50700628757477,0.66544991731644,1.26561939716339
762,2958365672,0.815936,-0.093275,0.315955,-0.475108,-4.24834203720093,-4.47746753692627,7.77212572097778,1.02202987670898,0.57980108261108,1.05539047718048
