sep=,
DeviceTag:,B
FirmwareVersion:,3.0.0
AppVersion:,2023.6.0
StartTime: ,2024-03-14_11:44:43_000 EDT
© Movella Technologies B. V. 2005-2024

PacketCounter,SampleTimeFine,Quat_W,Quat_X,Quat_Y,Quat_Z,Acc_X,Acc_Y,Acc_Z,Gyr_X,Gyr_Y,Gyr_Z
0,2945682085,-0.033594,-0.638735,0.194295,-0.743738,0.00000000000000,0.00000000000000,0.00000000000000,0.00000000000000,0.00000000000000,0.00000000000000
1,2945698752,-0.033588,-0.638782,0.194246,-0.743711,9.73480224609375,-2.46485066413879,1.07179594039917,3.33834695816040,3.04897475242615,1.00481200218201
2,2945715419,-0.033592,-0.638835,0.194184,-0.743682,9.71337413787842,-2.45872163772583,1.06042146682739,3.37110543251038,3.02831792831421,0.88292104005814
3,2945732086,-0.033587,-0.638910,0.194132,-0.743632,9.70896053314209,-2.45618438720703,1.03732693195343,3.32665443420410,2.80707502365112,0.93623387813568
4,2945748753,-0.033608,-0.639010,0.194131,-0.743545,9.70893478393555,-2.41391992568970,1.05164003372192,2.91197252273560,2.54026770591736,0.98646044731140
5,2945765420,-0.033661,-0.639139,0.194178,-0.743419,9.71159934997559,-2.42751598358154,1.05081713199615,2.48198580741882,2.25028061866760,0.98651146888733
6,2945782087,-0.033723,-0.639311,0.194247,-0.743250,9.71461296081543,-2.42346334457397,1.00241613388062,2.27308869361877,1.85010790824890,0.97352600097656
7,2945798754,-0.033771,-0.639549,0.194304,-0.743028,9.68652153015137,-2.41848349571228,0.99607366323471,2.35554885864258,1.26682972908020,0.88664758205414
8,2945815421,-0.033851,-0.639808,0.194344,-0.742791,9.68678188323975,-2.44441795349121,0.97591406106949,2.27899241447449,1.14023900032043,0.62222206592560
9,2945832088,-0.033892,-0.640098,0.194370,-0.742533,9.64436531066895,-2.42586684226990,1.00918292999268,2.49337100982666,0.83613944053650,0.71204590797424
10,2945848755,-0.033935,-0.640398,0.194420,-0.742259,9.67332744598389,-2.41476488113403,0.96273010969162,2.35262870788574,0.71289098262787,0.79118907451630
11,2945865422,-0.033984,-0.640668,0.194492,-0.742005,9.78875255584717,-2.47785472869873,0.96493494510651,2.22649931907654,0.95959252119064,0.89338374137878
12,2945882089,-0.034081,-0.640935,0.194562,-0.741751,9.82041549682617,-2.46170711517334,1.02987134456635,2.03083133697510,1.04023420810699,0.65560829639435
13,2945898756,-0.034263,-0.641228,0.194719,-0.741449,9.78213500976562,-2.43162631988525,1.04391980171204,1.15107309818268,0.78630989789963,0.55132621526718
14,2945915423,-0.034480,-0.641522,0.194920,-0.741132,9.75495910644531,-2.50672364234924,1.03761553764343,0.75379461050034,0.75453734397888,0.56735974550247
15,2945932090,-0.034612,-0.641792,0.195019,-0.740866,9.74062252044678,-2.55279946327209,1.00583791732788,1.71923947334290,1.01193213462830,0.59280586242676
16,2945948757,-0.034632,-0.642053,0.194973,-0.740650,9.73200035095215,-2.56483316421509,0.99337691068649,3.01228380203247,1.15860319137573,0.54645973443985
17,2945965424,-0.034535,-0.642289,0.194816,-0.740491,9.76417160034180,-2.51411104202271,1.03328025341034,4.16564941406250,1.41190028190613,0.70178794860840
18,2945982091,-0.034409,-0.642460,0.194622,-0.740400,9.79368972778320,-2.45659065246582,1.01539051532745,4.55790805816650,2.01702570915222,0.78910171985626
19,2945998758,-0.034377,-0.642595,0.194566,-0.740299,9.77123737335205,-2.39201259613037,1.01239788532257,3.40588688850403,2.24207162857056,0.95902913808823
20,2946015425,-0.034443,-0.642714,0.194655,-0.740169,9.76043128967285,-2.39579582214355,0.97317391633987,2.19964432716370,2.29155540466309,1.12031221389771
21,2946032092,-0.034554,-0.642806,0.194823,-0.740040,9.76667118072510,-2.44602084159851,0.95016968250275,1.59605526924133,2.48014163970947,1.27379620075226
22,2946048759,-0.034662,-0.642869,0.194973,-0.739941,9.75580883026123,-2.51020884513855,0.95698231458664,1.72629606723785,2.75278902053833,1.26068270206451
23,2946065426,-0.034704,-0.642927,0.195051,-0.739868,9.74250793457031,-2.49317932128906,0.96182352304459,2.42592000961304,2.83273935317993,1.28953552246094
24,2946082093,-0.034724,-0.642995,0.195080,-0.739800,9.75247001647949,-2.47848558425903,0.96564590930939,2.77964377403259,2.77952837944031,1.17500817775726
25,2946098760,-0.034709,-0.643090,0.195061,-0.739723,9.69701194763184,-2.45482683181763,0.94250917434692,3.17439937591553,2.56650733947754,1.09950184822083
26,2946115427,-0.034648,-0.643185,0.195002,-0.739659,9.69824028015137,-2.43857407569885,0.92398601770401,3.59613871574402,2.57592082023621,1.15716898441315
27,2946132094,-0.034554,-0.643271,0.194923,-0.739609,9.72027969360352,-2.45641922950745,0.88188630342484,3.86560916900635,2.63692975044250,1.25794196128845
28,2946148761,-0.034491,-0.643365,0.194850,-0.739550,9.74456977844238,-2.42993187904358,0.91347444057465,3.68930506706238,2.59798598289490,1.11247491836548
29,2946165428,-0.034511,-0.643491,0.194836,-0.739444,9.74687862396240,-2.40977644920349,0.93341898918152,2.95630764961243,2.32864284515381,0.88808202743530
30,2946182095,-0.034606,-0.643629,0.194910,-0.739299,9.72792434692383,-2.41240811347961,0.92760342359543,2.14131116867065,2.17344260215759,0.88308751583099
31,2946198762,-0.034748,-0.643788,0.195075,-0.739111,9.72692489624023,-2.41667819023132,0.93122893571854,1.40841674804688,1.91867291927338,0.99925380945206
32,2946215429,-0.034889,-0.643954,0.195250,-0.738913,9.72554969787598,-2.47082233428955,0.93507355451584,1.34905934333801,1.82995069026947,1.04410183429718
33,2946232096,-0.034966,-0.644102,0.195333,-0.738758,9.74199676513672,-2.51024103164673,0.90124702453613,2.15515518188477,2.05329370498657,0.99369597434998
34,2946248763,-0.034976,-0.644227,0.195296,-0.738659,9.73757076263428,-2.49777698516846,0.91580224037170,3.12897610664368,2.35786724090576,0.84847205877304
35,2946265430,-0.034981,-0.644345,0.195229,-0.738573,9.75774478912354,-2.47149705886841,0.95571148395538,3.33080339431763,2.44694757461548,0.74826216697693
36,2946282097,-0.035000,-0.644444,0.195199,-0.738494,9.75103187561035,-2.43554878234863,0.91791164875031,3.07632827758789,2.58369374275208,0.87190747261047
37,2946298764,-0.035050,-0.644543,0.195229,-0.738397,9.74861621856689,-2.44228243827820,0.94207966327667,2.61100983619690,2.53812909126282,0.97470420598984
38,2946315431,-0.035136,-0.644649,0.195269,-0.738290,9.78958225250244,-2.44586634635925,0.93204146623611,2.38784623146057,2.50083661079407,0.82798171043396
39,2946332098,-0.035210,-0.644752,0.195329,-0.738181,9.78640365600586,-2.44765758514404,0.91617935895920,2.33446931838989,2.48398327827454,0.97583097219467
40,2946348765,-0.035280,-0.644843,0.195397,-0.738080,9.77739334106445,-2.46280860900879,0.89460057020187,2.32309770584106,2.57379460334778,1.05596041679382
41,2946365432,-0.035311,-0.644930,0.195437,-0.737991,9.73751449584961,-2.46722269058228,0.90422302484512,2.64556193351746,2.60556769371033,1.13186383247375
42,2946382099,-0.035338,-0.645036,0.195416,-0.737903,9.73482799530029,-2.45322060585022,0.90563625097275,2.98417448997498,2.52172422409058,0.85794878005981
43,2946398766,-0.035365,-0.645104,0.195386,-0.737850,9.75255393981934,-2.47284698486328,0.92512989044189,3.06879878044128,2.87012076377869,0.87793934345245
44,2946415433,-0.035376,-0.645160,0.195326,-0.737817,9.73551464080811,-2.46809315681458,0.95566534996033,3.31524395942688,3.00196218490601,0.84621804952621
45,2946432100,-0.035377,-0.645212,0.195283,-0.737782,9.74687576293945,-2.45759034156799,0.93738782405853,3.27446866035461,2.99908089637756,0.97735506296158
46,2946448767,-0.035381,-0.645277,0.195238,-0.737738,9.76320457458496,-2.44697356224060,0.92932248115540,3.26211047172546,2.89618158340454,0.93971717357635
47,2946465434,-0.035389,-0.645326,0.195199,-0.737704,9.76576709747314,-2.43183732032776,0.89986419677734,3.21457338333130,3.02877879142761,0.96629035472870
48,2946482101,-0.035389,-0.645359,0.195170,-0.737683,9.76306343078613,-2.45875668525696,0.89950042963028,3.22438311576843,3.14814686775208,1.07239103317261
49,2946498768,-0.035386,-0.645380,0.195124,-0.737677,9.74005413055420,-2.44156908988953,0.88204562664032,3.32811474800110,3.28302359580994,1.03388237953186
50,2946515435,-0.035391,-0.645406,0.195081,-0.737666,9.73790836334229,-2.43174982070923,0.87970131635666,3.28166604042053,3.24510383605957,0.99926680326462
51,2946532102,-0.035406,-0.645440,0.195056,-0.737641,9.74262046813965,-2.42917251586914,0.87379866838455,3.13007664680481,3.14621281623840,1.01877069473267
52,2946548769,-0.035442,-0.645481,0.195029,-0.737611,9.73417377471924,-2.42174959182739,0.87128615379333,3.03570675849915,3.11961412429810,0.88687807321548
53,2946565436,-0.035459,-0.645530,0.194988,-0.737578,9.73460865020752,-2.44225215911865,0.88249945640564,3.19551753997803,3.04640030860901,0.91027545928955
54,2946582103,-0.035483,-0.645583,0.194956,-0.737540,9.74857997894287,-2.42403388023376,0.87493652105331,3.10778093338013,3.00903129577637,0.90630537271500
55,2946598770,-0.035507,-0.645642,0.194958,-0.737486,9.74060726165771,-2.42291736602783,0.89973151683807,2.91701769828796,2.89979338645935,1.04641962051392
56,2946615437,-0.035546,-0.645707,0.194960,-0.737427,9.74337196350098,-2.43200206756592,0.87652868032455,2.84259986877441,2.86732864379883,0.96059143543243
57,2946632104,-0.035561,-0.645778,0.194937,-0.737370,9.73833084106445,-2.45006775856018,0.90695917606354,3.08232235908508,2.82307052612305,0.96627753973007
58,2946648771,-0.035585,-0.645850,0.194921,-0.737310,9.75663661956787,-2.40321302413940,0.89172345399857,3.00403690338135,2.80090236663818,0.94956523180008
59,2946665438,-0.035621,-0.645920,0.194935,-0.737243,9.75565528869629,-2.42885470390320,0.89419323205948,2.78822398185730,2.79968571662903,1.02397000789642
60,2946682105,-0.035667,-0.645989,0.194968,-0.737172,9.77204418182373,-2.42774820327759,0.87556660175323,2.64326953887939,2.80113315582275,1.05740761756897
61,2946698772,-0.035714,-0.646057,0.194985,-0.737106,9.77930164337158,-2.45312643051147,0.87674415111542,2.73027563095093,2.82575988769531,0.97980123758316
62,2946715439,-0.035756,-0.646113,0.194972,-0.737057,9.76702117919922,-2.46906185150146,0.90673923492432,2.91978359222412,2.96110939979553,0.89850628376007
63,2946732106,-0.035778,-0.646158,0.194951,-0.737023,9.76543712615967,-2.45037078857422,0.91286897659302,3.06618618965149,3.06178069114685,0.97839236259460
64,2946748773,-0.035783,-0.646204,0.194930,-0.736988,9.73468494415283,-2.44706249237061,0.90643984079361,3.13969397544861,3.03122425079346,1.06026327610016
65,2946765440,-0.035785,-0.646221,0.194903,-0.736980,9.74175739288330,-2.43714118003845,0.88626497983932,3.21908140182495,3.29296112060547,1.10094928741455
66,2946782107,-0.035768,-0.646251,0.194841,-0.736971,9.67790603637695,-2.40106487274170,0.88461744785309,3.47958779335022,3.20879745483398,1.02275359630585
67,2946798774,-0.035743,-0.646275,0.194793,-0.736963,9.74630260467529,-2.39648699760437,0.85909867286682,3.43979811668396,3.22499752044678,1.12718927860260
68,2946815441,-0.035722,-0.646276,0.194748,-0.736976,9.85371112823486,-2.44861173629761,0.82808893918991,3.42992448806763,3.44406270980835,1.16222751140594
69,2946832108,-0.035752,-0.646275,0.194714,-0.736984,9.84141063690186,-2.42206454277039,0.85617613792419,3.14649510383606,3.49727344512939,0.95080757141113
70,2946848775,-0.035872,-0.646308,0.194795,-0.736928,9.77546787261963,-2.38295507431030,0.90190917253494,2.08145475387573,3.12944984436035,0.94395619630814
71,2946865442,-0.036009,-0.646352,0.194881,-0.736860,9.72432518005371,-2.45742321014404,0.85018491744995,1.97093582153320,3.04300665855408,0.86765587329865
72,2946882109,-0.036046,-0.646397,0.194852,-0.736826,9.71642303466797,-2.48229789733887,0.86499243974686,3.03488731384277,3.08909654617310,0.86632400751114
73,2946898776,-0.035989,-0.646453,0.194707,-0.736818,9.73788356781006,-2.45802974700928,0.89074891805649,4.08037233352661,3.04752755165100,0.82001632452011
74,2946915443,-0.035836,-0.646485,0.194501,-0.736852,9.77427959442139,-2.42486715316772,0.87996101379395,4.87224006652832,3.24523162841797,1.07826900482178
75,2946932110,-0.035718,-0.646508,0.194338,-0.736881,9.77125644683838,-2.37431764602661,0.87897765636444,4.48541164398193,3.29735350608826,1.10372805595398
76,2946948777,-0.035700,-0.646520,0.194311,-0.736878,9.76919841766357,-2.34519410133362,0.89687925577164,3.30387163162231,3.31104326248169,1.20667827129364
77,2946965444,-0.035764,-0.646541,0.194402,-0.736832,9.74708271026611,-2.37859082221985,0.85297954082489,2.29473137855530,3.16315531730652,1.29058551788330
78,2946982111,-0.035858,-0.646555,0.194564,-0.736773,9.76197719573975,-2.40022158622742,0.85503554344177,1.77421748638153,3.16350173950195,1.46617364883423
79,2946998778,-0.035941,-0.646555,0.194701,-0.736733,9.76419448852539,-2.44950222969055,0.85026186704636,1.97130703926086,3.30223226547241,1.43310725688934
80,2947015445,-0.035941,-0.646573,0.194724,-0.736711,9.76144218444824,-2.46143770217896,0.86923801898956,2.95208191871643,3.21247291564941,1.32105207443237
81,2947032112,-0.035907,-0.646601,0.194703,-0.736693,9.77945995330811,-2.46046853065491,0.87338554859161,3.33276319503784,3.14495801925659,1.28793478012085
82,2947048779,-0.035850,-0.646642,0.194639,-0.736677,9.73321342468262,-2.42464923858643,0.87612187862396,3.65748095512390,3.06568670272827,1.19704794883728
83,2947065446,-0.035773,-0.646674,0.194573,-0.736670,9.71202278137207,-2.42318725585938,0.89583534002304,3.76761603355408,3.12677311897278,1.30359685420990
84,2947082113,-0.035694,-0.646688,0.194515,-0.736678,9.75561904907227,-2.43946814537048,0.84772998094559,3.74465346336365,3.28312540054321,1.37821924686432
85,2947098780,-0.035639,-0.646695,0.194447,-0.736691,9.77837276458740,-2.41989111900330,0.86067712306976,3.69693732261658,3.37221932411194,1.21822965145111
86,2947115447,-0.035671,-0.646712,0.194472,-0.736669,9.77878475189209,-2.38228750228882,0.88257426023483,2.78889012336731,3.26102209091187,1.18034851551056
87,2947132114,-0.035765,-0.646724,0.194555,-0.736632,9.77935695648193,-2.39702367782593,0.84647965431213,2.20923590660095,3.28809428215027,1.11421644687653
88,2947148781,-0.035851,-0.646745,0.194647,-0.736585,9.76738357543945,-2.43125152587891,0.87010169029236,2.18469953536987,3.18335175514221,1.19220733642578
89,2947165448,-0.035926,-0.646772,0.194728,-0.736536,9.75453090667725,-2.44237947463989,0.86892592906952,2.29053139686584,3.13052535057068,1.17988765239716
90,2947182115,-0.035916,-0.646795,0.194716,-0.736519,9.75548648834229,-2.46431875228882,0.86444365978241,3.17836999893188,3.20765805244446,1.21709012985229
91,2947198782,-0.035837,-0.646829,0.194639,-0.736513,9.74969863891602,-2.44155430793762,0.88429117202759,3.83577060699463,3.11829495429993,1.26134860515594
92,2947215449,-0.035772,-0.646859,0.194595,-0.736502,9.75660324096680,-2.40843820571899,0.87181937694550,3.59183549880981,3.12688803672791,1.34083759784698
93,2947232116,-0.035748,-0.646872,0.194590,-0.736493,9.78932285308838,-2.41438126564026,0.84952616691589,3.21614861488342,3.27690196037292,1.32968342304230
94,2947248783,-0.035789,-0.646860,0.194653,-0.736486,9.78975200653076,-2.40671753883362,0.84953850507736,2.58110713958740,3.47287750244141,1.34132444858551
95,2947265450,-0.035864,-0.646848,0.194758,-0.736464,9.79269123077393,-2.42318344116211,0.85783278942108,2.18384170532227,3.44872450828552,1.35355448722839
96,2947282117,-0.035939,-0.646847,0.194845,-0.736438,9.76857566833496,-2.44287037849426,0.85865795612335,2.27693057060242,3.37031102180481,1.25107800960541
97,2947298784,-0.035967,-0.646865,0.194872,-0.736414,9.76456642150879,-2.47838783264160,0.86573952436447,2.80792021751404,3.23991703987122,1.20369458198547
98,2947315451,-0.035951,-0.646883,0.194832,-0.736410,9.77081489562988,-2.45747470855713,0.85421788692474,3.36275506019592,3.28868341445923,1.12438476085663
99,2947332118,-0.035912,-0.646897,0.194773,-0.736415,9.77732181549072,-2.43953490257263,0.86229163408279,3.57742834091187,3.31760048866272,1.17258787155151
100,2947348785,-0.035879,-0.646916,0.194716,-0.736414,9.76506233215332,-2.40805792808533,0.86285156011581,3.52822637557983,3.28006482124329,1.14061033725739
101,2947365452,-0.035882,-0.646926,0.194707,-0.736408,9.75891113281250,-2.40476202964783,0.87272608280182,3.11869239807129,3.33778333663940,1.17733919620514
102,2947382119,-0.035880,-0.646918,0.194699,-0.736417,9.74759292602539,-2.41673851013184,0.87840193510056,3.14695572853088,3.48135471343994,1.24224150180817
103,2947398786,-0.035889,-0.646904,0.194705,-0.736427,9.76705360412598,-2.42507266998291,0.87411278486252,3.02993130683899,3.53470683097839,1.25175678730011
104,2947415453,-0.035911,-0.646891,0.194731,-0.736431,9.75338554382324,-2.42799496650696,0.88240051269531,2.86538290977478,3.51271820068359,1.27470588684082
105,2947432120,-0.035942,-0.646904,0.194740,-0.736416,9.75866603851318,-2.42791986465454,0.85690540075302,2.88949704170227,3.31259322166443,1.11591982841492
106,2947448787,-0.035963,-0.646920,0.194729,-0.736404,9.75107669830322,-2.43782877922058,0.85247415304184,3.04299402236938,3.30617713928223,1.07395350933075
107,2947465454,-0.035981,-0.646928,0.194706,-0.736402,9.76362323760986,-2.43942046165466,0.86088204383850,3.13156270980835,3.38529515266418,1.04166865348816
108,2947482121,-0.036006,-0.646929,0.194686,-0.736405,9.74931526184082,-2.43049311637878,0.85307282209396,3.07974863052368,3.46171069145203,1.03424096107483
109,2947498788,-0.036021,-0.646947,0.194631,-0.736403,9.74302673339844,-2.41029405593872,0.84027785062790,3.31008315086365,3.33509421348572,0.91181212663651
110,2947515455,-0.036036,-0.646977,0.194576,-0.736391,9.76168823242188,-2.40620756149292,0.86652022600174,3.28459882736206,3.23836755752563,0.88317716121674
111,2947532122,-0.036074,-0.646995,0.194545,-0.736381,9.75579643249512,-2.40664815902710,0.86050373315811,3.05355930328369,3.33418512344360,0.89690566062927
112,2947548789,-0.036123,-0.647003,0.194520,-0.736378,9.75921344757080,-2.40658736228943,0.84148299694061,2.99586653709412,3.42792701721191,0.88025736808777
113,2947565456,-0.036184,-0.647023,0.194512,-0.736359,9.75328922271729,-2.40630149841309,0.85314261913300,2.84763288497925,3.30146408081055,0.87790089845657
114,2947582123,-0.036239,-0.647053,0.194512,-0.736331,9.75588035583496,-2.39588236808777,0.85786259174347,2.81648778915405,3.20014071464539,0.92440080642700
115,2947598790,-0.036279,-0.647088,0.194498,-0.736301,9.77248859405518,-2.42693066596985,0.83114808797836,2.94492244720459,3.15581774711609,0.93245595693588
116,2947615457,-0.036305,-0.647143,0.194462,-0.736262,9.77656936645508,-2.39845776557922,0.84106105566025,3.11295485496521,3.00007963180542,0.87928402423859
117,2947632124,-0.036336,-0.647182,0.194424,-0.736236,9.76594734191895,-2.41467046737671,0.86065095663071,3.12174034118652,3.14397215843201,0.86537641286850
118,2947648791,-0.036355,-0.647214,0.194384,-0.736218,9.78196334838867,-2.41877794265747,0.87353599071503,3.18801331520081,3.20440530776978,0.92916476726532
119,2947665458,-0.036408,-0.647243,0.194398,-0.736186,9.76344394683838,-2.40919589996338,0.86296051740646,2.74989485740662,3.18190407752991,0.99573218822479
120,2947682125,-0.036477,-0.647272,0.194401,-0.736156,9.77135086059570,-2.43705058097839,0.84297466278076,2.73019886016846,3.22339653968811,0.87126713991165
121,2947698792,-0.036527,-0.647296,0.194407,-0.736131,9.75565910339355,-2.41332793235779,0.87441754341125,2.81145477294922,3.23881554603577,0.98567920923233
122,2947715459,-0.036568,-0.647284,0.194393,-0.736142,9.75838756561279,-2.42443418502808,0.86000120639801,3.00784063339233,3.57233166694641,1.00410759449005
123,2947732126,-0.036562,-0.647277,0.194328,-0.736166,9.69729232788086,-2.40094184875488,0.86783188581467,3.47752618789673,3.55588817596436,1.00801348686218
124,2947748793,-0.036542,-0.647285,0.194269,-0.736175,9.73099708557129,-2.39441108703613,0.85284852981567,3.49512171745300,3.39721703529358,1.07794880867004
125,2947765460,-0.036530,-0.647297,0.194203,-0.736184,9.83457660675049,-2.41942787170410,0.81774055957794,3.49108791351318,3.38806056976318,1.00588762760162
126,2947782127,-0.036571,-0.647336,0.194157,-0.736159,9.85091781616211,-2.37581348419189,0.82618039846420,3.11492705345154,3.15939068794250,0.78310835361481
127,2947798794,-0.036739,-0.647402,0.194225,-0.736074,9.81077194213867,-2.35836982727051,0.86991775035858,1.90604579448700,2.90491557121277,0.59345901012421
128,2947815461,-0.036910,-0.647460,0.194337,-0.735985,9.74384689331055,-2.42655587196350,0.84651076793671,1.65720558166504,2.91937351226807,0.78395342826843
129,2947832128,-0.036995,-0.647521,0.194344,-0.735926,9.69802188873291,-2.45248723030090,0.83942961692810,2.60951209068298,2.94785571098328,0.75545948743820
130,2947848795,-0.036968,-0.647599,0.194226,-0.735890,9.71426105499268,-2.44030284881592,0.86116462945938,3.78198456764221,2.84507179260254,0.75058025121689
131,2947865462,-0.036860,-0.647677,0.194049,-0.735873,9.77132987976074,-2.41264581680298,0.84970808029175,4.47264337539673,2.84002566337585,0.89878815412521
132,2947882129,-0.036735,-0.647724,0.193891,-0.735880,9.80696010589600,-2.36425018310547,0.83637303113937,4.46192502975464,3.07243585586548,1.11976158618927
133,2947898796,-0.036701,-0.647768,0.193852,-0.735853,9.78971767425537,-2.32132625579834,0.85813039541245,3.40505480766296,3.03134012222290,1.18631637096405
134,2947915463,-0.036763,-0.647796,0.193950,-0.735800,9.77364540100098,-2.34168529510498,0.85246264934540,2.26080751419067,3.09044194221497,1.32085990905762
135,2947932130,-0.036861,-0.647801,0.194106,-0.735749,9.79174327850342,-2.37927174568176,0.83456879854202,1.79710245132446,3.24392557144165,1.42923998832703
136,2947948797,-0.036949,-0.647797,0.194272,-0.735704,9.79519939422607,-2.42713904380798,0.83147549629211,1.80646407604218,3.29997920989990,1.54461252689362
137,2947965464,-0.036974,-0.647788,0.194368,-0.735685,9.79321670532227,-2.43806529045105,0.86148911714554,2.46492791175842,3.37875080108643,1.55730342864990
138,2947982131,-0.036949,-0.647816,0.194375,-0.735660,9.79045009613037,-2.44947099685669,0.87726265192032,3.12400698661804,3.12057495117188,1.36359477043152
139,2947998798,-0.036900,-0.647866,0.194330,-0.735630,9.73894596099854,-2.41045236587524,0.85402232408524,3.51422905921936,2.96848654747009,1.22713017463684
140,2948015465,-0.036836,-0.647906,0.194266,-0.735615,9.71732234954834,-2.39279460906982,0.85197061300278,3.68792152404785,3.06847810745239,1.23231661319733
141,2948032132,-0.036732,-0.647910,0.194211,-0.735631,9.75461769104004,-2.40138101577759,0.82068854570389,3.86114025115967,3.33112382888794,1.52802813053131
142,2948048799,-0.036650,-0.647904,0.194149,-0.735658,9.77631855010986,-2.39717721939087,0.81445294618607,3.80430603027344,3.46568036079407,1.40717482566833
143,2948065466,-0.036656,-0.647907,0.194170,-0.735649,9.79387950897217,-2.35690903663635,0.84171849489212,2.95149278640747,3.34875869750977,1.30697786808014
144,2948082133,-0.036727,-0.647917,0.194266,-0.735611,9.79268074035645,-2.36154484748840,0.82175999879837,2.24085497856140,3.25824260711670,1.29862773418427
145,2948098800,-0.036818,-0.647967,0.194395,-0.735529,9.77133846282959,-2.38578391075134,0.81810647249222,1.94230091571808,2.88064765930176,1.27739500999451
146,2948115467,-0.036903,-0.648009,0.194516,-0.735455,9.76287460327148,-2.43020963668823,0.82856571674347,2.01273584365845,2.94535803794861,1.28675639629364
147,2948132134,-0.036907,-0.648027,0.194539,-0.735433,9.74240779876709,-2.46337723731995,0.84925997257233,2.92871022224426,3.22291040420532,1.30314874649048
148,2948148801,-0.036851,-0.648034,0.194471,-0.735448,9.73838710784912,-2.44462728500366,0.84829860925674,3.70136833190918,3.37480640411377,1.22327542304993
149,2948165468,-0.036808,-0.648059,0.194389,-0.735450,9.73990821838379,-2.37548565864563,0.82520359754562,3.71157526969910,3.25677037239075,1.07333874702454
150,2948182135,-0.036792,-0.648070,0.194358,-0.735449,9.78807353973389,-2.38160538673401,0.82917791604996,3.32214617729187,3.33082890510559,1.17391955852509
151,2948198802,-0.036821,-0.648079,0.194390,-0.735431,9.78966140747070,-2.38716149330139,0.82241809368134,2.77590417861938,3.31558942794800,1.23412227630615
152,2948215469,-0.036863,-0.648087,0.194437,-0.735409,9.78021240234375,-2.39060640335083,0.82663041353226,2.64173245429993,3.31204223632812,1.23587679862976
153,2948232136,-0.036901,-0.648109,0.194469,-0.735380,9.76875114440918,-2.39845299720764,0.81910693645477,2.73366880416870,3.21256232261658,1.16290605068207
154,2948248803,-0.036920,-0.648137,0.194490,-0.735348,9.76340484619141,-2.42559289932251,0.84214401245117,2.86091303825378,3.14093661308289,1.20228576660156
155,2948265470,-0.036905,-0.648179,0.194493,-0.735312,9.79144668579102,-2.40795683860779,0.82731139659882,3.10967636108398,3.01343655586243,1.27830421924591
156,2948282137,-0.036908,-0.648223,0.194484,-0.735275,9.77706813812256,-2.40828990936279,0.83139491081238,3.09246492385864,3.01917386054993,1.12616479396820
157,2948298804,-0.036933,-0.648265,0.194485,-0.735237,9.75911617279053,-2.40337276458740,0.83218485116959,2.93205237388611,3.06211376190186,1.06445109844208
158,2948315471,-0.036938,-0.648296,0.194482,-0.735210,9.76547718048096,-2.40392804145813,0.84011012315750,3.05357217788696,3.14014267921448,1.16248369216919
159,2948332138,-0.036951,-0.648320,0.194483,-0.735188,9.77928256988525,-2.39624595642090,0.85002332925797,3.01329612731934,3.20240712165833,1.15431332588196
160,2948348805,-0.036947,-0.648334,0.194488,-0.735174,9.77249050140381,-2.39680218696594,0.81832528114319,3.06676268577576,3.27207398414612,1.26901984214783
161,2948365472,-0.036924,-0.648355,0.194493,-0.735156,9.78773212432861,-2.39414930343628,0.84046787023544,3.15506243705750,3.18742442131042,1.35903561115265
162,2948382139,-0.036905,-0.648368,0.194510,-0.735140,9.77421569824219,-2.38722705841064,0.80334544181824,3.06672430038452,3.23984050750732,1.39845347404480
163,2948398806,-0.036892,-0.648391,0.194523,-0.735118,9.78474330902100,-2.40261650085449,0.82531517744064,3.06361198425293,3.17126226425171,1.34024858474731
164,2948415473,-0.036891,-0.648397,0.194552,-0.735104,9.76863574981689,-2.40359401702881,0.81215167045593,2.93018293380737,3.30799603462219,1.37273848056793
165,2948432140,-0.036885,-0.648422,0.194573,-0.735078,9.76036930084229,-2.40012884140015,0.80696755647659,2.98265051841736,3.14956855773926,1.33624029159546
166,2948448807,-0.036888,-0.648453,0.194574,-0.735050,9.77894687652588,-2.39468550682068,0.79963028430939,3.04299402236938,3.13008999824524,1.19255292415619
167,2948465474,-0.036891,-0.648481,0.194590,-0.735020,9.80277824401855,-2.39931726455688,0.80076557397842,2.96012377738953,3.13271498680115,1.26193785667419
168,2948482141,-0.036883,-0.648521,0.194603,-0.734982,9.79568672180176,-2.39922928810120,0.83245152235031,3.02953386306763,3.02360439300537,1.28776800632477
169,2948498808,-0.036892,-0.648565,0.194621,-0.734938,9.77390956878662,-2.38762998580933,0.82044339179993,2.91208720207214,2.99733901023865,1.21086585521698
170,2948515475,-0.036901,-0.648615,0.194639,-0.734889,9.75903892517090,-2.39768767356873,0.82993036508560,2.90590167045593,2.94274568557739,1.21256923675537
171,2948532142,-0.036918,-0.648656,0.194671,-0.734843,9.75653457641602,-2.39614939689636,0.83333337306976,2.80748486518860,3.00621414184570,1.23750329017639
172,2948548809,-0.036923,-0.648696,0.194706,-0.734798,9.76554012298584,-2.38248038291931,0.81576704978943,2.84322714805603,3.00792980194092,1.31466138362885
173,2948565476,-0.036956,-0.648734,0.194760,-0.734749,9.76393890380859,-2.40388345718384,0.81246346235275,2.62055039405823,3.03049445152283,1.26791822910309
174,2948582143,-0.036977,-0.648777,0.194803,-0.734698,9.77186107635498,-2.41586756706238,0.81313043832779,2.72520375251770,2.98006272315979,1.26379466056824
175,2948598810,-0.036999,-0.648829,0.194815,-0.734648,9.77839565277100,-2.40507674217224,0.81525450944901,2.87707471847534,2.94948172569275,1.11296141147614
176,2948615477,-0.037017,-0.648893,0.194804,-0.734593,9.76699638366699,-2.41303062438965,0.82336264848709,3.01346182823181,2.86259055137634,1.01481354236603
177,2948632144,-0.037016,-0.648950,0.194794,-0.734546,9.76962089538574,-2.41844391822815,0.79920101165771,3.09715151786804,2.91202330589294,1.11617588996887
178,2948648811,-0.037022,-0.649007,0.194798,-0.734494,9.75572681427002,-2.40754652023315,0.81553643941879,2.99705767631531,2.89438891410828,1.15199518203735
179,2948665478,-0.037056,-0.649056,0.194814,-0.734445,9.78890037536621,-2.40856790542603,0.81839340925217,2.80442452430725,2.97911572456360,1.07464504241943
180,2948682145,-0.037057,-0.649096,0.194809,-0.734410,9.74706840515137,-2.40782213211060,0.79778164625168,3.07353663444519,3.05373835563660,1.16268849372864
181,2948698812,-0.037055,-0.649115,0.194775,-0.734404,9.76770591735840,-2.39551949501038,0.82969611883163,3.27206158638000,3.29352498054504,1.07880711555481
182,2948715479,-0.037028,-0.649127,0.194749,-0.734401,9.71875476837158,-2.39416098594666,0.80824190378189,3.34058761596680,3.30068302154541,1.25303733348846
183,2948732146,-0.037002,-0.649151,0.194730,-0.734386,9.73879337310791,-2.37829661369324,0.78509056568146,3.29211592674255,3.19061279296875,1.25967109203339
184,2948748813,-0.036976,-0.649166,0.194710,-0.734379,9.83048629760742,-2.42759251594543,0.74595230817795,3.31191396713257,3.27211189270020,1.27552521228790
185,2948765480,-0.037006,-0.649210,0.194687,-0.734345,9.85460853576660,-2.41151261329651,0.75974714756012,3.05086946487427,3.07512450218201,0.93026602268219
186,2948782147,-0.037132,-0.649278,0.194730,-0.734267,9.79956531524658,-2.34880638122559,0.81183505058289,2.22078776359558,2.87380909919739,0.69193989038467
187,2948798814,-0.037313,-0.649327,0.194865,-0.734179,9.75955581665039,-2.42125511169434,0.80086088180542,1.50103235244751,2.97535085678101,0.85396587848663
188,2948815481,-0.037418,-0.649372,0.194902,-0.734123,9.71334934234619,-2.46296215057373,0.80722671747208,2.37076306343079,3.06326651573181,0.81020671129227
189,2948832148,-0.037414,-0.649442,0.194776,-0.734095,9.72829151153564,-2.45060944557190,0.80611675977707,3.72696876525879,2.95906114578247,0.61136245727539
190,2948848815,-0.037292,-0.649496,0.194563,-0.734111,9.77285099029541,-2.41281890869141,0.79848623275757,4.74175596237183,3.09885478019714,0.84450197219849
191,2948865482,-0.037145,-0.649522,0.194370,-0.734146,9.80183124542236,-2.35997176170349,0.82407015562057,4.77383708953857,3.28905510902405,1.10375380516052
192,2948882149,-0.037079,-0.649541,0.194301,-0.734151,9.79644393920898,-2.31414771080017,0.80652570724487,3.74670338630676,3.25994634628296,1.24965655803680
193,2948898816,-0.037126,-0.649547,0.194370,-0.734125,9.79898262023926,-2.30760240554810,0.79505270719528,2.50152850151062,3.30590796470642,1.30827116966248
194,2948915483,-0.037232,-0.649548,0.194544,-0.734072,9.78443527221680,-2.36827373504639,0.78755277395248,1.66394209861755,3.26746368408203,1.47790408134460
195,2948932150,-0.037314,-0.649539,0.194710,-0.734033,9.79484939575195,-2.42465424537659,0.79110914468765,1.82678723335266,3.34661912918091,1.58122551441193
196,2948948817,-0.037342,-0.649560,0.194808,-0.733986,9.78894996643066,-2.43287110328674,0.78583949804306,2.40400815010071,3.10313224792480,1.50723063945770
197,2948965484,-0.037333,-0.649593,0.194840,-0.733949,9.79709911346436,-2.43816781044006,0.80530112981796,2.92815923690796,3.06228017807007,1.38638997077942
198,2948982151,-0.037276,-0.649642,0.194811,-0.733916,9.75072860717773,-2.41989159584045,0.79987287521362,3.45489788055420,2.94104266166687,1.33348691463470
199,2948998818,-0.037186,-0.649684,0.194763,-0.733897,9.70667266845703,-2.38616824150085,0.79302173852921,3.73530459403992,3.00179553031921,1.42847144603729
200,2949015485,-0.037059,-0.649693,0.194696,-0.733912,9.76421070098877,-2.41216921806335,0.78653413057327,4.01581525802612,3.27802872657776,1.58447849750519
201,2949032152,-0.036959,-0.649685,0.194626,-0.733944,9.79563808441162,-2.41172528266907,0.77549129724503,3.93185687065125,3.47368454933167,1.46377885341644
202,2949048819,-0.036941,-0.649673,0.194629,-0.733954,9.79127025604248,-2.37456560134888,0.80900084972382,3.16307878494263,3.49022984504700,1.37362194061279
203,2949065486,-0.037000,-0.649660,0.194692,-0.733946,9.81665325164795,-2.38235259056091,0.77080368995667,2.50785470008850,3.49824643135071,1.25033521652222
204,2949082153,-0.037085,-0.649671,0.194806,-0.733902,9.76326942443848,-2.41119885444641,0.79623395204544,2.09186625480652,3.23662614822388,1.30624783039093
205,2949098820,-0.037147,-0.649688,0.194911,-0.733855,9.75587463378906,-2.41820597648621,0.77737045288086,2.22341275215149,3.16823959350586,1.36988234519958
206,2949115487,-0.037147,-0.649709,0.194932,-0.733831,9.74658107757568,-2.44406914710999,0.78338623046875,2.96983122825623,3.19056129455566,1.31081974506378
207,2949132154,-0.037088,-0.649713,0.194856,-0.733851,9.75657653808594,-2.42633986473083,0.78461515903473,3.74155497550964,3.41941142082214,1.20758771896362
208,2949148821,-0.037049,-0.649721,0.194770,-0.733869,9.77367877960205,-2.39128756523132,0.77301096916199,3.74336028099060,3.41418600082397,1.05712580680847
209,2949165488,-0.037038,-0.649719,0.194712,-0.733886,9.76120662689209,-2.37593913078308,0.79115778207779,3.42299675941467,3.50363779067993,1.05380892753601
210,2949182155,-0.037057,-0.649701,0.194702,-0.733904,9.78363037109375,-2.37130045890808,0.80072146654129,3.06956720352173,3.61165976524353,1.13441216945648
211,2949198822,-0.037102,-0.649691,0.194730,-0.733903,9.79506206512451,-2.36651778221130,0.78803551197052,2.72022247314453,3.51051545143127,1.16069066524506
212,2949215489,-0.037135,-0.649686,0.194764,-0.733897,9.80774307250977,-2.38676762580872,0.79246228933334,2.76111340522766,3.43837738037109,1.24061524868011
213,2949232156,-0.037151,-0.649681,0.194789,-0.733894,9.81985569000244,-2.40269374847412,0.76920813322067,2.90058732032776,3.43913316726685,1.28732013702393
214,2949248823,-0.037158,-0.649682,0.194787,-0.733894,9.82071971893311,-2.41015338897705,0.77813887596130,3.06744122505188,3.40954995155334,1.20341289043427
215,2949265490,-0.037176,-0.649663,0.194767,-0.733914,9.80679416656494,-2.42232108116150,0.79036551713943,3.13422608375549,3.62258386611938,1.10586678981781
216,2949282157,-0.037182,-0.649630,0.194753,-0.733948,9.76983070373535,-2.42386674880981,0.83538001775742,3.17573165893555,3.73831486701965,1.20935499668121
217,2949298824,-0.037180,-0.649571,0.194731,-0.734005,9.74626922607422,-2.40954113006592,0.84998625516891,3.26961493492126,3.96589636802673,1.25283253192902
218,2949315491,-0.037181,-0.649499,0.194697,-0.734078,9.75303363800049,-2.42132902145386,0.83419340848923,3.33989667892456,4.10282230377197,1.21035385131836
219,2949332158,-0.037177,-0.649449,0.194615,-0.734144,9.79987812042236,-2.42607545852661,0.80293869972229,3.59443569183350,3.97557830810547,0.98907297849655
220,2949348825,-0.037172,-0.649411,0.194511,-0.734206,9.83571434020996,-2.40301918983459,0.79863208532333,3.72439408302307,3.89378428459167,0.88064146041870
221,2949365492,-0.037163,-0.649367,0.194432,-0.734266,9.82742500305176,-2.39855456352234,0.78572857379913,3.60651206970215,3.90569376945496,1.01459610462189
222,2949382159,-0.037138,-0.649326,0.194369,-0.734320,9.79272079467773,-2.36658668518066,0.78439497947693,3.65079593658447,3.81743240356445,1.17486751079559
223,2949398826,-0.037111,-0.649286,0.194322,-0.734369,9.77711105346680,-2.34445095062256,0.79677695035934,3.53758835792542,3.79610943794250,1.24449563026428
224,2949415493,-0.037063,-0.649225,0.194306,-0.734430,9.73886680603027,-2.33419203758240,0.78759050369263,3.46451520919800,3.92509555816650,1.51628494262695
225,2949432160,-0.037023,-0.649175,0.194323,-0.734471,9.71212291717529,-2.36079144477844,0.79030203819275,3.19464635848999,3.80029726028442,1.60275316238403
226,2949448827,-0.037011,-0.649141,0.194354,-0.734494,9.71405887603760,-2.36271905899048,0.75616472959518,2.99767208099365,3.65558505058289,1.50110912322998
227,2949465494,-0.037028,-0.649145,0.194397,-0.734478,9.72041988372803,-2.39708924293518,0.79432952404022,2.77562308311462,3.33043241500854,1.34347593784332
228,2949482161,-0.037042,-0.649181,0.194420,-0.734439,9.76180076599121,-2.38607501983643,0.76080477237701,2.90495419502258,3.05750346183777,1.22907674312592
229,2949498828,-0.037040,-0.649254,0.194410,-0.734378,9.76253414154053,-2.39307618141174,0.78043437004089,3.06799149513245,2.77245926856995,1.10055196285248
230,2949515495,-0.037014,-0.649360,0.194363,-0.734298,9.75538921356201,-2.39032721519470,0.78593778610229,3.35048699378967,2.49329400062561,1.00876903533936
231,2949532162,-0.036967,-0.649492,0.194290,-0.734203,9.75628852844238,-2.37945532798767,0.81889259815216,3.54942107200623,2.28398680686951,0.95984876155853
232,2949548829,-0.036940,-0.649646,0.194244,-0.734080,9.73294544219971,-2.36016345024109,0.80670708417892,3.32516932487488,2.05132150650024,0.94259876012802
233,2949565496,-0.036965,-0.649835,0.194263,-0.733907,9.75573825836182,-2.36043906211853,0.80265110731125,2.69728589057922,1.71400153636932,0.91282361745834
234,2949582163,-0.037060,-0.650031,0.194350,-0.733705,9.77931594848633,-2.37497234344482,0.76347249746323,2.02642560005188,1.61700665950775,0.85091799497604
235,2949598830,-0.037188,-0.650222,0.194449,-0.733503,9.80047225952148,-2.41495895385742,0.79201340675354,1.79781937599182,1.68991279602051,0.74014294147491
236,2949615497,-0.037327,-0.650420,0.194526,-0.733300,9.79073619842529,-2.41447544097900,0.79695880413055,1.95090651512146,1.64588475227356,0.58322674036026
237,2949632164,-0.037455,-0.650622,0.194570,-0.733102,9.80412483215332,-2.39743089675903,0.78259688615799,2.07646012306213,1.66965365409851,0.48040461540222
238,2949648831,-0.037549,-0.650825,0.194586,-0.732913,9.80148792266846,-2.40515255928040,0.79770642518997,2.31844878196716,1.68073105812073,0.52527803182602
239,2949665498,-0.037624,-0.651014,0.194621,-0.732732,9.82310485839844,-2.41097378730774,0.81172132492065,2.38974189758301,1.73487651348114,0.72423756122589
240,2949682165,-0.037709,-0.651185,0.194628,-0.732574,9.80567836761475,-2.39352798461914,0.82172870635986,2.50756001472473,1.95180273056030,0.58733755350113
241,2949698832,-0.037787,-0.651337,0.194657,-0.732427,9.79413509368896,-2.37047362327576,0.82109957933426,2.40896415710449,2.09100794792175,0.74534237384796
242,2949715499,-0.037844,-0.651458,0.194710,-0.732302,9.78352355957031,-2.36108279228210,0.77731770277023,2.40932250022888,2.30536055564880,1.00273704528809
243,2949732166,-0.037888,-0.651570,0.194777,-0.732182,9.74615573883057,-2.35388493537903,0.76755607128143,2.41578984260559,2.34518861770630,1.14627087116241
244,2949748833,-0.037890,-0.651646,0.194858,-0.732093,9.79862403869629,-2.37641668319702,0.74216008186340,2.62672376632690,2.59624433517456,1.48483240604401
245,2949765500,-0.037845,-0.651719,0.194920,-0.732014,9.90479373931885,-2.40800452232361,0.70652520656586,2.83619666099548,2.62612104415894,1.63113200664520
246,2949782167,-0.037837,-0.651829,0.194992,-0.731897,9.89187526702881,-2.35260629653931,0.72883313894272,2.68713116645813,2.28348779678345,1.43990778923035
247,2949798834,-0.037894,-0.651985,0.195154,-0.731713,9.81143856048584,-2.30472946166992,0.74943488836288,1.81349444389343,1.83882546424866,1.43381178379059
248,2949815501,-0.037925,-0.652149,0.195356,-0.731511,9.77748394012451,-2.38666963577271,0.70902776718140,1.71322059631348,1.66394174098969,1.72105801105499
249,2949832168,-0.037821,-0.652341,0.195467,-0.731316,9.75875091552734,-2.40661764144897,0.69151443243027,2.80789470672607,1.39742898941040,1.96738862991333
250,2949848835,-0.037586,-0.652604,0.195487,-0.731088,9.80891036987305,-2.33155441284180,0.67406684160233,3.81319355964661,0.74165409803391,2.10842466354370
251,2949865502,-0.037291,-0.652900,0.195563,-0.730818,9.82575321197510,-2.24264335632324,0.67386537790298,3.75875377655029,0.28433942794800,2.60339045524597
252,2949882169,-0.037074,-0.653206,0.195842,-0.730481,9.85670185089111,-2.20235157012939,0.65010488033295,2.30721783638000,-0.00488562323153,3.09971308708191
253,2949898836,-0.037028,-0.653492,0.196408,-0.730075,9.83262443542480,-2.22142601013184,0.63412696123123,0.05338967591524,-0.07552545517683,3.53728055953979
254,2949915503,-0.037091,-0.653735,0.197146,-0.729655,9.80519485473633,-2.32641601562500,0.61503338813782,-1.35718512535095,0.18512862920761,3.81940460205078
255,2949932170,-0.037196,-0.653965,0.197951,-0.729226,9.78321743011475,-2.42344546318054,0.65722882747650,-1.94723749160767,0.26354187726974,3.92208552360535
256,2949948837,-0.037238,-0.654194,0.198677,-0.728821,9.78357791900635,-2.52344298362732,0.67290824651718,-1.22115588188171,0.30838972330093,3.88502359390259
257,2949965504,-0.037156,-0.654445,0.199226,-0.728450,9.79018688201904,-2.54650306701660,0.69352090358734,0.27949863672256,0.23080885410309,3.69673228263855
258,2949982171,-0.036950,-0.654702,0.199601,-0.728126,9.81596374511719,-2.53626513481140,0.68084305524826,1.76623928546906,0.28316122293472,3.53443789482117
259,2949998838,-0.036615,-0.654926,0.199816,-0.727883,9.79828262329102,-2.52676987648010,0.69296330213547,3.24882984161377,0.67819863557816,3.53220891952515
260,2950015505,-0.036192,-0.655088,0.199976,-0.727714,9.78107547760010,-2.49243593215942,0.68880909681320,4.00276565551758,1.21545088291168,3.81804728507996
261,2950032172,-0.035747,-0.655169,0.200133,-0.727621,9.83273792266846,-2.48419857025146,0.67227596044540,4.20368385314941,1.92803454399109,4.05118608474731
262,2950048839,-0.035351,-0.655198,0.200359,-0.727551,9.83401870727539,-2.45357918739319,0.65014731884003,3.66148996353149,2.34402346611023,4.19527149200439
263,2950065506,-0.035127,-0.655182,0.200750,-0.727468,9.80558013916016,-2.45301747322083,0.65850722789764,2.05197453498840,2.70543146133423,4.13633632659912
264,2950082173,-0.035009,-0.655127,0.201213,-0.727396,9.78218555450439,-2.51374506950378,0.60843789577484,1.19251465797424,3.08835387229919,3.98239135742188
265,2950098840,-0.034931,-0.655052,0.201655,-0.727345,9.74148654937744,-2.55120491981506,0.58269292116165,1.10846638679504,3.34034419059753,3.72280621528625
266,2950115507,-0.034794,-0.654999,0.201990,-0.727306,9.71298217773438,-2.59402632713318,0.58121109008789,1.93256795406342,3.24329805374146,3.50530314445496
267,2950132174,-0.034573,-0.654977,0.202133,-0.727297,9.71425819396973,-2.61302757263184,0.58619719743729,3.34950137138367,3.13391947746277,3.02811288833618
268,2950148841,-0.034277,-0.654970,0.202125,-0.727320,9.69942092895508,-2.57138609886169,0.56295365095139,4.50285339355469,3.13213872909546,2.71169328689575
269,2950165508,-0.033964,-0.654969,0.202060,-0.727353,9.72134876251221,-2.53164935112000,0.55195486545563,4.87338066101074,3.14220499992371,2.52896022796631
270,2950182175,-0.033707,-0.654979,0.202010,-0.727370,9.78269100189209,-2.49712061882019,0.53632521629333,4.50209856033325,3.09334850311279,2.29881691932678
271,2950198842,-0.033522,-0.654982,0.202018,-0.727374,9.81465625762939,-2.48657441139221,0.54942196607590,3.85929632186890,3.16278457641602,2.21011996269226
272,2950215509,-0.033405,-0.655019,0.202071,-0.727331,9.80068492889404,-2.51233386993408,0.59887164831161,3.30497407913208,2.86096477508545,2.01036691665649
273,2950232176,-0.033328,-0.655067,0.202204,-0.727254,9.78688430786133,-2.50675916671753,0.60072219371796,2.66607713699341,2.68030476570129,2.14871335029602
274,2950248843,-0.033323,-0.655106,0.202421,-0.727159,9.77734756469727,-2.49485754966736,0.59231221675873,1.87711656093597,2.73416900634766,2.17462086677551
275,2950265510,-0.033362,-0.655111,0.202684,-0.727080,9.80812358856201,-2.53147077560425,0.55627703666687,1.45184326171875,3.03627109527588,2.21123433113098
276,2950282177,-0.033436,-0.655075,0.202978,-0.727026,9.77047443389893,-2.55974364280701,0.60115242004395,1.16277813911438,3.39501476287842,2.23671889305115
277,2950298844,-0.033497,-0.655038,0.203227,-0.726988,9.73665142059326,-2.56992077827454,0.59843635559082,1.50797343254089,3.44761037826538,2.11358571052551
278,2950315511,-0.033532,-0.655030,0.203388,-0.726948,9.74345779418945,-2.58803510665894,0.59523487091064,2.07617807388306,3.27900147438049,1.80264723300934
279,2950332178,-0.033513,-0.655032,0.203463,-0.726926,9.73645782470703,-2.56044268608093,0.60979437828064,2.79237365722656,3.25171208381653,1.67381584644318
280,2950348845,-0.033428,-0.655043,0.203451,-0.726923,9.74526786804199,-2.55229973793030,0.58552843332291,3.53511571884155,3.22006702423096,1.60900247097015
281,2950365512,-0.033302,-0.655042,0.203417,-0.726939,9.73648357391357,-2.51660227775574,0.56774502992630,3.85016608238220,3.31606435775757,1.72557914257050
282,2950382179,-0.033170,-0.655027,0.203396,-0.726965,9.73832988739014,-2.50897192955017,0.59750384092331,3.87698197364807,3.40837168693542,1.84851980209351
283,2950398846,-0.033043,-0.655010,0.203404,-0.726984,9.72158432006836,-2.50219058990479,0.58405143022537,3.65062952041626,3.39148068428040,1.95065045356750
284,2950415513,-0.032945,-0.655005,0.203455,-0.726979,9.76782512664795,-2.50372052192688,0.57921081781387,3.26629781723022,3.26193094253540,1.97344553470612
285,2950432180,-0.032874,-0.654998,0.203544,-0.726963,9.75964832305908,-2.52297306060791,0.58129715919495,2.93394756317139,3.25916481018066,2.01144218444824
286,2950448847,-0.032824,-0.654997,0.203645,-0.726938,9.76993656158447,-2.54331541061401,0.59739458560944,2.80337429046631,3.19970536231995,1.95346808433533
287,2950465514,-0.032776,-0.654993,0.203750,-0.726914,9.75662040710449,-2.56701803207397,0.57880455255508,2.75482559204102,3.22994089126587,1.96357226371765
288,2950482181,-0.032723,-0.655007,0.203812,-0.726886,9.75666522979736,-2.60086679458618,0.55051320791245,2.92920970916748,3.13703083992004,1.75933670997620
289,2950498848,-0.032670,-0.655020,0.203836,-0.726871,9.76669979095459,-2.59843325614929,0.59832030534744,3.17122387886047,3.20218944549561,1.60431563854218
290,2950515515,-0.032646,-0.655024,0.203822,-0.726872,9.75999546051025,-2.60606074333191,0.56902039051056,3.28754353523254,3.35370111465454,1.30117630958557
291,2950532182,-0.032628,-0.655025,0.203761,-0.726889,9.76132011413574,-2.61988878250122,0.58132457733154,3.51306366920471,3.47089242935181,1.06845939159393
292,2950548849,-0.032630,-0.655029,0.203647,-0.726917,9.74381732940674,-2.61736369132996,0.58096939325333,3.62780857086182,3.55584955215454,0.72474980354309
293,2950565516,-0.032641,-0.655020,0.203512,-0.726963,9.73959732055664,-2.57364082336426,0.61301052570343,3.70519828796387,3.72637963294983,0.60877555608749
294,2950582183,-0.032680,-0.655014,0.203385,-0.727002,9.75463104248047,-2.54992198944092,0.60290217399597,3.60282373428345,3.69995999336243,0.49993437528610
295,2950598850,-0.032731,-0.654998,0.203271,-0.727046,9.77517986297607,-2.54694867134094,0.59006631374359,3.50649404525757,3.77926969528198,0.50937265157700
296,2950615517,-0.032774,-0.655004,0.203137,-0.727076,9.74602031707764,-2.54091978073120,0.57861518859863,3.67201566696167,3.58575248718262,0.43601778149605
297,2950632184,-0.032802,-0.655010,0.202999,-0.727108,9.72614955902100,-2.51789498329163,0.58441990613937,3.69137954711914,3.59438443183899,0.48456674814224
298,2950648851,-0.032828,-0.655023,0.202862,-0.727133,9.66835117340088,-2.50539255142212,0.59532964229584,3.66396164894104,3.53378462791443,0.48620596528053
299,2950665518,-0.032851,-0.655020,0.202739,-0.727170,9.70501613616943,-2.52790617942810,0.59487122297287,3.81854653358459,3.60850977897644,0.60437017679214
300,2950682185,-0.032865,-0.655016,0.202592,-0.727214,9.84360980987549,-2.55054807662964,0.56565105915070,3.92979502677917,3.64668488502502,0.54549938440323
301,2950698852,-0.032879,-0.655050,0.202417,-0.727231,9.87991619110107,-2.53864789009094,0.54263281822205,3.80159068107605,3.41318702697754,0.33568006753922
302,2950715519,-0.032996,-0.655113,0.202340,-0.727190,9.83890342712402,-2.48002123832703,0.61739373207092,2.96076440811157,3.07059168815613,0.22178037464619
303,2950732186,-0.033178,-0.655189,0.202408,-0.727094,9.77334499359131,-2.52727699279785,0.64231723546982,1.79276072978973,2.83967971801758,0.51916939020157
304,2950748853,-0.033309,-0.655250,0.202392,-0.727038,9.73246383666992,-2.59856605529785,0.61911225318909,2.47179245948792,3.04323744773865,0.42326274514198
305,2950765520,-0.033304,-0.655309,0.202197,-0.727039,9.73920249938965,-2.63171195983887,0.62735712528229,4.07103633880615,3.16806030273438,0.31515148282051
306,2950782187,-0.033158,-0.655367,0.201871,-0.727084,9.78325653076172,-2.56813645362854,0.64302563667297,5.41758632659912,3.19924449920654,0.43577450513840
307,2950798854,-0.032981,-0.655391,0.201533,-0.727164,9.80643463134766,-2.51551294326782,0.65903371572495,5.77251338958740,3.46167135238647,0.60200095176697
308,2950815521,-0.032829,-0.655386,0.201278,-0.727246,9.80473613739014,-2.47830033302307,0.63180500268936,5.11580467224121,3.65789127349854,0.88138437271118
309,2950832188,-0.032770,-0.655362,0.201127,-0.727313,9.79706382751465,-2.47295427322388,0.59147030115128,4.20844841003418,3.78071641921997,0.91893249750137
310,2950848855,-0.032817,-0.655309,0.201118,-0.727361,9.78902435302734,-2.48720502853394,0.57977312803268,3.02746009826660,3.93979740142822,1.06200504302979
311,2950865522,-0.032892,-0.655248,0.201162,-0.727400,9.78484630584717,-2.50657320022583,0.57347214221954,2.57494688034058,3.98831963539124,1.16113889217377
312,2950882189,-0.032950,-0.655200,0.201193,-0.727432,9.75645542144775,-2.52218794822693,0.57723039388657,2.60870456695557,3.89169573783875,1.16576194763184
313,2950898856,-0.033010,-0.655186,0.201208,-0.727438,9.75116634368896,-2.50621128082275,0.58874922990799,2.82761669158936,3.56550598144531,1.04175829887390
314,2950915523,-0.033038,-0.655200,0.201141,-0.727442,9.67996978759766,-2.50546646118164,0.57817304134369,3.35619854927063,3.39807558059692,0.79410898685455
315,2950932190,-0.033002,-0.655222,0.201002,-0.727462,9.67749309539795,-2.50793099403381,0.56445741653442,3.85366153717041,3.39867734909058,0.77231258153915
316,2950948857,-0.032901,-0.655258,0.200795,-0.727492,9.74925327301025,-2.51707315444946,0.54843991994858,4.50444173812866,3.30779075622559,0.76812481880188
317,2950965524,-0.032807,-0.655306,0.200554,-0.727519,9.79569149017334,-2.48876667022705,0.55536007881165,4.57424926757812,3.26108598709106,0.56737256050110
318,2950982191,-0.032833,-0.655350,0.200469,-0.727502,9.78166675567627,-2.45698618888855,0.58797365427017,3.35167813301086,3.18112325668335,0.66572540998459
319,2950998858,-0.032960,-0.655413,0.200508,-0.727429,9.78790187835693,-2.45541310310364,0.58838242292404,2.29684472084045,2.91163921356201,0.68771380186081
320,2951015525,-0.033157,-0.655500,0.200613,-0.727312,9.76924610137939,-2.47560954093933,0.60141760110855,1.64357960224152,2.66888141632080,0.60084819793701
321,2951032192,-0.033362,-0.655591,0.200714,-0.727193,9.75978755950928,-2.52365112304688,0.57611244916916,1.56450068950653,2.66173601150513,0.53095126152039
322,2951048859,-0.033477,-0.655653,0.200745,-0.727124,9.75320243835449,-2.54069328308105,0.62622243165970,2.34424138069153,2.93700885772705,0.71397972106934
323,2951065526,-0.033538,-0.655701,0.200693,-0.727092,9.75288581848145,-2.53972601890564,0.62587940692902,3.11178946495056,3.10333728790283,0.64248180389404
324,2951082193,-0.033533,-0.655758,0.200585,-0.727070,9.74654579162598,-2.50891923904419,0.60151112079620,3.57609701156616,3.05394339561462,0.69881701469421
325,2951098860,-0.033526,-0.655815,0.200478,-0.727049,9.77359104156494,-2.49784874916077,0.60639631748199,3.58667540550232,3.05813145637512,0.71344196796417
326,2951115527,-0.033568,-0.655864,0.200385,-0.727029,9.81342029571533,-2.49729990959167,0.61131995916367,3.35236978530884,3.15253949165344,0.54986631870270
327,2951132194,-0.033608,-0.655898,0.200340,-0.727008,9.82124805450439,-2.48511481285095,0.60186880826950,3.03026390075684,3.23531913757324,0.79017728567123
328,2951148861,-0.033690,-0.655941,0.200342,-0.726965,9.80461978912354,-2.46456384658813,0.61701679229736,2.64588141441345,3.10898447036743,0.77935594320297
329,2951165528,-0.033776,-0.655981,0.200374,-0.726916,9.80425167083740,-2.47907829284668,0.60367763042450,2.56379270553589,3.07837724685669,0.90118277072906
330,2951182195,-0.033835,-0.656020,0.200392,-0.726873,9.78774929046631,-2.49173688888550,0.61243796348572,2.70936250686646,3.09505128860474,0.97202748060226
331,2951198862,-0.033893,-0.656056,0.200384,-0.726840,9.78849506378174,-2.51308584213257,0.57697564363480,2.83583855628967,3.15928816795349,0.86877000331879
332,2951215529,-0.033916,-0.656101,0.200342,-0.726810,9.79928493499756,-2.49767136573792,0.58698242902756,3.20820879936218,3.08184862136841,0.88347178697586
333,2951232196,-0.033893,-0.656162,0.200250,-0.726782,9.80608272552490,-2.49733328819275,0.58784347772598,3.35648059844971,3.03292822837830,0.84334939718246
334,2951248863,-0.033875,-0.656209,0.200177,-0.726759,9.79724597930908,-2.48009848594666,0.58265697956085,3.31448864936829,3.11554193496704,0.92710298299789
335,2951265530,-0.033901,-0.656239,0.200162,-0.726736,9.77347087860107,-2.45463323593140,0.58857876062393,3.11428689956665,3.17382383346558,1.00547790527344
336,2951282197,-0.033921,-0.656253,0.200157,-0.726724,9.77731323242188,-2.46585321426392,0.59550374746323,2.97181630134583,3.31728053092957,1.10838973522186
337,2951298864,-0.033953,-0.656265,0.200164,-0.726709,9.76773834228516,-2.48920989036560,0.61098676919937,2.97047162055969,3.30475568771362,1.10257565975189
338,2951315531,-0.033985,-0.656260,0.200188,-0.726706,9.79223632812500,-2.49098658561707,0.56359124183655,3.05635142326355,3.39215970039368,1.21997165679932
339,2951332198,-0.033963,-0.656273,0.200152,-0.726705,9.78658866882324,-2.48672127723694,0.55908739566803,3.21105170249939,3.35989975929260,1.16848981380463
340,2951348865,-0.033952,-0.656290,0.200146,-0.726691,9.78732204437256,-2.44777369499207,0.56188970804214,3.11541390419006,3.25415802001953,1.24831199645996
341,2951365532,-0.033944,-0.656319,0.200127,-0.726671,9.77281093597412,-2.46403717994690,0.55395901203156,3.01674079895020,3.21937608718872,1.14869129657745
342,2951382199,-0.033956,-0.656341,0.200130,-0.726650,9.77587318420410,-2.47944426536560,0.55916160345078,2.94526839256287,3.22538161277771,1.16577494144440
343,2951398866,-0.033936,-0.656355,0.200123,-0.726640,9.77845191955566,-2.48159551620483,0.57089138031006,3.10087895393372,3.29672646522522,1.28889536857605
344,2951415533,-0.033930,-0.656358,0.200130,-0.726636,9.77558231353760,-2.46010518074036,0.59708809852600,3.09847116470337,3.36039924621582,1.31379079818726
345,2951432200,-0.033926,-0.656355,0.200144,-0.726635,9.78482818603516,-2.47911190986633,0.57754510641098,3.11620783805847,3.39612889289856,1.33463954925537
346,2951448867,-0.033911,-0.656355,0.200168,-0.726629,9.78204822540283,-2.47663044929504,0.57113188505173,2.99041104316711,3.36074542999268,1.42972671985626
347,2951465534,-0.033911,-0.656365,0.200203,-0.726610,9.77282238006592,-2.48371410369873,0.58258676528931,2.85013008117676,3.27783679962158,1.38892555236816
348,2951482201,-0.033870,-0.656363,0.200194,-0.726616,9.77628040313721,-2.50597429275513,0.56410706043243,2.74317145347595,3.54151940345764,1.38645398616791
349,2951498868,-0.033875,-0.656360,0.200188,-0.726621,9.74272632598877,-2.50754165649414,0.56094557046890,2.84676218032837,3.52402591705322,1.18467712402344
350,2951515535,-0.033859,-0.656355,0.200144,-0.726638,9.70559883117676,-2.49572610855103,0.57732611894608,2.87990522384644,3.63002443313599,1.11285924911499
351,2951532202,-0.033842,-0.656321,0.200094,-0.726683,9.71927165985107,-2.52692985534668,0.58499193191528,3.45727944374084,3.77628517150879,1.16933500766754
352,2951548869,-0.033741,-0.656287,0.199944,-0.726760,9.76959323883057,-2.50226950645447,0.54895651340485,4.21449327468872,3.86149883270264,1.12740707397461
353,2951565536,-0.033662,-0.656262,0.199774,-0.726833,9.84029293060303,-2.45977067947388,0.56557989120483,4.37417507171631,3.80438256263733,0.92774319648743
354,2951582203,-0.033660,-0.656246,0.199664,-0.726878,9.86761569976807,-2.42828679084778,0.54079639911652,3.84924316406250,3.67225980758667,0.80343198776245
355,2951598870,-0.033802,-0.656242,0.199732,-0.726856,9.80279636383057,-2.41444635391235,0.61128860712051,2.55892658233643,3.38400077819824,0.87407183647156
356,2951615537,-0.033973,-0.656261,0.199897,-0.726786,9.74129867553711,-2.44976925849915,0.60293060541153,1.15353202819824,3.26268696784973,1.07998514175415
357,2951632204,-0.034100,-0.656246,0.200025,-0.726758,9.72914314270020,-2.54773855209351,0.59521943330765,1.62433159351349,3.55674576759338,1.19800829887390
358,2951648871,-0.034106,-0.656202,0.199957,-0.726816,9.74042510986328,-2.57469677925110,0.59716439247131,3.29734063148499,3.95967292785645,0.97611290216446
359,2951665538,-0.034030,-0.656176,0.199759,-0.726898,9.75761985778809,-2.50473356246948,0.60793232917786,4.63498926162720,3.82068443298340,0.79725933074951
360,2951682205,-0.033854,-0.656170,0.199512,-0.726979,9.80548858642578,-2.44710636138916,0.59897869825363,4.95500802993774,3.69363355636597,1.02681326866150
361,2951698872,-0.033747,-0.656161,0.199356,-0.727035,9.81790542602539,-2.41810894012451,0.60107982158661,4.50449323654175,3.56873321533203,1.11042594909668
362,2951715539,-0.033668,-0.656168,0.199287,-0.727051,9.80838298797607,-2.41031789779663,0.57506680488586,3.45680546760559,3.44732856750488,1.30757963657379
363,2951732206,-0.033686,-0.656153,0.199355,-0.727045,9.81252384185791,-2.40978813171387,0.58107012510300,2.49874949455261,3.50897860527039,1.47781431674957
364,2951748873,-0.033755,-0.656117,0.199529,-0.727027,9.78152942657471,-2.44103121757507,0.57198899984360,1.87222445011139,3.56317496299744,1.73533737659454
365,2951765540,-0.033849,-0.656079,0.199734,-0.727001,9.77426433563232,-2.49889492988586,0.59656435251236,1.62790489196777,3.55333971977234,1.75012862682343
366,2951782207,-0.033944,-0.656058,0.199906,-0.726968,9.76919841766357,-2.51408052444458,0.57672041654587,1.83143603801727,3.43219113349915,1.57696104049683
367,2951798874,-0.034025,-0.656064,0.200022,-0.726927,9.70570850372314,-2.52975678443909,0.60268825292587,2.28210425376892,3.22725129127502,1.36198067665100
368,2951815541,-0.034003,-0.656071,0.200015,-0.726923,9.72679615020752,-2.53486633300781,0.59126567840576,3.20843958854675,3.33640050888062,1.31824743747711
369,2951832208,-0.033892,-0.656069,0.199909,-0.726960,9.78742218017578,-2.54627180099487,0.57353115081787,4.21072864532471,3.44319272041321,1.33399915695190
370,2951848875,-0.033791,-0.656075,0.199751,-0.727002,9.80706310272217,-2.48632001876831,0.58646363019943,4.56209611892700,3.42508411407471,1.05758678913116
371,2951865542,-0.033750,-0.656084,0.199658,-0.727021,9.79756736755371,-2.43281674385071,0.61358457803726,3.71101164817810,3.42815756797791,1.02176761627197
372,2951882209,-0.033769,-0.656085,0.199673,-0.727015,9.80736160278320,-2.44284725189209,0.58890968561172,2.90854001045227,3.40059828758240,1.21368348598480
373,2951898876,-0.033875,-0.656086,0.199786,-0.726978,9.78193473815918,-2.45588111877441,0.61020207405090,1.92762470245361,3.37501168251038,1.22294259071350
374,2951915543,-0.033972,-0.656101,0.199896,-0.726930,9.77619457244873,-2.49877715110779,0.61383289098740,1.74107456207275,3.29868555068970,1.20817685127258
375,2951932210,-0.033936,-0.656116,0.199867,-0.726926,9.75442600250244,-2.53933620452881,0.62494146823883,2.43633151054382,3.52928948402405,1.21940791606903
376,2951948877,-0.033906,-0.656104,0.199793,-0.726959,9.74052715301514,-2.53444814682007,0.59807121753693,3.33518338203430,3.67470550537109,1.07292878627777
377,2951965544,-0.033890,-0.656066,0.199715,-0.727015,9.77407741546631,-2.51911354064941,0.57760500907898,3.99018979072571,3.74790668487549,1.06228673458099
378,2951982211,-0.033831,-0.656053,0.199571,-0.727069,9.77453517913818,-2.49504709243774,0.59920620918274,4.14988517761230,3.66863560676575,0.93036854267120
379,2951998878,-0.033807,-0.656038,0.199468,-0.727113,9.78681945800781,-2.44038200378418,0.58131021261215,3.65617513656616,3.70198345184326,0.92733353376389
380,2952015545,-0.033842,-0.656015,0.199453,-0.727135,9.78166484832764,-2.42979431152344,0.59101855754852,3.05947542190552,3.66837859153748,1.04216790199280
381,2952032212,-0.033904,-0.655985,0.199499,-0.727147,9.80661964416504,-2.44281506538391,0.57657390832901,2.48505949974060,3.71028184890747,1.18694388866425
382,2952048879,-0.034057,-0.655945,0.199594,-0.727150,9.78836441040039,-2.45519113540649,0.56727635860443,2.28314161300659,3.71963024139404,0.99318367242813
383,2952065546,-0.034162,-0.655926,0.199633,-0.727152,9.77513980865479,-2.48153567314148,0.58150595426559,2.36228513717651,3.65703272819519,0.92354273796082
384,2952082213,-0.034257,-0.655912,0.199658,-0.727153,9.77959060668945,-2.49748468399048,0.59966468811035,2.59748673439026,3.59444808959961,0.91222190856934
385,2952098880,-0.034315,-0.655911,0.199649,-0.727154,9.79426479339600,-2.49661660194397,0.61055767536163,2.94428253173828,3.47979283332825,0.91996991634369
386,2952115547,-0.034382,-0.655926,0.199642,-0.727139,9.78478717803955,-2.48767685890198,0.59746497869492,3.04690003395081,3.29448533058167,0.87025552988052
387,2952132214,-0.034344,-0.655981,0.199533,-0.727121,9.80197238922119,-2.47116422653198,0.58847284317017,3.12460899353027,3.20064020156860,0.83145236968994
388,2952148881,-0.034358,-0.655997,0.199487,-0.727118,9.79985904693604,-2.47680306434631,0.63856393098831,3.22480583190918,3.35613489151001,0.94746506214142
389,2952165548,-0.034340,-0.655983,0.199425,-0.727149,9.78355789184570,-2.45943284034729,0.61641323566437,3.27316188812256,3.67457699775696,1.07137918472290
390,2952182215,-0.034391,-0.655929,0.199453,-0.727187,9.77728176116943,-2.46076416969299,0.62202918529510,2.98738861083984,3.85345649719238,1.21889567375183
391,2952198882,-0.034427,-0.655888,0.199480,-0.727216,9.75412654876709,-2.46929812431335,0.62176209688187,2.77753067016602,3.79781222343445,1.25270438194275
392,2952215549,-0.034485,-0.655854,0.199523,-0.727231,9.78984355926514,-2.47492170333862,0.59840184450150,2.62948966026306,3.71421289443970,1.19804692268372
393,2952232216,-0.034604,-0.655821,0.199613,-0.727231,9.78342056274414,-2.48334169387817,0.58977979421616,2.66186404228210,3.56650495529175,1.13652527332306
394,2952248883,-0.034625,-0.655805,0.199613,-0.727244,9.78853893280029,-2.47706794738770,0.59317088127136,2.85589313507080,3.61917734146118,1.16551887989044
395,2952265550,-0.034690,-0.655788,0.199614,-0.727256,9.77421188354492,-2.48076462745667,0.60016453266144,3.10706424713135,3.55460786819458,0.97526764869690
396,2952282217,-0.034714,-0.655789,0.199581,-0.727263,9.75749778747559,-2.47494149208069,0.60269498825073,3.25593733787537,3.45172095298767,0.98437285423279
397,2952298884,-0.034738,-0.655814,0.199545,-0.727249,9.75377559661865,-2.45668315887451,0.60949468612671,3.14693021774292,3.25606608390808,0.92737191915512
398,2952315551,-0.034734,-0.655858,0.199502,-0.727221,9.75139904022217,-2.45214796066284,0.60424727201462,3.01353931427002,3.14454817771912,0.98899602890015
399,2952332218,-0.034809,-0.655890,0.199534,-0.727180,9.76383495330811,-2.45912861824036,0.59591692686081,2.47344398498535,3.17616677284241,0.96162873506546
400,2952348885,-0.034914,-0.655936,0.199575,-0.727123,9.74644947052002,-2.46760296821594,0.59865039587021,2.18119049072266,3.09688282012939,0.82730305194855
401,2952365552,-0.034977,-0.656013,0.199585,-0.727048,9.74520969390869,-2.46092176437378,0.59466356039047,2.09172511100769,2.91578841209412,0.81952959299088
402,2952382219,-0.035083,-0.656066,0.199638,-0.726980,9.73465156555176,-2.45760440826416,0.58063566684723,2.43943071365356,2.92883777618408,0.88213986158371
403,2952398886,-0.035092,-0.656124,0.199602,-0.726937,9.69524097442627,-2.45988535881042,0.61147516965866,3.02234983444214,2.98063945770264,0.94249624013901
404,2952415553,-0.035055,-0.656166,0.199534,-0.726919,9.76907920837402,-2.47988891601562,0.58651733398438,3.60348916053772,3.08106708526611,1.06347763538361
405,2952432220,-0.035011,-0.656207,0.199446,-0.726909,9.89029979705811,-2.48217105865479,0.54544705152512,3.93370103836060,3.06507158279419,1.02927184104919
406,2952448887,-0.035028,-0.656255,0.199380,-0.726883,9.88738918304443,-2.42962670326233,0.58349376916885,3.45475649833679,3.05184316635132,0.80236917734146
407,2952465554,-0.035130,-0.656332,0.199444,-0.726790,9.82563114166260,-2.40626430511475,0.62107610702515,1.93743419647217,2.80177307128906,0.88065421581268
408,2952482221,-0.035313,-0.656381,0.199604,-0.726694,9.77281856536865,-2.47409582138062,0.57157826423645,1.33248794078827,2.94283533096313,0.97223240137100
409,2952498888,-0.035454,-0.656417,0.199697,-0.726629,9.74869060516357,-2.51957035064697,0.59052187204361,2.25070357322693,3.01884126663208,0.91512912511826
410,2952515555,-0.035430,-0.656482,0.199609,-0.726596,9.75621795654297,-2.49605774879456,0.59728896617889,3.42422628402710,2.97090697288513,0.86408299207687
411,2952532222,-0.035378,-0.656493,0.199501,-0.726618,9.78649711608887,-2.46410846710205,0.62227869033813,4.35006141662598,3.29170608520508,1.03579044342041
412,2952548889,-0.035215,-0.656528,0.199317,-0.726645,9.80152702331543,-2.41454339027405,0.59591138362885,4.15005159378052,3.33935856819153,1.15629816055298
413,2952565556,-0.035198,-0.656545,0.199297,-0.726635,9.80218124389648,-2.40137648582458,0.57927536964417,3.35941314697266,3.23117041587830,1.22517085075378
414,2952582223,-0.035217,-0.656567,0.199364,-0.726596,9.78905963897705,-2.41325044631958,0.57235121726990,2.42791748046875,3.18728280067444,1.40484380722046
415,2952598890,-0.035294,-0.656565,0.199497,-0.726558,9.78125381469727,-2.42384982109070,0.58321398496628,2.02003502845764,3.31811237335205,1.46170389652252
416,2952615557,-0.035362,-0.656562,0.199655,-0.726514,9.77531433105469,-2.45939874649048,0.57596921920776,1.99841797351837,3.25963854789734,1.61480379104614
417,2952632224,-0.035437,-0.656585,0.199794,-0.726451,9.79020118713379,-2.46171784400940,0.55869781970978,2.26050019264221,3.00634264945984,1.47376775741577
418,2952648891,-0.035446,-0.656648,0.199852,-0.726378,9.80681514739990,-2.47610735893250,0.57676076889038,2.68997335433960,2.76131796836853,1.36431157588959
419,2952665558,-0.035447,-0.656723,0.199886,-0.726300,9.77270126342773,-2.47826886177063,0.57572829723358,3.03894639015198,2.61467218399048,1.28901028633118
420,2952682225,-0.035415,-0.656795,0.199882,-0.726238,9.74987030029297,-2.46857953071594,0.58049005270004,3.40696310997009,2.67066192626953,1.28520679473877
421,2952698892,-0.035359,-0.656839,0.199860,-0.726207,9.77795028686523,-2.47638607025146,0.55042713880539,3.48471045494080,2.96289014816284,1.36533629894257
422,2952715559,-0.035226,-0.656890,0.199751,-0.726198,9.80373001098633,-2.48133373260498,0.56749880313873,3.58965802192688,3.11760306358337,1.31198477745056
423,2952732226,-0.035249,-0.656901,0.199784,-0.726177,9.80259704589844,-2.44769167900085,0.58877736330032,2.84065365791321,3.27126717567444,1.26528024673462
424,2952748893,-0.035287,-0.656913,0.199831,-0.726152,9.80607223510742,-2.46287846565247,0.56985604763031,2.40915632247925,3.34028029441833,1.23632514476776
425,2952765560,-0.035376,-0.656938,0.199896,-0.726107,9.79969787597656,-2.50004696846008,0.55497014522552,2.32920598983765,3.18137884140015,1.05493581295013
426,2952782227,-0.035415,-0.656992,0.199908,-0.726053,9.78594589233398,-2.48888587951660,0.57744413614273,2.55765891075134,3.00238513946533,1.00668179988861
427,2952798894,-0.035422,-0.657020,0.199886,-0.726034,9.79220199584961,-2.49826216697693,0.57047277688980,3.18673229217529,3.18666839599609,1.07577192783356
428,2952815561,-0.035334,-0.657034,0.199776,-0.726055,9.76779174804688,-2.48024106025696,0.56501370668411,3.87536859512329,3.38867616653442,1.16735017299652
429,2952832228,-0.035290,-0.657040,0.199694,-0.726074,9.77575302124023,-2.43439531326294,0.56747215986252,3.76943469047546,3.41469836235046,1.09973263740540
430,2952848895,-0.035285,-0.657037,0.199665,-0.726085,9.78357315063477,-2.41500568389893,0.55213761329651,3.23834156990051,3.47552800178528,1.14573287963867
431,2952865562,-0.035362,-0.657027,0.199731,-0.726073,9.81298637390137,-2.43224763870239,0.54969418048859,2.65054321289062,3.43160247802734,1.18518936634064
432,2952882229,-0.035482,-0.657018,0.199850,-0.726042,9.79878807067871,-2.44055485725403,0.54230844974518,2.19993901252747,3.37599730491638,1.20743405818939
433,2952898896,-0.035581,-0.657032,0.199939,-0.726000,9.79478168487549,-2.45147800445557,0.54261016845703,2.19723653793335,3.24448871612549,1.13287520408630
434,2952915563,-0.035635,-0.657067,0.199982,-0.725953,9.78606891632080,-2.47055339813232,0.55784767866135,2.55841398239136,3.09088921546936,1.11559951305389
435,2952932230,-0.035669,-0.657127,0.199979,-0.725899,9.78805351257324,-2.46553707122803,0.55824583768845,2.92983651161194,2.90161156654358,0.96826243400574
436,2952948897,-0.035664,-0.657202,0.199937,-0.725843,9.75725460052490,-2.47028946876526,0.56426823139191,3.07780098915100,2.83135557174683,0.96141105890274
437,2952965564,-0.035665,-0.657291,0.199897,-0.725773,9.75774669647217,-2.45084023475647,0.57322490215302,3.15297436714172,2.67661666870117,0.91790783405304
438,2952982231,-0.035677,-0.657382,0.199868,-0.725698,9.76206874847412,-2.43292570114136,0.59128355979919,3.03285074234009,2.65747117996216,0.91309267282486
439,2952998898,-0.035694,-0.657480,0.199850,-0.725614,9.76750850677490,-2.43758440017700,0.54998457431793,2.98857951164246,2.57320570945740,0.92148101329803
440,2953015565,-0.035727,-0.657574,0.199867,-0.725522,9.78283977508545,-2.43601250648499,0.56272804737091,2.78229498863220,2.55908036231995,1.01136887073517
441,2953032232,-0.035743,-0.657694,0.199878,-0.725410,9.78414821624756,-2.45220613479614,0.53025853633881,2.66301655769348,2.36384749412537,1.01734924316406
442,2953048899,-0.035772,-0.657840,0.199926,-0.725263,9.79956912994385,-2.43817710876465,0.51010930538177,2.48327922821045,2.05859494209290,1.08600401878357
443,2953065566,-0.035839,-0.657989,0.199993,-0.725105,9.80338287353516,-2.45189785957336,0.49892827868462,2.34196114540100,2.00567889213562,0.97478079795837
444,2953082233,-0.035963,-0.658118,0.200102,-0.724952,9.80367660522461,-2.45264196395874,0.51445382833481,2.43120861053467,2.06166839599609,0.94339257478714
445,2953098900,-0.036010,-0.658267,0.200140,-0.724804,9.79471683502197,-2.46329402923584,0.54061335325241,2.56778836250305,2.03239321708679,0.94775950908661
446,2953115567,-0.036070,-0.658397,0.200154,-0.724679,9.79152965545654,-2.45595359802246,0.54642152786255,2.84939980506897,2.21916103363037,0.81567478179932
447,2953132234,-0.036101,-0.658502,0.200165,-0.724579,9.78809452056885,-2.47327494621277,0.53421068191528,2.96990823745728,2.41748070716858,0.98370712995529
448,2953148901,-0.036104,-0.658598,0.200135,-0.724500,9.78722190856934,-2.44698834419250,0.54087883234024,3.07643079757690,2.60079026222229,0.94316202402115
449,2953165568,-0.036108,-0.658679,0.200122,-0.724429,9.81651782989502,-2.45546507835388,0.53530931472778,2.97663116455078,2.71212887763977,1.03600811958313
450,2953182235,-0.036123,-0.658738,0.200136,-0.724371,9.82553577423096,-2.44714879989624,0.54770553112030,2.86440896987915,2.87725377082825,1.14013648033142
451,2953198902,-0.036183,-0.658771,0.200200,-0.724321,9.82340431213379,-2.43965792655945,0.51575863361359,2.77121734619141,2.99523854255676,1.20127391815186
452,2953215569,-0.036201,-0.658788,0.200241,-0.724293,9.81594371795654,-2.44356179237366,0.52838069200516,2.74429821968079,3.21559786796570,1.31128060817719
453,2953232236,-0.036248,-0.658799,0.200291,-0.724267,9.81650543212891,-2.45969843864441,0.53001248836517,2.91225385665894,3.21018052101135,1.24096095561981
454,2953248903,-0.036266,-0.658803,0.200297,-0.724260,9.80072879791260,-2.47651624679565,0.52758669853210,3.08989143371582,3.35048770904541,1.18355035781860
455,2953265570,-0.036298,-0.658816,0.200287,-0.724250,9.80199241638184,-2.47534132003784,0.52798795700073,3.03210854530334,3.33221268653870,1.02475142478943
456,2953282237,-0.036309,-0.658843,0.200274,-0.724228,9.78888893127441,-2.45468807220459,0.52977043390274,3.09825301170349,3.19079184532166,1.09208714962006
457,2953298904,-0.036309,-0.658866,0.200258,-0.724211,9.77128314971924,-2.43630456924438,0.55135738849640,3.10607790946960,3.23268151283264,1.13892006874084
458,2953315571,-0.036289,-0.658890,0.200212,-0.724204,9.73954582214355,-2.44641470909119,0.53064781427383,3.18139195442200,3.30017089843750,1.09454607963562
459,2953332238,-0.036276,-0.658906,0.200158,-0.724204,9.72669601440430,-2.43599390983582,0.52542412281036,3.26560688018799,3.36310172080994,1.03822374343872
460,2953348905,-0.036278,-0.658889,0.200130,-0.724227,9.83349323272705,-2.45599508285522,0.49374172091484,3.21937537193298,3.61337542533875,1.14148104190826
461,2953365572,-0.036285,-0.658857,0.200087,-0.724268,9.88657569885254,-2.49988150596619,0.49354851245880,3.29266691207886,3.78289389610291,1.07039332389832
462,2953382239,-0.036382,-0.658853,0.200091,-0.724266,9.84912967681885,-2.42063093185425,0.52498465776443,2.88712811470032,3.48973035812378,0.80017924308777
463,2953398906,-0.036554,-0.658866,0.200166,-0.724224,9.80966758728027,-2.43573570251465,0.54227852821350,2.00429630279541,3.33501720428467,0.71456879377365
464,2953415573,-0.036617,-0.658880,0.200141,-0.724216,9.75979232788086,-2.48743200302124,0.52642190456390,2.64410161972046,3.46638464927673,0.78178930282593
465,2953432240,-0.036555,-0.658895,0.200020,-0.724239,9.76149082183838,-2.49625945091248,0.55245828628540,3.78403329849243,3.44312882423401,0.98584574460983
466,2953448907,-0.036436,-0.658893,0.199852,-0.724293,9.78837871551514,-2.45334553718567,0.53782808780670,4.68593358993530,3.50001430511475,1.10652005672455
467,2953465574,-0.036280,-0.658861,0.199690,-0.724375,9.83222389221191,-2.39325547218323,0.53302896022797,4.75458860397339,3.75598764419556,1.36105895042419
468,2953482241,-0.036222,-0.658824,0.199634,-0.724427,9.82004261016846,-2.35040116310120,0.53601956367493,3.67318153381348,3.76429915428162,1.34296369552612
469,2953498908,-0.036282,-0.658786,0.199745,-0.724427,9.79927730560303,-2.36387968063354,0.53228235244751,2.41800570487976,3.61135244369507,1.50949728488922
470,2953515575,-0.036397,-0.658750,0.199932,-0.724402,9.78334617614746,-2.43121337890625,0.51544523239136,1.75861907005310,3.54422140121460,1.57838261127472
471,2953532242,-0.036514,-0.658703,0.200138,-0.724383,9.78461742401123,-2.46740174293518,0.49329853057861,2.01644945144653,3.53560280799866,1.68351006507874
472,2953548909,-0.036481,-0.658694,0.200194,-0.724377,9.78136539459229,-2.48688387870789,0.52047342061996,2.79440999031067,3.40652799606323,1.67332923412323
473,2953565576,-0.036415,-0.658697,0.200202,-0.724376,9.80146694183350,-2.46182417869568,0.51694631576538,3.39285016059875,3.27843809127808,1.60781157016754
474,2953582243,-0.036346,-0.658718,0.200153,-0.724373,9.81981754302979,-2.46398472785950,0.52305632829666,3.67133736610413,3.20379042625427,1.34347593784332
475,2953598910,-0.036306,-0.658763,0.200090,-0.724352,9.76947116851807,-2.45382189750671,0.56263262033463,3.79290819168091,2.99000120162964,1.10999035835266
476,2953615577,-0.036244,-0.658793,0.200031,-0.724344,9.73237133026123,-2.42756128311157,0.55022352933884,3.63044667243958,3.15630459785461,1.24681353569031
477,2953632244,-0.036147,-0.658778,0.199993,-0.724373,9.80037498474121,-2.46049022674561,0.51623052358627,3.52786779403687,3.54610395431519,1.57139050960541
478,2953648911,-0.036114,-0.658728,0.200004,-0.724417,9.82520103454590,-2.43234252929688,0.50729447603226,3.45415449142456,3.75430965423584,1.55908370018005
479,2953665578,-0.036166,-0.658670,0.200079,-0.724447,9.82016563415527,-2.42024683952332,0.54853844642639,2.66665339469910,3.84525990486145,1.42178642749786
480,2953682245,-0.036242,-0.658621,0.200145,-0.724470,9.80842494964600,-2.44732928276062,0.53193700313568,2.40166473388672,3.85072922706604,1.23717045783997
481,2953698912,-0.036319,-0.658605,0.200235,-0.724455,9.79559421539307,-2.46443915367126,0.50760257244110,2.45361995697021,3.46058320999146,1.30378901958466
482,2953715579,-0.036346,-0.658616,0.200238,-0.724442,9.78708744049072,-2.48284816741943,0.52620387077332,2.72182321548462,3.38423180580139,1.09736335277557
483,2953732246,-0.036331,-0.658609,0.200186,-0.724464,9.75149536132812,-2.49094462394714,0.52175450325012,3.61825513839722,3.49240708351135,1.11515128612518
484,2953748913,-0.036219,-0.658590,0.200062,-0.724521,9.76966857910156,-2.43647956848145,0.51500731706619,4.10767602920532,3.67995619773865,1.27415513992310
485,2953765580,-0.036155,-0.658546,0.199980,-0.724587,9.76824092864990,-2.41508316993713,0.52134603261948,3.79504656791687,3.88032388687134,1.26714992523193
486,2953782247,-0.036151,-0.658493,0.199951,-0.724643,9.77752017974854,-2.40196299552917,0.51402264833450,3.24156951904297,3.94385719299316,1.22412085533142
487,2953798914,-0.036200,-0.658455,0.199973,-0.724670,9.79603576660156,-2.41729426383972,0.50310009717941,2.45086693763733,3.87249994277954,1.14546418190002
488,2953815581,-0.036218,-0.658443,0.199989,-0.724675,9.79189968109131,-2.43591237068176,0.51559466123581,2.21631836891174,3.69219875335693,1.21104526519775
489,2953832248,-0.036322,-0.658415,0.200046,-0.724680,9.77605724334717,-2.47325944900513,0.52515870332718,2.53093194961548,3.65287113189697,1.03807008266449
490,2953848915,-0.036350,-0.658421,0.200016,-0.724681,9.79994869232178,-2.47202229499817,0.53970956802368,3.15999293327332,3.41314911842346,0.96740460395813
491,2953865582,-0.036426,-0.658402,0.200009,-0.724697,9.80120658874512,-2.45036888122559,0.53200644254684,3.56586432456970,3.48531246185303,0.91223472356796
492,2953882249,-0.036427,-0.658400,0.199953,-0.724714,9.79436302185059,-2.43930053710938,0.53969454765320,3.55401873588562,3.46553945541382,1.00244271755219
493,2953898916,-0.036455,-0.658398,0.199906,-0.724727,9.78280258178711,-2.42812395095825,0.53546565771103,3.22220540046692,3.52613854408264,0.90469175577164
494,2953915583,-0.036565,-0.658368,0.199963,-0.724733,9.76513481140137,-2.42046451568604,0.55053067207336,3.06252384185791,3.52382183074951,1.04160463809967
495,2953932250,-0.036552,-0.658367,0.199908,-0.724750,9.76837158203125,-2.44298386573792,0.56428956985474,2.90610694885254,3.62534952163696,1.04109239578247
496,2953948917,-0.036568,-0.658343,0.199883,-0.724778,9.77542877197266,-2.44568824768066,0.54571175575256,3.09665250778198,3.70846319198608,1.09029424190521
497,2953965584,-0.036579,-0.658317,0.199845,-0.724811,9.79356098175049,-2.44653701782227,0.54369980096817,3.27112650871277,3.71110129356384,1.06217157840729
498,2953982251,-0.036541,-0.658306,0.199754,-0.724848,9.80243778228760,-2.43446826934814,0.56227207183838,3.49822115898132,3.66330838203430,1.03904330730438
499,2953998918,-0.036537,-0.658281,0.199704,-0.724884,9.80108451843262,-2.43807959556580,0.52736538648605,3.40025258064270,3.70486450195312,1.08915448188782
500,2954015585,-0.036564,-0.658271,0.199669,-0.724902,9.80624198913574,-2.43185234069824,0.54628747701645,3.16808605194092,3.58585453033447,0.96725076436996
501,2954032252,-0.036581,-0.658278,0.199636,-0.724904,9.79363536834717,-2.43287849426270,0.51421409845352,3.18706560134888,3.40847420692444,1.00793671607971
502,2954048919,-0.036597,-0.658285,0.199612,-0.724904,9.79804801940918,-2.42544031143188,0.53688001632690,3.14179491996765,3.40118741989136,1.05411648750305
503,2954065586,-0.036619,-0.658284,0.199612,-0.724904,9.78098392486572,-2.42421555519104,0.54956561326981,2.99130773544312,3.44315385818481,1.13858711719513
504,2954082253,-0.036630,-0.658266,0.199619,-0.724917,9.78432846069336,-2.42663073539734,0.53222990036011,3.01980137825012,3.56752872467041,1.25540649890900
505,2954098920,-0.036645,-0.658252,0.199624,-0.724928,9.78407478332520,-2.43151187896729,0.53489249944687,3.00939011573792,3.55002331733704,1.21756398677826
506,2954115587,-0.036656,-0.658247,0.199628,-0.724931,9.78399562835693,-2.43346834182739,0.53644174337387,3.03194212913513,3.45717692375183,1.21906208992004
507,2954132254,-0.036625,-0.658258,0.199613,-0.724926,9.79757881164551,-2.43990159034729,0.52400529384613,3.30301403999329,3.29046344757080,1.32129514217377
508,2954148921,-0.036601,-0.658276,0.199596,-0.724916,9.79844856262207,-2.42426681518555,0.56721657514572,3.27784991264343,3.24010968208313,1.26229667663574
509,2954165588,-0.036591,-0.658291,0.199623,-0.724896,9.82382297515869,-2.41720938682556,0.54798674583435,3.03633475303650,3.21279335021973,1.39794123172760
510,2954182255,-0.036559,-0.658316,0.199630,-0.724872,9.80416965484619,-2.44031572341919,0.53262889385223,2.92576456069946,3.19405746459961,1.38605713844299
511,2954198922,-0.036594,-0.658317,0.199682,-0.724855,9.78019714355469,-2.43761610984802,0.54627430438995,2.73429656028748,3.33771896362305,1.31138324737549
512,2954215589,-0.036611,-0.658301,0.199710,-0.724861,9.74779510498047,-2.45056009292603,0.56280297040939,2.86036276817322,3.53242731094360,1.31285595893860
513,2954232256,-0.036586,-0.658308,0.199686,-0.724863,9.70769596099854,-2.43323612213135,0.57680058479309,3.21586632728577,3.38526868820190,1.24914407730103
514,2954248923,-0.036571,-0.658289,0.199690,-0.724880,9.78846168518066,-2.45245814323425,0.53477406501770,3.24624323844910,3.53428339958191,1.37763023376465
515,2954265590,-0.036563,-0.658261,0.199662,-0.724913,9.87689399719238,-2.47672700881958,0.48655769228935,3.45719003677368,3.64837598800659,1.21807610988617
516,2954282257,-0.036574,-0.658284,0.199613,-0.724905,9.87238121032715,-2.42721819877625,0.52265512943268,3.12503170967102,3.32424688339233,0.92741024494171
517,2954298924,-0.036741,-0.658315,0.199710,-0.724842,9.79731082916260,-2.40787482261658,0.56193870306015,2.08529686927795,3.09315657615662,0.81234538555145
518,2954315591,-0.036832,-0.658335,0.199739,-0.724811,9.76135540008545,-2.47233152389526,0.55352115631104,2.31828212738037,3.32811403274536,0.88448333740234
519,2954332258,-0.036824,-0.658342,0.199693,-0.724818,9.73350620269775,-2.48582863807678,0.56316816806793,3.18887114524841,3.45561456680298,1.06343936920166
520,2954348925,-0.036748,-0.658350,0.199570,-0.724849,9.74338912963867,-2.45695734024048,0.56977295875549,4.33769035339355,3.36965823173523,1.08020281791687
521,2954365592,-0.036587,-0.658353,0.199394,-0.724902,9.80061912536621,-2.41738176345825,0.54706060886383,4.71556758880615,3.47144341468811,1.26132321357727
522,2954382259,-0.036571,-0.658312,0.199372,-0.724946,9.83076286315918,-2.38548278808594,0.52717280387878,3.92992305755615,3.63499307632446,1.32727587223053
523,2954398926,-0.036627,-0.658282,0.199453,-0.724949,9.80331516265869,-2.35589766502380,0.52388828992844,2.71823763847351,3.55688691139221,1.39103865623474
524,2954415593,-0.036734,-0.658262,0.199605,-0.724919,9.79458808898926,-2.40032720565796,0.53670287132263,1.79830598831177,3.47843503952026,1.42074918746948
525,2954432260,-0.036910,-0.658219,0.199845,-0.724883,9.78688240051270,-2.45374536514282,0.53487467765808,1.71265709400177,3.46958565711975,1.54742968082428
526,2954448927,-0.036936,-0.658222,0.199908,-0.724862,9.79181671142578,-2.48975396156311,0.51777291297913,2.57428145408630,3.33418464660645,1.38797783851624
527,2954465594,-0.036914,-0.658250,0.199885,-0.724844,9.79824733734131,-2.47816944122314,0.54236716032028,3.30227208137512,3.15603590011597,1.21895980834961
528,2954482261,-0.036855,-0.658283,0.199817,-0.724836,9.81363773345947,-2.45470428466797,0.56086277961731,3.69524645805359,3.13610863685608,1.18494582176208
529,2954498928,-0.036846,-0.658319,0.199773,-0.724816,9.75957489013672,-2.43139600753784,0.56131273508072,3.77303242683411,3.02228546142578,1.06118524074554
530,2954515595,-0.036863,-0.658338,0.199759,-0.724802,9.72521972656250,-2.40983963012695,0.55438429117203,3.60999488830566,3.13788890838623,1.10330557823181
531,2954532262,-0.036810,-0.658321,0.199729,-0.724827,9.79068088531494,-2.43895673751831,0.50775808095932,3.44795656204224,3.55665683746338,1.39847910404205
532,2954548929,-0.036771,-0.658293,0.199696,-0.724865,9.82954120635986,-2.43056869506836,0.51492828130722,3.38505148887634,3.69646334648132,1.33360219001770
533,2954565596,-0.036840,-0.658262,0.199741,-0.724876,9.83815956115723,-2.40039515495300,0.53085392713547,2.69256091117859,3.66169476509094,1.16875886917114
534,2954582263,-0.036874,-0.658254,0.199751,-0.724880,9.82770347595215,-2.42787718772888,0.52457374334335,2.47758078575134,3.61173653602600,1.10773646831512
535,2954598930,-0.036913,-0.658285,0.199782,-0.724841,9.77646541595459,-2.44962525367737,0.53673893213272,2.33225393295288,3.22160363197327,1.12191295623779
536,2954615597,-0.036918,-0.658330,0.199775,-0.724801,9.77275085449219,-2.45718240737915,0.55381512641907,2.57078504562378,3.13703083992004,1.09708166122437
537,2954632264,-0.036939,-0.658342,0.199743,-0.724799,9.75457668304443,-2.45531797409058,0.52529907226562,3.49498081207275,3.28828620910645,0.99934345483780
538,2954648931,-0.036875,-0.658353,0.199625,-0.724824,9.74661350250244,-2.42012023925781,0.53136926889420,3.90133953094482,3.43111586570740,1.02224147319794
539,2954665598,-0.036853,-0.658358,0.199538,-0.724845,9.77568435668945,-2.41016721725464,0.52050191164017,3.53325915336609,3.50860714912415,0.95418834686279
540,2954682265,-0.036843,-0.658352,0.199505,-0.724860,9.79990100860596,-2.39309096336365,0.50856244564056,3.04825663566589,3.56556940078735,1.14601457118988
541,2954698932,-0.036963,-0.658319,0.199597,-0.724858,9.80321693420410,-2.41168832778931,0.53847384452820,2.52785849571228,3.59124684333801,1.13493728637695
542,2954715599,-0.037048,-0.658314,0.199679,-0.724836,9.81455612182617,-2.44107055664062,0.52847176790237,2.28658652305603,3.42256140708923,1.19926357269287
543,2954732266,-0.037136,-0.658321,0.199730,-0.724811,9.80142021179199,-2.44918727874756,0.54936307668686,2.57785439491272,3.31994366645813,1.03075754642487
544,2954748933,-0.037161,-0.658340,0.199723,-0.724794,9.79825210571289,-2.46249318122864,0.57375919818878,3.02223491668701,3.26734828948975,1.06614148616791
545,2954765600,-0.037146,-0.658358,0.199657,-0.724797,9.80073928833008,-2.45358800888062,0.55321538448334,3.49737596511841,3.32934379577637,1.00318539142609
546,2954782267,-0.037141,-0.658360,0.199598,-0.724811,9.79718494415283,-2.42693781852722,0.56642287969589,3.41869378089905,3.46652507781982,1.00472223758698
547,2954798934,-0.037154,-0.658357,0.199547,-0.724828,9.77574920654297,-2.42804980278015,0.56629532575607,3.35805535316467,3.51755881309509,0.96363937854767
548,2954815601,-0.037223,-0.658328,0.199562,-0.724847,9.79051017761230,-2.42981529235840,0.55138593912125,3.19161128997803,3.60847043991089,1.03952980041504
549,2954832268,-0.037203,-0.658319,0.199500,-0.724873,9.80154705047607,-2.43462514877319,0.56412464380264,3.20277833938599,3.64034605026245,1.06889486312866
550,2954848935,-0.037217,-0.658292,0.199470,-0.724905,9.79742336273193,-2.43611550331116,0.55244839191437,3.21279311180115,3.71291947364807,1.08565831184387
551,2954865602,-0.037230,-0.658266,0.199434,-0.724937,9.78509235382080,-2.42813539505005,0.55106717348099,3.25287675857544,3.70710539817810,1.07045710086823
552,2954882269,-0.037237,-0.658255,0.199394,-0.724958,9.78447723388672,-2.42618846893311,0.51115316152573,3.28534078598022,3.57420086860657,1.05306625366211
553,2954898936,-0.037256,-0.658248,0.199349,-0.724976,9.79591751098633,-2.42797279357910,0.52547007799149,3.25458025932312,3.56261157989502,0.96155202388763
554,2954915603,-0.037257,-0.658242,0.199287,-0.724998,9.79207706451416,-2.42946290969849,0.53433316946030,3.25363254547119,3.59908366203308,0.96520167589188
555,2954932270,-0.037337,-0.658218,0.199280,-0.725018,9.81333351135254,-2.43267655372620,0.53588700294495,3.26113677024841,3.60989212989807,0.88846600055695
556,2954948937,-0.037387,-0.658196,0.199264,-0.725040,9.79723262786865,-2.41996955871582,0.54157233238220,3.28573799133301,3.60300254821777,0.97631758451462
557,2954965604,-0.037379,-0.658201,0.199216,-0.725049,9.79378986358643,-2.41711878776550,0.54893535375595,3.30188679695129,3.44297409057617,1.06229948997498
558,2954982271,-0.037428,-0.658195,0.199221,-0.725051,9.80229091644287,-2.40765070915222,0.55993771553040,3.18815422058105,3.42997622489929,1.04794371128082
559,2954998938,-0.037489,-0.658165,0.199246,-0.725067,9.79630565643311,-2.40967512130737,0.56365764141083,3.07681512832642,3.60982799530029,1.12556278705597
560,2955015605,-0.037504,-0.658134,0.199238,-0.725097,9.78250885009766,-2.42327284812927,0.55113929510117,2.95880460739136,3.75375843048096,1.18014359474182
561,2955032272,-0.037536,-0.658099,0.199254,-0.725123,9.79229927062988,-2.42178821563721,0.56562441587448,2.89414548873901,3.73558664321899,1.21573245525360
562,2955048939,-0.037556,-0.658071,0.199255,-0.725147,9.80265903472900,-2.43774914741516,0.55124711990356,3.02815127372742,3.68790864944458,1.19670224189758
563,2955065606,-0.037554,-0.658060,0.199218,-0.725168,9.79951095581055,-2.42722892761230,0.54460901021957,3.30836677551270,3.56026744842529,1.11136054992676
564,2955082273,-0.037553,-0.658051,0.199166,-0.725190,9.80800342559814,-2.43831515312195,0.55343610048294,3.39089083671570,3.56113886833191,1.03611052036285
565,2955098940,-0.037538,-0.658053,0.199110,-0.725204,9.80457305908203,-2.40602517127991,0.53615200519562,3.45636963844299,3.45485854148865,1.07353067398071
566,2955115607,-0.037538,-0.658049,0.199066,-0.725220,9.79531860351562,-2.39099335670471,0.56291300058365,3.33558034896851,3.50975966453552,1.05387306213379
567,2955132274,-0.037558,-0.658040,0.199080,-0.725223,9.80653381347656,-2.40335011482239,0.57003760337830,2.93503618240356,3.48912906646729,1.23083126544952
568,2955148941,-0.037620,-0.658021,0.199125,-0.725225,9.82778930664062,-2.40510511398315,0.53401726484299,2.80931639671326,3.52293729782104,1.18041276931763
569,2955165608,-0.037678,-0.657999,0.199167,-0.725230,9.77450370788574,-2.41914939880371,0.57213878631592,2.76989841461182,3.57477760314941,1.18940269947052
570,2955182275,-0.037702,-0.657974,0.199168,-0.725251,9.76866054534912,-2.42655944824219,0.56305217742920,2.90062570571899,3.68250465393066,1.16848981380463
571,2955198942,-0.037686,-0.657965,0.199125,-0.725272,9.71311378479004,-2.41863822937012,0.56504964828491,3.40139198303223,3.53772878646851,1.15136778354645
572,2955215609,-0.037663,-0.657937,0.199083,-0.725310,9.75865745544434,-2.40772867202759,0.54972863197327,3.63378906250000,3.64655685424805,1.23044693470001
573,2955232276,-0.037585,-0.657912,0.199007,-0.725358,9.88083171844482,-2.43913221359253,0.50194770097733,3.64859366416931,3.72199988365173,1.32285761833191
574,2955248943,-0.037505,-0.657918,0.198878,-0.725392,9.87204360961914,-2.42163157463074,0.51803225278854,3.46642303466797,3.62830829620361,1.02940011024475
575,2955265610,-0.037710,-0.657915,0.198983,-0.725355,9.81799888610840,-2.37189579010010,0.58520966768265,2.32371211051941,3.32153153419495,0.73192119598389
576,2955282277,-0.037923,-0.657916,0.199123,-0.725305,9.76075744628906,-2.42830681800842,0.56750476360321,1.78199100494385,3.32331252098083,0.83118343353271
577,2955298944,-0.038007,-0.657910,0.199144,-0.725300,9.73727798461914,-2.48381495475769,0.55770075321198,2.60169982910156,3.52873826026917,0.93477392196655
578,2955315611,-0.037972,-0.657922,0.199035,-0.725321,9.75624370574951,-2.46042275428772,0.59973138570786,3.82660150527954,3.41656780242920,0.91854828596115
579,2955332278,-0.037814,-0.657917,0.198841,-0.725387,9.80655384063721,-2.40906524658203,0.56056642532349,4.86376190185547,3.56937289237976,1.17718529701233
580,2955348945,-0.037675,-0.657897,0.198675,-0.725458,9.81379032135010,-2.36884188652039,0.58115655183792,4.63856220245361,3.67743277549744,1.23874533176422
581,2955365612,-0.037649,-0.657875,0.198637,-0.725489,9.81353092193604,-2.32753920555115,0.55361032485962,3.37023448944092,3.64887523651123,1.24155020713806
582,2955382279,-0.037751,-0.657833,0.198775,-0.725485,9.79203510284424,-2.34681725502014,0.55487716197968,2.24514484405518,3.61936902999878,1.43752551078796
583,2955398946,-0.037843,-0.657802,0.198922,-0.725467,9.79613399505615,-2.41980624198914,0.54982882738113,1.70014536380768,3.62404346466064,1.47484314441681
584,2955415613,-0.037876,-0.657789,0.199040,-0.725445,9.78633499145508,-2.46557021141052,0.54575532674789,2.12214016914368,3.43778753280640,1.61997747421265
585,2955432280,-0.037844,-0.657789,0.199084,-0.725435,9.79437255859375,-2.44000220298767,0.54637479782104,2.83573603630066,3.34522390365601,1.59752821922302
586,2955448947,-0.037814,-0.657804,0.199085,-0.725423,9.82145881652832,-2.43464350700378,0.56396204233170,3.50092291831970,3.16615247726440,1.39179420471191
587,2955465614,-0.037727,-0.657851,0.199013,-0.725404,9.76475524902344,-2.42000913619995,0.57167387008667,3.63307166099548,3.03108358383179,1.27718997001648
588,2955482281,-0.037655,-0.657901,0.198934,-0.725384,9.72278213500977,-2.42234849929810,0.55029857158661,3.57540488243103,3.04631018638611,1.16628706455231
589,2955498948,-0.037563,-0.657915,0.198870,-0.725394,9.77426624298096,-2.42145347595215,0.54775440692902,3.75876617431641,3.29828834533691,1.39669895172119
590,2955515615,-0.037550,-0.657879,0.198883,-0.725424,9.81371402740479,-2.41400599479675,0.54286503791809,3.56642770767212,3.58301186561584,1.45108771324158
591,2955532282,-0.037562,-0.657854,0.198918,-0.725436,9.79890346527100,-2.37752985954285,0.57052540779114,2.88040447235107,3.59193801879883,1.38317549228668
592,2955548949,-0.037621,-0.657841,0.198970,-0.725431,9.81622505187988,-2.40004730224609,0.56569594144821,2.52972769737244,3.52051663398743,1.20775401592255
593,2955565616,-0.037777,-0.657836,0.199127,-0.725384,9.80579566955566,-2.43274140357971,0.55067390203476,2.36332201957703,3.18034172058105,1.21883141994476
594,2955582283,-0.037846,-0.657869,0.199170,-0.725338,9.79066467285156,-2.43617701530457,0.56871265172958,2.46888470649719,3.13017892837524,1.03544449806213
595,2955598950,-0.037842,-0.657890,0.199146,-0.725326,9.77976036071777,-2.44689822196960,0.56047159433365,3.17697405815125,3.25482392311096,1.12789380550385
596,2955615617,-0.037850,-0.657884,0.199112,-0.725341,9.77179241180420,-2.43786549568176,0.55198806524277,3.69711661338806,3.40978050231934,1.08935940265656
597,2955632284,-0.037818,-0.657884,0.199024,-0.725366,9.78134155273438,-2.39634656906128,0.55379348993301,3.69855093955994,3.50736498832703,1.02128088474274
598,2955648951,-0.037805,-0.657888,0.198949,-0.725384,9.76788043975830,-2.37688755989075,0.56130450963974,3.22417759895325,3.55100846290588,0.95075613260269
599,2955665618,-0.037855,-0.657876,0.198960,-0.725389,9.80929470062256,-2.40822124481201,0.53142803907394,2.75588846206665,3.57266497612000,1.06308090686798
600,2955682285,-0.037874,-0.657883,0.198969,-0.725379,9.78717517852783,-2.39631652832031,0.53924798965454,2.47658157348633,3.46746039390564,1.15596520900726
601,2955698952,-0.037980,-0.657872,0.199051,-0.725362,9.78792476654053,-2.42482900619507,0.54150062799454,2.59119844436646,3.40589976310730,1.12774002552032
602,2955715619,-0.038005,-0.657889,0.199046,-0.725346,9.80352687835693,-2.43845033645630,0.57182621955872,2.89607954025269,3.30479431152344,1.06774234771729
603,2955732286,-0.038009,-0.657904,0.199020,-0.725340,9.80184364318848,-2.41827011108398,0.55940574407578,3.17431020736694,3.32595038414001,1.08637559413910
604,2955748953,-0.038012,-0.657907,0.198987,-0.725346,9.79799365997314,-2.40728974342346,0.55799078941345,3.37111783027649,3.40030384063721,1.08870625495911
605,2955765620,-0.038010,-0.657911,0.198944,-0.725354,9.79646015167236,-2.41813111305237,0.56844681501389,3.30718898773193,3.44256424903870,1.06007134914398
606,2955782287,-0.037943,-0.657933,0.198860,-0.725360,9.78085708618164,-2.40463519096375,0.54788690805435,3.05649209022522,3.44899392127991,1.12649798393250
607,2955798954,-0.038022,-0.657919,0.198901,-0.725358,9.78780555725098,-2.41816806793213,0.54359209537506,2.90807914733887,3.46993184089661,1.08553040027618
608,2955815621,-0.038066,-0.657905,0.198912,-0.725365,9.77339839935303,-2.42206764221191,0.55093646049500,3.00447249412537,3.52126002311707,1.10819768905640
609,2955832288,-0.038100,-0.657893,0.198912,-0.725374,9.78823661804199,-2.41565918922424,0.55385261774063,3.17226076126099,3.49993681907654,1.10790288448334
610,2955848955,-0.038039,-0.657888,0.198843,-0.725401,9.80188179016113,-2.40576195716858,0.55858176946640,3.27386665344238,3.61008405685425,1.22470963001251
611,2955865622,-0.038116,-0.657858,0.198884,-0.725412,9.80212879180908,-2.41466760635376,0.53507423400879,3.39632105827332,3.48249483108521,1.14332544803619
612,2955882289,-0.038082,-0.657859,0.198826,-0.725430,9.81067180633545,-2.41044378280640,0.54135400056839,3.35093498229980,3.50721073150635,1.14691102504730
613,2955898956,-0.038094,-0.657854,0.198801,-0.725440,9.80539512634277,-2.41676974296570,0.54611760377884,3.22045135498047,3.48659300804138,1.08456993103027
614,2955915623,-0.038127,-0.657846,0.198795,-0.725448,9.80035400390625,-2.41075968742371,0.54618436098099,3.11458134651184,3.49414920806885,1.07592570781708
615,2955932290,-0.038126,-0.657857,0.198774,-0.725443,9.79864025115967,-2.40227055549622,0.55880600214005,2.95651245117188,3.39256882667542,1.13003242015839
616,2955948957,-0.038121,-0.657865,0.198762,-0.725439,9.79174137115479,-2.40649366378784,0.56696683168411,2.99343347549438,3.39110946655273,1.19904601573944
617,2955965624,-0.038143,-0.657860,0.198777,-0.725439,9.80946636199951,-2.39416217803955,0.56404483318329,3.06075668334961,3.41970539093018,1.21984326839447
618,2955982291,-0.038124,-0.657861,0.198760,-0.725444,9.79941177368164,-2.39584660530090,0.55486541986465,3.02575683593750,3.47182726860046,1.24841427803040
619,2955998958,-0.038122,-0.657855,0.198763,-0.725449,9.79986190795898,-2.40902018547058,0.56504541635513,2.99371504783630,3.47957491874695,1.27662670612335
620,2956015625,-0.038110,-0.657862,0.198755,-0.725445,9.81920528411865,-2.41457366943359,0.54680168628693,3.06827378273010,3.37074708938599,1.25718677043915
621,2956032292,-0.038035,-0.657887,0.198671,-0.725450,9.81280994415283,-2.39814209938049,0.55027830600739,3.22618889808655,3.38391160964966,1.17471373081207
622,2956048959,-0.038026,-0.657908,0.198625,-0.725443,9.80082035064697,-2.40540027618408,0.57710623741150,3.20124197006226,3.30818772315979,1.04323089122772
623,2956065626,-0.037977,-0.657929,0.198568,-0.725442,9.79309082031250,-2.40530729293823,0.57233852148056,3.10769152641296,3.37008094787598,1.18189823627472
624,2956082293,-0.037992,-0.657929,0.198573,-0.725440,9.80298137664795,-2.41106653213501,0.55821913480759,2.99975991249084,3.41704201698303,1.19900763034821
625,2956098960,-0.037981,-0.657918,0.198557,-0.725455,9.79503726959229,-2.41030097007751,0.56952732801437,3.06713318824768,3.56705474853516,1.23705494403839
626,2956115627,-0.037964,-0.657899,0.198533,-0.725480,9.77823352813721,-2.41187334060669,0.56819921731949,3.20078086853027,3.62485027313232,1.25121879577637
627,2956132294,-0.037969,-0.657883,0.198525,-0.725496,9.74408149719238,-2.39660954475403,0.58655381202698,3.33923053741455,3.51143717765808,1.22082936763763
628,2956148961,-0.037937,-0.657860,0.198486,-0.725530,9.77931976318359,-2.40136384963989,0.56485980749130,3.36406183242798,3.67147827148438,1.26747024059296
629,2956165628,-0.037919,-0.657816,0.198489,-0.725570,9.87740039825439,-2.42563486099243,0.51996028423309,3.31446266174316,3.74955868721008,1.42473208904266
630,2956182295,-0.037913,-0.657797,0.198448,-0.725598,9.89238452911377,-2.41161155700684,0.52999967336655,3.15809702873230,3.68154382705688,1.11973595619202
631,2956198962,-0.038012,-0.657810,0.198489,-0.725570,9.85962390899658,-2.36682343482971,0.58772975206375,2.44546198844910,3.33358240127563,0.91118460893631
632,2956215629,-0.038172,-0.657809,0.198597,-0.725532,9.78651046752930,-2.41855621337891,0.57515919208527,1.99599790573120,3.37028574943542,0.94386649131775
633,2956232296,-0.038113,-0.657831,0.198507,-0.725541,9.75854110717773,-2.46097016334534,0.57452785968781,3.01556301116943,3.48654222488403,1.06192827224731
634,2956248963,-0.038034,-0.657845,0.198363,-0.725571,9.76388359069824,-2.45267295837402,0.58256459236145,4.11605119705200,3.42350935935974,0.97659957408905
635,2956265630,-0.037891,-0.657839,0.198173,-0.725637,9.79183578491211,-2.40180993080139,0.56391847133636,4.78017473220825,3.58848023414612,1.12533235549927
636,2956282297,-0.037769,-0.657802,0.198040,-0.725713,9.81565570831299,-2.36240363121033,0.56841516494751,4.32845687866211,3.82350277900696,1.32255029678345
637,2956298964,-0.037724,-0.657774,0.198022,-0.725745,9.79907035827637,-2.32734107971191,0.59327763319016,3.11882042884827,3.71251010894775,1.42124879360199
638,2956315631,-0.037794,-0.657734,0.198156,-0.725742,9.80874156951904,-2.34772348403931,0.55178624391556,2.04893898963928,3.66615056991577,1.55825102329254
639,2956332298,-0.037873,-0.657692,0.198300,-0.725736,9.80052661895752,-2.41012144088745,0.58257520198822,1.71559000015259,3.73324322700500,1.54233276844025
640,2956348965,-0.038002,-0.657643,0.198481,-0.725724,9.79939365386963,-2.45746564865112,0.54457461833954,2.27452325820923,3.54326105117798,1.52603018283844
641,2956365632,-0.037971,-0.657649,0.198469,-0.725723,9.80212593078613,-2.44623398780823,0.57068973779678,3.13117861747742,3.37572884559631,1.32846677303314
642,2956382299,-0.037921,-0.657664,0.198440,-0.725720,9.81814861297607,-2.43338894844055,0.57217824459076,3.67584562301636,3.20385479927063,1.35990643501282
643,2956398966,-0.037854,-0.657698,0.198355,-0.725716,9.75555801391602,-2.39394855499268,0.59583199024200,3.82662725448608,3.14924812316895,1.15042006969452
644,2956415633,-0.037771,-0.657719,0.198281,-0.725722,9.73099708557129,-2.37708187103271,0.55491590499878,3.84363484382629,3.23094034194946,1.30017769336700
645,2956432300,-0.037691,-0.657704,0.198238,-0.725752,9.79369926452637,-2.38862490653992,0.53230768442154,3.69876861572266,3.52060675621033,1.47953057289124
646,2956448967,-0.037641,-0.657667,0.198235,-0.725788,9.82262897491455,-2.39000201225281,0.54582047462463,3.51539492607117,3.65069389343262,1.55548512935638
647,2956465634,-0.037695,-0.657628,0.198306,-0.725801,9.82961177825928,-2.37940335273743,0.55822992324829,2.77079486846924,3.65050172805786,1.37131679058075
648,2956482301,-0.037770,-0.657601,0.198403,-0.725796,9.84033298492432,-2.39449644088745,0.57116603851318,2.44821572303772,3.54651427268982,1.35652565956116
649,2956498968,-0.037840,-0.657611,0.198514,-0.725753,9.81028461456299,-2.41046500205994,0.55369448661804,2.13831472396851,3.23357772827148,1.37193131446838
650,2956515635,-0.037850,-0.657654,0.198567,-0.725699,9.82045841217041,-2.43191361427307,0.54517483711243,2.46605443954468,3.01286005973816,1.35337495803833
651,2956532302,-0.037838,-0.657672,0.198575,-0.725681,9.79343700408936,-2.46143484115601,0.56867474317551,3.37041425704956,3.14859509468079,1.32786500453949
652,2956548969,-0.037639,-0.657701,0.198398,-0.725713,9.77976417541504,-2.43190646171570,0.56212002038956,3.91834688186646,3.42997646331787,1.35236358642578
653,2956565636,-0.037567,-0.657681,0.198365,-0.725744,9.78418350219727,-2.39701628684998,0.57520449161530,3.79978489875793,3.51653432846069,1.50454139709473
654,2956582303,-0.037528,-0.657655,0.198361,-0.725770,9.80601787567139,-2.38330817222595,0.57426261901855,3.15416550636292,3.63888621330261,1.45887386798859
655,2956598970,-0.037564,-0.657600,0.198431,-0.725800,9.80387306213379,-2.39793777465820,0.57768326997757,2.60542607307434,3.84675788879395,1.46531534194946
656,2956615637,-0.037611,-0.657554,0.198513,-0.725816,9.80521965026855,-2.42070484161377,0.56545537710190,2.48562312126160,3.74839329719543,1.45367455482483
657,2956632304,-0.037644,-0.657527,0.198559,-0.725827,9.79542446136475,-2.43805861473083,0.56563729047775,2.72437191009521,3.62908911705017,1.32894062995911
658,2956648971,-0.037628,-0.657515,0.198549,-0.725841,9.79552936553955,-2.43520092964172,0.58017635345459,3.22939014434814,3.50343298912048,1.29993426799774
659,2956665638,-0.037621,-0.657492,0.198515,-0.725871,9.79362106323242,-2.44018530845642,0.56345713138580,3.75215840339661,3.55262279510498,1.19642066955566
660,2956682305,-0.037576,-0.657465,0.198459,-0.725913,9.77857208251953,-2.43123102188110,0.56078410148621,3.90199232101440,3.61386251449585,1.27710032463074
661,2956698972,-0.037521,-0.657446,0.198395,-0.725952,9.77299308776855,-2.40418553352356,0.59607136249542,3.67570424079895,3.62856459617615,1.27201640605927
662,2956715639,-0.037462,-0.657435,0.198334,-0.725981,9.76737594604492,-2.39571475982666,0.57983040809631,3.46162009239197,3.58509922027588,1.27589666843414
663,2956732306,-0.037460,-0.657418,0.198321,-0.726000,9.79228591918945,-2.39678931236267,0.59531790018082,3.11587476730347,3.59889149665833,1.22182822227478
664,2956748973,-0.037521,-0.657381,0.198353,-0.726021,9.78100585937500,-2.42489337921143,0.55534142255783,3.00375485420227,3.68277311325073,1.15841114521027
665,2956765640,-0.037533,-0.657368,0.198320,-0.726041,9.79334449768066,-2.42317962646484,0.58024674654007,3.00315332412720,3.64160108566284,1.04832780361176
666,2956782307,-0.037554,-0.657345,0.198314,-0.726063,9.81026840209961,-2.42672419548035,0.56172144412994,3.04905104637146,3.65580320358276,1.15665674209595
667,2956798974,-0.037547,-0.657340,0.198263,-0.726082,9.79435729980469,-2.43606400489807,0.58075863122940,3.38117074966431,3.52268099784851,1.06277322769165
668,2956815641,-0.037545,-0.657342,0.198211,-0.726094,9.80725955963135,-2.43224763870239,0.57823246717453,3.47020030021667,3.43978571891785,1.02690279483795
669,2956832308,-0.037559,-0.657334,0.198144,-0.726119,9.79288578033447,-2.40025281906128,0.58144152164459,3.47087955474854,3.57371473312378,0.89565050601959
670,2956848975,-0.037573,-0.657346,0.198089,-0.726123,9.77326107025146,-2.39649581909180,0.57770407199860,3.30766224861145,3.39730620384216,0.91445004940033
671,2956865642,-0.037598,-0.657349,0.198067,-0.726124,9.78959560394287,-2.39419817924500,0.57145035266876,3.05006337165833,3.44764876365662,1.01783597469330
672,2956882309,-0.037561,-0.657374,0.198005,-0.726121,9.79822063446045,-2.40155935287476,0.57208418846130,2.90249538421631,3.40645074844360,1.07696294784546
673,2956898976,-0.037592,-0.657369,0.198010,-0.726122,9.80417251586914,-2.41878724098206,0.56913608312607,2.92830038070679,3.47213506698608,1.12234866619110
674,2956915643,-0.037592,-0.657365,0.197980,-0.726134,9.78041648864746,-2.42221069335938,0.57262128591537,3.25742340087891,3.48510742187500,1.12636971473694
675,2956932310,-0.037574,-0.657365,0.197931,-0.726148,9.79889297485352,-2.40146160125732,0.59207403659821,3.44112992286682,3.45886683464050,1.11825048923492
676,2956948977,-0.037551,-0.657371,0.197878,-0.726158,9.80795574188232,-2.40157270431519,0.58397823572159,3.47829461097717,3.40751385688782,1.11550986766815
677,2956965644,-0.037477,-0.657403,0.197767,-0.726164,9.80131626129150,-2.39656448364258,0.59375125169754,3.31056904792786,3.37111783027649,1.03285765647888
678,2956982311,-0.037530,-0.657407,0.197772,-0.726156,9.81680965423584,-2.41076231002808,0.58441317081451,3.01415419578552,3.36760926246643,1.00971674919128
679,2956998978,-0.037565,-0.657417,0.197774,-0.726144,9.82528305053711,-2.41723823547363,0.59567797183990,2.91217684745789,3.35516119003296,1.06662809848785
680,2957015645,-0.037574,-0.657413,0.197780,-0.726146,9.80042648315430,-2.42200422286987,0.59422379732132,3.02296495437622,3.44794368743896,1.23426342010498
681,2957032312,-0.037577,-0.657405,0.197749,-0.726162,9.76213455200195,-2.40257191658020,0.59848695993423,3.25333786010742,3.52781629562378,1.10965728759766
682,2957048979,-0.037550,-0.657406,0.197707,-0.726173,9.71948623657227,-2.37599515914917,0.60646206140518,3.43755745887756,3.42626214027405,1.19690704345703
683,2957065646,-0.037577,-0.657354,0.197731,-0.726213,9.79958248138428,-2.39216804504395,0.57634645700455,3.53410482406616,3.71124172210693,1.34058165550232
684,2957082313,-0.037539,-0.657304,0.197684,-0.726273,9.89029407501221,-2.43724536895752,0.55790537595749,3.47814083099365,3.90746068954468,1.29744982719421
685,2957098980,-0.037553,-0.657296,0.197642,-0.726290,9.88730907440186,-2.39847731590271,0.58256012201309,3.25997161865234,3.55542707443237,1.00590038299561
686,2957115647,-0.037646,-0.657311,0.197693,-0.726258,9.81504631042480,-2.39638662338257,0.61769276857376,2.38130235671997,3.30193805694580,0.98443686962128
687,2957132314,-0.037725,-0.657321,0.197733,-0.726234,9.77510452270508,-2.43621230125427,0.56472563743591,2.50442242622375,3.34509515762329,1.01457023620605
688,2957148981,-0.037733,-0.657340,0.197672,-0.726233,9.75556182861328,-2.45388102531433,0.58766388893127,3.36790418624878,3.32770514488220,0.90368026494980
689,2957165648,-0.037663,-0.657359,0.197515,-0.726262,9.76600456237793,-2.40102100372314,0.60038632154465,4.23769855499268,3.39215922355652,0.87423843145370
690,2957182315,-0.037531,-0.657360,0.197336,-0.726317,9.80592346191406,-2.37816929817200,0.60537582635880,4.59251165390015,3.53019905090332,1.10489356517792
691,2957198982,-0.037515,-0.657324,0.197302,-0.726359,9.81839466094971,-2.34815311431885,0.58805024623871,4.05414438247681,3.59744453430176,1.26813590526581
692,2957215649,-0.037540,-0.657306,0.197321,-0.726369,9.79510021209717,-2.33733201026917,0.58646690845490,3.03604006767273,3.52875161170959,1.24749231338501
693,2957232316,-0.037639,-0.657292,0.197433,-0.726346,9.81293392181396,-2.36190271377563,0.57502615451813,2.15569305419922,3.45418024063110,1.27958500385284
694,2957248983,-0.037851,-0.657241,0.197685,-0.726313,9.82143878936768,-2.41553115844727,0.56974351406097,2.14291214942932,3.39970159530640,1.45693993568420
695,2957265650,-0.037860,-0.657245,0.197725,-0.726298,9.82462310791016,-2.41998362541199,0.56524467468262,2.71533083915710,3.35320234298706,1.37462103366852
696,2957282317,-0.037760,-0.657262,0.197672,-0.726303,9.83936786651611,-2.40681982040405,0.60016185045242,3.33651542663574,3.34317469596863,1.45544171333313
697,2957298984,-0.037689,-0.657274,0.197606,-0.726314,9.81649208068848,-2.39850711822510,0.60906332731247,3.77410864830017,3.31172275543213,1.28738415241241
698,2957315651,-0.037622,-0.657293,0.197535,-0.726318,9.74406147003174,-2.39516663551331,0.60016262531281,3.87839055061340,3.22927474975586,1.24461078643799
699,2957332318,-0.037511,-0.657293,0.197443,-0.726350,9.76904964447021,-2.39616107940674,0.58136749267578,4.01074409484863,3.44293618202209,1.39215290546417
700,2957348985,-0.037399,-0.657271,0.197362,-0.726397,9.82197952270508,-2.42097067832947,0.55286216735840,3.99569654464722,3.61460518836975,1.48142588138580
701,2957365652,-0.037348,-0.657243,0.197319,-0.726437,9.81449317932129,-2.37708473205566,0.59194087982178,3.58366489410400,3.66487026214600,1.35790848731995
702,2957382319,-0.037412,-0.657210,0.197379,-0.726447,9.83028411865234,-2.36426877975464,0.57488572597504,2.79466605186462,3.62200760841370,1.25813436508179
703,2957398986,-0.037494,-0.657199,0.197465,-0.726430,9.82828807830811,-2.38492250442505,0.58689856529236,2.48744153976440,3.41611957550049,1.25380575656891
704,2957415653,-0.037552,-0.657222,0.197539,-0.726385,9.80323696136475,-2.42325496673584,0.59073412418365,2.46066308021545,3.13444375991821,1.24870848655701
705,2957432320,-0.037587,-0.657237,0.197564,-0.726363,9.78184223175049,-2.45200252532959,0.58515876531601,2.97226452827454,3.22662425041199,1.17069268226624
706,2957448987,-0.037537,-0.657235,0.197476,-0.726391,9.77105045318604,-2.43170452117920,0.58940821886063,3.79769802093506,3.49599289894104,1.10973441600800
707,2957465654,-0.037554,-0.657209,0.197442,-0.726424,9.77190589904785,-2.39262795448303,0.59307003021240,3.72604632377625,3.58914613723755,1.07892215251923
708,2957482321,-0.037527,-0.657203,0.197368,-0.726451,9.76952552795410,-2.37624883651733,0.60237288475037,3.54153227806091,3.55789875984192,1.06242763996124
709,2957498988,-0.037576,-0.657185,0.197358,-0.726467,9.79930400848389,-2.38277816772461,0.57180607318878,3.16079926490784,3.58453583717346,1.00062406063080
710,2957515655,-0.037622,-0.657165,0.197365,-0.726481,9.81649684906006,-2.37396430969238,0.57587170600891,2.86652255058289,3.62777042388916,1.07502925395966
711,2957532322,-0.037665,-0.657153,0.197383,-0.726484,9.81263732910156,-2.37581253051758,0.58711147308350,2.81500244140625,3.53336215019226,1.13310599327087
712,2957548989,-0.037690,-0.657161,0.197396,-0.726472,9.80785465240479,-2.39271426200867,0.58298140764236,2.89807724952698,3.34261107444763,1.16644084453583
713,2957565656,-0.037727,-0.657160,0.197417,-0.726466,9.79965496063232,-2.39443182945251,0.57925426959991,2.81368374824524,3.42660832405090,1.16074216365814
714,2957582323,-0.037761,-0.657161,0.197436,-0.726457,9.81933689117432,-2.39907288551331,0.56508582830429,2.83275198936462,3.40280127525330,1.15953814983368
715,2957598990,-0.037793,-0.657164,0.197461,-0.726447,9.79501438140869,-2.39148044586182,0.60336625576019,2.81593751907349,3.38254165649414,1.19210481643677
716,2957615657,-0.037826,-0.657166,0.197482,-0.726438,9.79024314880371,-2.41218924522400,0.59942162036896,2.82869243621826,3.39463043212891,1.17463696002960
717,2957632324,-0.037840,-0.657176,0.197479,-0.726428,9.78870868682861,-2.41060495376587,0.60834908485413,3.03186535835266,3.32999706268311,1.14600193500519
718,2957648991,-0.037859,-0.657169,0.197475,-0.726435,9.79678726196289,-2.39723277091980,0.59852457046509,3.03251814842224,3.50053954124451,1.14536166191101
719,2957665658,-0.037872,-0.657154,0.197460,-0.726452,9.80148029327393,-2.39076423645020,0.60105133056641,3.12728476524353,3.58062958717346,1.14265930652618
720,2957682325,-0.037890,-0.657137,0.197448,-0.726470,9.82201957702637,-2.39935827255249,0.59290915727615,3.09815049171448,3.59832811355591,1.13100552558899
721,2957698992,-0.037901,-0.657125,0.197453,-0.726479,9.79267024993896,-2.39042186737061,0.60640364885330,3.02482175827026,3.51987671852112,1.23646605014801
722,2957715659,-0.037898,-0.657105,0.197455,-0.726496,9.80389404296875,-2.41071724891663,0.59605503082275,3.11556744575500,3.57413697242737,1.29593861103058
723,2957732326,-0.037886,-0.657087,0.197453,-0.726514,9.80714607238770,-2.41612768173218,0.59178805351257,3.17762660980225,3.56339240074158,1.33481860160828
724,2957748993,-0.037863,-0.657059,0.197462,-0.726538,9.81751823425293,-2.39514398574829,0.59790337085724,3.17555236816406,3.62223815917969,1.44440269470215
725,2957765660,-0.037885,-0.657007,0.197516,-0.726569,9.80222129821777,-2.38848972320557,0.59077262878418,3.03862643241882,3.74879002571106,1.47500956058502
726,2957782327,-0.037837,-0.656955,0.197567,-0.726604,9.77971267700195,-2.37616372108459,0.60084748268127,3.08489632606506,3.74562716484070,1.80032968521118
727,2957798994,-0.037788,-0.656905,0.197654,-0.726629,9.79532051086426,-2.37699675559998,0.59210348129272,2.90487742424011,3.67606329917908,1.95739972591400
728,2957815661,-0.037749,-0.656842,0.197815,-0.726644,9.79227733612061,-2.38622164726257,0.60197949409485,2.46975588798523,3.69432425498962,2.26471328735352
729,2957832328,-0.037756,-0.656756,0.198035,-0.726661,9.82483291625977,-2.38800358772278,0.62286812067032,1.95925641059875,3.86641597747803,2.32393002510071
730,2957848995,-0.037829,-0.656646,0.198315,-0.726681,9.83607578277588,-2.41520214080811,0.59098541736603,1.36864030361176,4.06614398956299,2.30011010169983
731,2957865662,-0.037913,-0.656549,0.198570,-0.726695,9.82690048217773,-2.45143151283264,0.57662659883499,1.43087923526764,4.00307369232178,2.11350893974304
732,2957882329,-0.037945,-0.656460,0.198755,-0.726722,9.75519466400146,-2.42111229896545,0.58671194314957,2.04303550720215,3.96969962120056,2.05547046661377
733,2957898996,-0.037914,-0.656351,0.198905,-0.726782,9.72977924346924,-2.43391060829163,0.59771454334259,2.53368568420410,4.13842344284058,2.24100899696350
734,2957915663,-0.037844,-0.656260,0.199043,-0.726830,9.72251701354980,-2.39527249336243,0.60950803756714,2.76289319992065,3.94701957702637,2.36009526252747
735,2957932330,-0.037869,-0.656135,0.199264,-0.726881,9.79040431976318,-2.39067625999451,0.60531175136566,2.21247649192810,4.16138553619385,2.31893563270569
736,2957948997,-0.037955,-0.656010,0.199512,-0.726921,9.88358306884766,-2.40064239501953,0.56845313310623,1.11107885837555,4.35935783386230,2.09638667106628
737,2957965664,-0.038186,-0.655890,0.199836,-0.726928,9.84039688110352,-2.42234182357788,0.57827681303024,0.39009428024292,4.27903747558594,1.71734452247620
738,2957982331,-0.038354,-0.655846,0.200133,-0.726877,9.75859260559082,-2.44443416595459,0.60069906711578,0.27660432457924,3.67320656776428,1.76859521865845
739,2957998998,-0.038461,-0.655805,0.200354,-0.726848,9.76160717010498,-2.48696899414062,0.61617720127106,1.06034016609192,3.66728997230530,1.73455595970154
740,2958015665,-0.038498,-0.655756,0.200452,-0.726863,9.72932052612305,-2.50974512100220,0.61287504434586,2.44872856140137,3.74756145477295,1.57335007190704
741,2958032332,-0.038411,-0.655722,0.200383,-0.726918,9.75738525390625,-2.47309947013855,0.62871336936951,3.89995646476746,3.71717119216919,1.43614256381989
742,2958048999,-0.038278,-0.655685,0.200276,-0.726987,9.80198097229004,-2.41876888275146,0.63524365425110,4.30878686904907,3.74858593940735,1.49976468086243
743,2958065666,-0.038222,-0.655643,0.200273,-0.727029,9.81377220153809,-2.35773921012878,0.62585234642029,3.40788555145264,3.72694325447083,1.58546483516693
744,2958082333,-0.038288,-0.655542,0.200438,-0.727071,9.81031131744385,-2.35333418846130,0.63795316219330,2.00071048736572,4.14503097534180,1.80830776691437
745,2958099000,-0.038414,-0.655442,0.200701,-0.727081,9.76840209960938,-2.39461040496826,0.62006473541260,1.19987821578979,4.05665493011475,1.94436275959015
746,2958115667,-0.038596,-0.655341,0.201037,-0.727070,9.80637645721436,-2.42761754989624,0.60568398237228,0.62991881370544,4.00598049163818,1.99522936344147
747,2958132334,-0.038750,-0.655245,0.201329,-0.727068,9.80885410308838,-2.46776556968689,0.61594712734222,0.68804687261581,4.06679821014404,1.91104066371918
748,2958149001,-0.038851,-0.655179,0.201545,-0.727063,9.80191421508789,-2.51026892662048,0.60192352533340,1.53130650520325,3.79718518257141,1.80436348915100
749,2958165668,-0.038871,-0.655167,0.201642,-0.727045,9.74143409729004,-2.48642206192017,0.62230658531189,2.44789552688599,3.39332413673401,1.59433937072754
750,2958182335,-0.038845,-0.655152,0.201669,-0.727052,9.70920372009277,-2.45004391670227,0.61185419559479,3.07370328903198,3.47004675865173,1.52352011203766
751,2958199002,-0.038788,-0.655114,0.201649,-0.727095,9.78324699401855,-2.46797013282776,0.59802502393723,3.49811887741089,3.72280621528625,1.50542497634888
752,2958215669,-0.038729,-0.655077,0.201571,-0.727153,9.79674339294434,-2.46397066116333,0.60858845710754,3.78694033622742,3.79596853256226,1.25184643268585
753,2958232336,-0.038725,-0.655043,0.201533,-0.727195,9.78951835632324,-2.42880487442017,0.61696624755859,3.35234427452087,3.76965236663818,1.15627264976501
754,2958249003,-0.038771,-0.655021,0.201551,-0.727207,9.80419445037842,-2.39222002029419,0.59019792079926,2.80293917655945,3.62468409538269,1.13058304786682
755,2958265670,-0.038859,-0.655040,0.201651,-0.727157,9.80072402954102,-2.39390087127686,0.61438971757889,1.78556370735168,3.27425074577332,1.20396339893341
756,2958282337,-0.039021,-0.655046,0.201840,-0.727091,9.78955268859863,-2.44487285614014,0.60843592882156,1.43479776382446,3.23265552520752,1.26178395748138
757,2958299004,-0.039103,-0.655049,0.201965,-0.727049,9.78996276855469,-2.48315215110779,0.61307704448700,1.97043621540070,3.30082368850708,1.38110077381134
758,2958315671,-0.039117,-0.655042,0.202036,-0.727035,9.77565860748291,-2.47099566459656,0.61223894357681,2.65324568748474,3.37635636329651,1.51049637794495
759,2958332338,-0.039115,-0.655024,0.202086,-0.727037,9.77486228942871,-2.46207261085510,0.61925929784775,2.84872150421143,3.48517155647278,1.50411880016327
760,2958349005,-0.039126,-0.655002,0.202125,-0.727045,9.77691936492920,-2.46234202384949,0.60949116945267,2.85379314422607,3.55720758438110,1.40218031406403
761,2958365672,-0.039133,-0.654978,0.202171,-0.727054,9.78692245483398,-2.45551061630249,0.58831554651260,2.84311246871948,3.56412291526794,1.45190703868866
762,2958382339,-0.039142,-0.654956,0.202230,-0.727058,9.78727436065674,-2.44561076164246,0.60950863361359,2.97330164909363,3.47427368164062,1.51534986495972
