sep=,
DeviceTag:,C
FirmwareVersion:,3.0.0
AppVersion:,2023.6.0
StartTime: ,2024-03-14_11:44:43_000 EDT
© Movella Technologies B. V. 2005-2024

PacketCounter,SampleTimeFine,Quat_W,Quat_X,Quat_Y,Quat_Z,Acc_X,Acc_Y,Acc_Z,Gyr_X,Gyr_Y,Gyr_Z
0,2945682085,0.642691,0.372981,-0.567712,0.354336,0.00000000000000,0.00000000000000,0.00000000000000,0.00000000000000,0.00000000000000,0.00000000000000
1,2945698752,0.642660,0.372978,-0.567729,0.354367,9.86262321472168,0.77634578943253,0.79216253757477,1.24770987033844,-0.15287581086159,0.60545855760574
2,2945715419,0.642643,0.372979,-0.567731,0.354394,9.85872077941895,0.75376045703888,0.79824221134186,1.26700901985168,-0.05407480895519,0.50117647647858
3,2945732086,0.642696,0.372921,-0.567718,0.354380,9.86273956298828,0.77537894248962,0.79656440019608,0.68884068727493,0.32438480854034,0.33655089139938
4,2945748753,0.642700,0.372900,-0.567686,0.354446,9.84683990478516,0.74074202775955,0.67222303152084,1.34291219711304,0.33568003773689,0.62361800670624
5,2945765420,0.642555,0.373123,-0.567644,0.354541,9.77949237823486,0.78884148597717,0.67495822906494,2.94701027870178,-0.72520446777344,0.13423615694046
6,2945782087,0.642586,0.373067,-0.567695,0.354461,9.93365287780762,0.74839621782303,0.92596614360809,0.34906268119812,-0.22023721039295,0.25877791643143
7,2945798754,0.642674,0.372843,-0.567795,0.354377,9.78415584564209,0.73684614896774,0.64188337326050,-0.67858934402466,0.18606345355511,0.88374060392380
8,2945815421,0.642747,0.372700,-0.567844,0.354317,9.81352424621582,0.73955607414246,0.73060482740402,-0.06109268963337,0.22115284204483,0.57950013875961
9,2945832088,0.642690,0.372629,-0.567993,0.354256,9.82471370697021,0.70355743169785,0.75574535131454,0.33988055586815,-0.90736180543900,0.87067818641663
10,2945848755,0.642522,0.372672,-0.568092,0.354357,9.88334560394287,0.71777701377869,0.78474038839340,1.89193344116211,-0.98481476306915,1.27757430076599
11,2945865422,0.642403,0.372792,-0.568088,0.354455,9.84002971649170,0.74072992801666,0.76896375417709,2.34119296073914,-0.53295552730560,0.58613383769989
12,2945882089,0.642317,0.372847,-0.568166,0.354427,9.82829856872559,0.74054205417633,0.77820354700089,1.27470564842224,-0.92817211151123,0.40526974201202
13,2945898756,0.642267,0.372830,-0.568248,0.354404,9.88301563262939,0.77660554647446,0.78139537572861,0.86846256256104,-0.62426471710205,0.63885754346848
14,2945915423,0.642266,0.372772,-0.568313,0.354361,9.88699054718018,0.74674427509308,0.75931823253632,0.51741486787796,-0.30445170402527,0.54338616132736
15,2945932090,0.642252,0.372762,-0.568329,0.354373,9.84450912475586,0.74757444858551,0.73708164691925,1.10100030899048,-0.11838829517365,0.50480067729950
16,2945948757,0.642209,0.372819,-0.568330,0.354389,9.83963584899902,0.73811614513397,0.73086696863174,1.54858231544495,-0.30597573518753,0.29267635941505
17,2945965424,0.642156,0.372885,-0.568314,0.354442,9.83615779876709,0.69239908456802,0.73677885532379,1.77927577495575,-0.21188744902611,0.40346398949623
18,2945982091,0.642120,0.372915,-0.568306,0.354489,9.82353019714355,0.71358513832092,0.72865128517151,1.53856742382050,-0.10358414798975,0.49958842992783
19,2945998758,0.642090,0.372909,-0.568348,0.354482,9.83250999450684,0.76678097248077,0.74971592426300,1.02814495563507,-0.34794211387634,0.50692653656006
20,2946015425,0.642079,0.372895,-0.568379,0.354464,9.84593200683594,0.77598357200623,0.77015024423599,0.93737357854843,-0.23591214418411,0.42250707745552
21,2946032092,0.642074,0.372892,-0.568402,0.354441,9.86248493194580,0.77127951383591,0.79924845695496,0.95090985298157,-0.21743260324001,0.32023555040359
22,2946048759,0.642094,0.372909,-0.568392,0.354404,9.88069343566895,0.75965499877930,0.78096026182175,1.01052343845367,-0.06067007780075,0.03611390665174
23,2946065426,0.642102,0.373001,-0.568341,0.354375,9.84898281097412,0.72110599279404,0.71089166402817,1.49907290935516,-0.08437463641167,-0.30310708284378
24,2946082093,0.642171,0.373048,-0.568256,0.354334,9.82945632934570,0.73313409090042,0.69874429702759,1.17800498008728,0.37753120064735,-0.41194829344749
25,2946098760,0.642186,0.373035,-0.568329,0.354206,9.80556297302246,0.72128164768219,0.73584401607513,0.34567540884018,-0.60291016101837,-0.01894059032202
26,2946115427,0.642190,0.372978,-0.568385,0.354168,9.86323070526123,0.71156132221222,0.75763428211212,0.55899721384048,-0.23055909574032,0.52301132678986
27,2946132094,0.642158,0.372994,-0.568427,0.354142,9.82873153686523,0.77216410636902,0.73160308599472,1.06516826152802,-0.46068921685219,0.34758996963501
28,2946148761,0.642130,0.373041,-0.568462,0.354085,9.85981464385986,0.75260454416275,0.75782388448715,1.08094549179077,-0.57326984405518,0.06004897132516
29,2946165428,0.642126,0.373080,-0.568479,0.354027,9.84937572479248,0.79335248470306,0.74607890844345,1.02326571941376,-0.37730705738068,-0.01709007471800
30,2946182095,0.642158,0.373115,-0.568470,0.353945,9.84825992584229,0.74733614921570,0.74960839748383,0.88164031505585,-0.17499235272408,-0.25743961334229
31,2946198762,0.642201,0.373085,-0.568479,0.353884,9.87292480468750,0.73669147491455,0.74313241243362,0.61147755384445,-0.00442459387705,0.10136226564646
32,2946215429,0.642224,0.373032,-0.568499,0.353867,9.86061191558838,0.76540136337280,0.77906960248947,0.69571781158447,0.04441241919994,0.46583101153374
33,2946232096,0.642264,0.372966,-0.568504,0.353855,9.86926651000977,0.75358557701111,0.78200566768646,0.65685045719147,0.22093513607979,0.45887708663940
34,2946248763,0.642304,0.372885,-0.568527,0.353832,9.83679103851318,0.73075503110886,0.77517151832581,0.50117647647858,0.15160155296326,0.51571166515350
35,2946265430,0.642345,0.372801,-0.568553,0.353803,9.84862804412842,0.73417747020721,0.71448332071304,0.45167994499207,0.12846049666405,0.50994879007339
36,2946282097,0.642364,0.372751,-0.568578,0.353780,9.82757472991943,0.76044827699661,0.73126286268234,0.70454770326614,-0.01703244447708,0.44643574953079
37,2946298764,0.642352,0.372706,-0.568630,0.353768,9.85142040252686,0.77239733934402,0.73195570707321,0.76717716455460,-0.24444118142128,0.62556457519531
38,2946315431,0.642348,0.372673,-0.568673,0.353739,9.85519886016846,0.76377058029175,0.73876172304153,0.75020879507065,-0.24127803742886,0.45524016022682
39,2946332098,0.642350,0.372699,-0.568677,0.353702,9.84294795989990,0.77008908987045,0.71140414476395,1.05341184139252,-0.21889251470566,0.07842607796192
40,2946348765,0.642345,0.372754,-0.568669,0.353667,9.83688163757324,0.73883116245270,0.73550289869308,1.27839386463165,-0.24510712921619,-0.03462196514010
41,2946365432,0.642338,0.372802,-0.568674,0.353621,9.83800983428955,0.73293405771255,0.72750401496887,1.15260994434357,-0.33333009481430,-0.02282731980085
42,2946382099,0.642317,0.372834,-0.568703,0.353579,9.83609199523926,0.74318569898605,0.75617218017578,1.07815361022949,-0.43895682692528,0.15372741222382
43,2946398766,0.642309,0.372801,-0.568754,0.353545,9.85337924957275,0.76661449670792,0.74282693862915,0.72086948156357,-0.30584767460823,0.46844351291656
44,2946415433,0.642310,0.372785,-0.568785,0.353511,9.84721279144287,0.76928281784058,0.74437129497528,0.81247323751450,-0.23172450065613,0.32362928986549
45,2946432100,0.642305,0.372795,-0.568800,0.353487,9.83754253387451,0.75634729862213,0.73145335912704,1.04766178131104,-0.21122151613235,0.24594593048096
46,2946448767,0.642296,0.372855,-0.568782,0.353469,9.83360862731934,0.74294239282608,0.70830005407333,1.35523200035095,-0.19367682933807,-0.00181209854782
47,2946465434,0.642280,0.372905,-0.568776,0.353453,9.84187126159668,0.74501609802246,0.72900819778442,1.32634079456329,-0.24126520752907,0.09581711143255
48,2946482101,0.642260,0.372925,-0.568808,0.353417,9.85695838928223,0.74822872877121,0.72381901741028,1.02079403400421,-0.40270206332207,0.23294749855995
49,2946498768,0.642246,0.372923,-0.568850,0.353376,9.84954738616943,0.74438095092773,0.73146766424179,0.89552241563797,-0.38747534155846,0.30517533421516
50,2946515435,0.642229,0.372927,-0.568876,0.353363,9.86493015289307,0.75388258695602,0.74707978963852,1.06006479263306,-0.26909983158112,0.37306812405586
51,2946532102,0.642224,0.372947,-0.568877,0.353349,9.85356616973877,0.76258713006973,0.76934516429901,1.13443136215210,-0.14799019694328,0.21569095551968
52,2946548769,0.642228,0.372989,-0.568859,0.353326,9.83505535125732,0.76694923639297,0.72664654254913,1.23777854442596,-0.11427105218172,0.01784564927220
53,2946565436,0.642220,0.373017,-0.568868,0.353296,9.85011672973633,0.74347573518753,0.74070990085602,1.13145399093628,-0.25934779644012,0.13847507536411
54,2946582103,0.642224,0.372994,-0.568892,0.353275,9.82831192016602,0.77360731363297,0.72482931613922,0.85691124200821,-0.13452430069447,0.38766101002693
55,2946598770,0.642229,0.372945,-0.568939,0.353243,9.83868217468262,0.75687509775162,0.73524010181427,0.65371930599213,-0.19165980815887,0.49671345949173
56,2946615437,0.642230,0.372907,-0.568984,0.353207,9.84788799285889,0.75574952363968,0.69478905200958,0.69612753391266,-0.24025991559029,0.44049999117851
57,2946632104,0.642232,0.372894,-0.569012,0.353172,9.84361743927002,0.74766296148300,0.73151642084122,0.82764869928360,-0.21785521507263,0.30279329419136
58,2946648771,0.642217,0.372898,-0.569048,0.353139,9.84871959686279,0.76808226108551,0.73391151428223,0.94136911630630,-0.35927575826645,0.30468869209290
59,2946665438,0.642192,0.372918,-0.569078,0.353113,9.86241912841797,0.77076590061188,0.73707878589630,1.09857988357544,-0.38606661558151,0.28267455101013
60,2946682105,0.642220,0.372879,-0.569104,0.353062,9.85848426818848,0.76355242729187,0.74882918596268,0.62445038557053,-0.08717922121286,0.26824176311493
61,2946698772,0.642171,0.372945,-0.569088,0.353107,9.82845211029053,0.72885406017303,0.63132756948471,1.73464572429657,-0.21161854267120,0.35593971610069
62,2946715439,0.642008,0.373171,-0.569114,0.353122,9.80100440979004,0.77982985973358,0.73886197805405,2.53715586662292,-1.30252742767334,-0.01949766837060
63,2946732106,0.642048,0.373134,-0.569158,0.353018,9.92907142639160,0.73737102746964,0.88919889926910,0.30710905790329,-0.26381722092628,0.04101873561740
64,2946748773,0.642141,0.372951,-0.569260,0.352879,9.77709007263184,0.75025409460068,0.62367564439774,-0.74623245000839,-0.03957802429795,0.47193962335587
65,2946765440,0.642158,0.372857,-0.569350,0.352801,9.82947731018066,0.73274344205856,0.65788984298706,0.12454173713923,-0.34891536831856,0.55186396837234
66,2946782107,0.642054,0.372824,-0.569526,0.352741,9.85136890411377,0.72402679920197,0.72413855791092,0.57911598682404,-1.30494797229767,0.90867459774017
67,2946798774,0.641871,0.372929,-0.569587,0.352865,9.90700054168701,0.76035761833191,0.77783113718033,2.36457085609436,-0.96653366088867,1.07435679435730
68,2946815441,0.641725,0.373103,-0.569596,0.352931,9.82739830017090,0.74945592880249,0.70150560140610,2.49282026290894,-0.90508246421814,0.32452571392059
69,2946832108,0.641629,0.373218,-0.569646,0.352904,9.87096500396729,0.74891090393066,0.73329621553421,1.63402605056763,-0.98965549468994,0.12819156050682
70,2946848775,0.641590,0.373242,-0.569688,0.352881,9.88757896423340,0.79167342185974,0.76410549879074,1.10287010669708,-0.50528097152710,0.34547689557076
71,2946865442,0.641587,0.373224,-0.569703,0.352882,9.88000488281250,0.76704508066177,0.71088260412216,1.01574850082397,-0.07286173105240,0.46000412106514
72,2946882109,0.641570,0.373261,-0.569683,0.352905,9.83411693572998,0.76306682825089,0.68022799491882,1.45183026790619,-0.05192334577441,0.28271296620369
73,2946898776,0.641508,0.373367,-0.569668,0.352932,9.81164073944092,0.73798555135727,0.70791184902191,1.89076781272888,-0.41069322824478,0.15265166759491
74,2946915443,0.641438,0.373460,-0.569669,0.352958,9.81860828399658,0.74399989843369,0.69912064075470,1.81290507316589,-0.47586473822594,0.26597505807877
75,2946932110,0.641369,0.373487,-0.569744,0.352934,9.82155513763428,0.74859571456909,0.68188661336899,1.14472126960754,-0.77568697929382,0.48694863915443
76,2946948777,0.641334,0.373488,-0.569820,0.352874,9.82744884490967,0.77222710847855,0.70911395549774,0.76885479688644,-0.67395341396332,0.34834551811218
77,2946965444,0.641308,0.373454,-0.569892,0.352840,9.87544631958008,0.78459155559540,0.73450815677643,0.71537542343140,-0.46933346986771,0.56738531589508
78,2946982111,0.641285,0.373444,-0.569930,0.352833,9.88344573974609,0.76895785331726,0.73136496543884,0.99776822328568,-0.29587149620056,0.50163745880127
79,2946998778,0.641304,0.373441,-0.569930,0.352800,9.89566230773926,0.75197350978851,0.72579437494278,0.92335057258606,-0.04480300843716,0.15727476775646
80,2947015445,0.641299,0.373500,-0.569894,0.352803,9.85373973846436,0.72736656665802,0.66432869434357,1.48211729526520,-0.04361202567816,0.04050648584962
81,2947032112,0.641358,0.373502,-0.569845,0.352774,9.83422470092773,0.76401072740555,0.69180870056152,0.95819669961929,0.32126009464264,-0.06572858989239
82,2947048779,0.641342,0.373490,-0.569898,0.352730,9.81739711761475,0.71319353580475,0.64845925569534,0.78558635711670,-0.42713016271591,0.36455196142197
83,2947065446,0.641320,0.373428,-0.569974,0.352714,9.88720893859863,0.72540771961212,0.76801276206970,0.62512272596359,-0.35486391186714,0.75535047054291
84,2947082113,0.641290,0.373402,-0.570001,0.352752,9.84202480316162,0.75331175327301,0.72936582565308,1.16674816608429,-0.11910546571016,0.75348728895187
85,2947098780,0.641257,0.373424,-0.570014,0.352767,9.85640716552734,0.74380999803543,0.74914574623108,1.32544445991516,-0.24143168330193,0.42780891060829
86,2947115447,0.641245,0.373433,-0.570015,0.352779,9.85470199584961,0.78341495990753,0.70136356353760,1.22627210617065,-0.08974049985409,0.38725122809410
87,2947132114,0.641264,0.373407,-0.570035,0.352739,9.87298202514648,0.77471739053726,0.70180565118790,0.75321817398071,-0.09427393227816,0.27040606737137
88,2947148781,0.641310,0.373314,-0.570065,0.352704,9.83846473693848,0.78203070163727,0.71332818269730,0.39319336414337,0.13674619793892,0.51521223783493
89,2947165448,0.641346,0.373237,-0.570094,0.352676,9.85817623138428,0.76770085096359,0.74239557981491,0.49770590662956,0.08662214875221,0.50560748577118
90,2947182115,0.641394,0.373174,-0.570088,0.352664,9.86642360687256,0.74552458524704,0.72465729713440,0.66264528036118,0.28580570220947,0.39684954285622
91,2947198782,0.641448,0.373094,-0.570089,0.352649,9.85689640045166,0.72722887992859,0.72435718774796,0.55500161647797,0.31679069995880,0.45549631118774
92,2947215449,0.641504,0.373005,-0.570108,0.352611,9.85930061340332,0.74650090932846,0.69649451971054,0.36877164244652,0.21556927263737,0.43126660585403
93,2947232116,0.641547,0.372941,-0.570121,0.352580,9.84023857116699,0.74792081117630,0.66816067695618,0.55717867612839,0.14006303250790,0.38033577799797
94,2947248783,0.641560,0.372914,-0.570127,0.352573,9.85363864898682,0.74540323019028,0.69100707769394,0.91048663854599,0.02608012966812,0.39579939842224
95,2947265450,0.641566,0.372892,-0.570153,0.352543,9.86826515197754,0.75139671564102,0.71153390407562,0.80670404434204,-0.16348586976528,0.34383133053780
96,2947282117,0.641568,0.372888,-0.570167,0.352521,9.85435009002686,0.74821454286575,0.71543693542480,0.95216488838196,-0.14528162777424,0.29137006402016
97,2947298784,0.641582,0.372894,-0.570151,0.352516,9.86684417724609,0.75048923492432,0.69659495353699,1.11146306991577,0.05046982318163,0.21191947162151
98,2947315451,0.641584,0.372905,-0.570150,0.352503,9.84593868255615,0.74563109874725,0.72424083948135,1.09679985046387,-0.09093148261309,0.23388235270977
99,2947332118,0.641585,0.372920,-0.570147,0.352489,9.83727264404297,0.74686890840530,0.71145910024643,1.12448716163635,-0.09833355993032,0.20545226335526
100,2947348785,0.641573,0.372917,-0.570171,0.352474,9.84114646911621,0.76188731193542,0.71527397632599,0.99212074279785,-0.22985476255417,0.37399664521217
101,2947365452,0.641556,0.372910,-0.570204,0.352462,9.86066627502441,0.76904833316803,0.70504575967789,0.98789453506470,-0.27168029546738,0.43518534302711
102,2947382119,0.641554,0.372900,-0.570227,0.352437,9.83496761322021,0.74604189395905,0.71520334482193,0.92436230182648,-0.19219127297401,0.33065992593765
103,2947398786,0.641544,0.372909,-0.570245,0.352417,9.84910297393799,0.74865877628326,0.72646409273148,1.05270111560822,-0.23751935362816,0.28432014584541
104,2947415453,0.641537,0.372903,-0.570264,0.352407,9.85441112518311,0.75336229801178,0.71422660350800,1.00204563140869,-0.16525954008102,0.38475391268730
105,2947432120,0.641527,0.372924,-0.570264,0.352400,9.87311935424805,0.74970906972885,0.72351109981537,1.18565011024475,-0.15401557087898,0.24758516252041
106,2947448787,0.641506,0.372958,-0.570268,0.352396,9.85725116729736,0.76282948255539,0.71497118473053,1.25061047077179,-0.24174545705318,0.24588830769062
107,2947465454,0.641481,0.372980,-0.570289,0.352385,9.85656833648682,0.75057268142700,0.71142387390137,1.15302610397339,-0.31758469343185,0.31771916151047
108,2947482121,0.641448,0.372991,-0.570324,0.352378,9.84575939178467,0.76033854484558,0.69830363988876,1.14040553569794,-0.37153142690659,0.43451943993568
109,2947498788,0.641426,0.372998,-0.570345,0.352376,9.84654045104980,0.75021690130234,0.71412509679794,1.13606405258179,-0.24700248241425,0.40465506911278
110,2947515455,0.641421,0.372986,-0.570366,0.352364,9.85483932495117,0.76752704381943,0.73268604278564,0.91954720020294,-0.16204516589642,0.39773961901665
111,2947532122,0.641411,0.372967,-0.570395,0.352356,9.84509086608887,0.77134478092194,0.70349222421646,0.94198381900787,-0.18901529908180,0.47133770585060
112,2947548789,0.641405,0.372953,-0.570426,0.352331,9.84071159362793,0.76951873302460,0.66065448522568,0.87947613000870,-0.23037984967232,0.37838926911354
113,2947565456,0.641384,0.372951,-0.570475,0.352292,9.83857727050781,0.73163819313049,0.67385399341583,0.87129288911819,-0.44515514373779,0.35139346122742
114,2947582123,0.641339,0.372945,-0.570553,0.352254,9.85290145874023,0.73651373386383,0.69088310003281,0.88896548748016,-0.64253944158554,0.50674724578857
115,2947598790,0.641284,0.372941,-0.570622,0.352246,9.86527824401855,0.75515609979630,0.71049785614014,1.01604306697845,-0.57766252756119,0.62138968706131
116,2947615457,0.641260,0.372929,-0.570674,0.352219,9.88602924346924,0.75965458154678,0.70491516590118,0.89289706945419,-0.40713304281235,0.45946618914604
117,2947632124,0.641275,0.372881,-0.570711,0.352183,9.84765911102295,0.76324129104614,0.73016494512558,0.60818630456924,-0.12922246754169,0.42237901687622
118,2947648791,0.641196,0.372973,-0.570710,0.352230,9.84595108032227,0.73407697677612,0.58399146795273,1.89977037906647,-0.45169907808304,0.37714695930481
119,2947665458,0.641026,0.373185,-0.570777,0.352207,9.82710075378418,0.76724195480347,0.74500626325607,2.21954512596130,-1.58077085018158,-0.01268468797207
120,2947682125,0.641031,0.373135,-0.570851,0.352130,9.92623138427734,0.71166884899139,0.77724575996399,0.39347508549690,-0.42470335960388,0.36961680650711
121,2947698792,0.641089,0.372953,-0.570984,0.352001,9.79177188873291,0.73373776674271,0.59329253435135,-0.65430837869644,-0.29507750272751,0.68576717376709
122,2947715459,0.641083,0.372860,-0.571095,0.351933,9.82157039642334,0.71708703041077,0.64448940753937,0.17232222855091,-0.50794458389282,0.70227456092834
123,2947732126,0.640954,0.372777,-0.571319,0.351892,9.85865879058838,0.74308252334595,0.67293554544449,0.37590479850769,-1.44192457199097,1.36811518669128
124,2947748793,0.640763,0.372851,-0.571420,0.351995,9.92505455017090,0.75875991582870,0.71967279911041,2.07448792457581,-1.15287244319916,1.22419738769531
125,2947765460,0.640629,0.373010,-0.571434,0.352047,9.82936191558838,0.74179500341415,0.66454154253006,2.32962846755981,-0.88427197933197,0.30307507514954
126,2947782127,0.640509,0.373142,-0.571498,0.352024,9.86262321472168,0.74035626649857,0.67890059947968,1.74968028068542,-1.17917668819427,0.16885171830654
127,2947798794,0.640431,0.373197,-0.571566,0.351997,9.89455795288086,0.75743818283081,0.70048695802689,1.28205657005310,-0.85037374496460,0.36854115128517
128,2947815461,0.640403,0.373187,-0.571611,0.351984,9.87340259552002,0.75416606664658,0.68272221088409,0.95724272727966,-0.36291918158531,0.49866005778313
129,2947832128,0.640363,0.373208,-0.571633,0.352000,9.85125732421875,0.75281488895416,0.64034229516983,1.28886950016022,-0.31209713220596,0.47590956091881
130,2947848795,0.640292,0.373274,-0.571652,0.352028,9.85009574890137,0.72897428274155,0.65699505805969,1.63177227973938,-0.49517670273781,0.42326262593269
131,2947865462,0.640215,0.373346,-0.571664,0.352072,9.85308551788330,0.70682024955750,0.65047186613083,1.75770986080170,-0.45970311760902,0.46077245473862
132,2947882129,0.640169,0.373394,-0.571685,0.352071,9.84048175811768,0.72411453723907,0.66438692808151,1.37888538837433,-0.43690785765648,0.31209075450897
133,2947898796,0.640134,0.373384,-0.571756,0.352030,9.87212848663330,0.75178116559982,0.65815728902817,0.83922576904297,-0.58136343955994,0.46406370401382
134,2947915463,0.640103,0.373366,-0.571818,0.352006,9.87096500396729,0.74986034631729,0.67976427078247,0.85839688777924,-0.45400428771973,0.53766185045242
135,2947932130,0.640088,0.373341,-0.571838,0.352026,9.90388393402100,0.75905948877335,0.69263494014740,1.05503845214844,-0.07798427343369,0.61150324344635
136,2947948797,0.640103,0.373318,-0.571841,0.352017,9.89513778686523,0.73454391956329,0.67906337976456,0.94994932413101,0.03351421281695,0.36177936196327
137,2947965464,0.640114,0.373341,-0.571807,0.352028,9.86208820343018,0.72159171104431,0.64239639043808,1.31107568740845,0.11973938345909,0.17694534361362
138,2947982131,0.640190,0.373319,-0.571740,0.352023,9.85690212249756,0.74388414621353,0.63536113500595,0.94953310489655,0.58803552389145,0.04539210349321
139,2947998798,0.640200,0.373300,-0.571773,0.351971,9.83032894134521,0.69729959964752,0.61241835355759,0.70119887590408,-0.23536148667336,0.24657343327999
140,2948015465,0.640189,0.373253,-0.571827,0.351953,9.88309669494629,0.71016526222229,0.74079233407974,0.74120599031448,-0.25653040409088,0.60748207569122
141,2948032132,0.640164,0.373241,-0.571840,0.351989,9.84466457366943,0.74874705076218,0.70070677995682,1.20056962966919,-0.08084008097649,0.63765370845795
142,2948048799,0.640134,0.373267,-0.571844,0.352011,9.85860443115234,0.73688900470734,0.68131995201111,1.33676528930664,-0.19398418068886,0.40904763340950
143,2948065466,0.640141,0.373244,-0.571849,0.352015,9.87561416625977,0.76685434579849,0.68315809965134,1.01182973384857,0.03026140667498,0.44553291797638
144,2948082133,0.640185,0.373209,-0.571840,0.351986,9.87750244140625,0.74310725927353,0.67783075571060,0.72965449094772,0.17318026721478,0.21455757319927
145,2948098800,0.640253,0.373135,-0.571842,0.351937,9.85371303558350,0.74368661642075,0.69097691774368,0.39081135392189,0.26839545369148,0.25371938943863
146,2948115467,0.640297,0.373082,-0.571837,0.351923,9.85867404937744,0.74985200166702,0.71040999889374,0.71774464845657,0.24389693140984,0.35900038480759
147,2948132134,0.640342,0.373026,-0.571827,0.351915,9.85548782348633,0.72198587656021,0.70330637693405,0.74039906263351,0.28764340281487,0.39411538839340
148,2948148801,0.640408,0.372932,-0.571833,0.351884,9.83612537384033,0.70787805318832,0.67021703720093,0.38981243968010,0.33877915143967,0.42327544093132
149,2948165468,0.640458,0.372826,-0.571870,0.351847,9.84846687316895,0.72211134433746,0.66538196802139,0.27242949604988,0.15211382508278,0.56218600273132
150,2948182135,0.640479,0.372745,-0.571908,0.351831,9.83644771575928,0.73600488901138,0.63283848762512,0.53995412588120,0.02325633168221,0.63139146566391
151,2948198802,0.640480,0.372713,-0.571926,0.351836,9.84633541107178,0.73861795663834,0.66171056032181,0.92173701524734,-0.03427619114518,0.53006762266159
152,2948215469,0.640470,0.372694,-0.571952,0.351831,9.85902309417725,0.73599284887314,0.65833020210266,1.00433790683746,-0.15972718596458,0.47976428270340
153,2948232136,0.640471,0.372681,-0.571975,0.351807,9.86775684356689,0.73539942502975,0.67443144321442,0.92942088842392,-0.16730856895447,0.34254422783852
154,2948248803,0.640467,0.372689,-0.571984,0.351789,9.86344146728516,0.72034615278244,0.66694641113281,1.05976378917694,-0.16572056710720,0.26521950960159
155,2948265470,0.640469,0.372683,-0.571995,0.351777,9.85719203948975,0.73906558752060,0.69215929508209,1.01143264770508,-0.10088201612234,0.33022451400757
156,2948282137,0.640490,0.372673,-0.571992,0.351753,9.87143802642822,0.74596685171127,0.66879934072495,0.98570472002029,0.01786485686898,0.21702919900417
157,2948298804,0.640500,0.372660,-0.572002,0.351733,9.86152362823486,0.74941861629486,0.66555875539780,0.91204261779785,-0.07123532891273,0.30165356397629
158,2948315471,0.640502,0.372642,-0.572022,0.351715,9.85597324371338,0.73809486627579,0.67283463478088,0.91315668821335,-0.12653313577175,0.37581512331963
159,2948332138,0.640507,0.372632,-0.572031,0.351701,9.86189079284668,0.73418503999710,0.65757989883423,0.97775197029114,-0.07783059030771,0.32590878009796
160,2948348805,0.640531,0.372624,-0.572016,0.351691,9.84954738616943,0.73490840196609,0.64062738418579,1.00106596946716,0.11035871505737,0.22482186555862
161,2948365472,0.640538,0.372624,-0.572005,0.351696,9.84100532531738,0.72529256343842,0.66861248016357,1.12464737892151,0.04254909232259,0.31219959259033
162,2948382139,0.640559,0.372607,-0.571999,0.351686,9.85319137573242,0.73142099380493,0.66496419906616,0.96151345968246,0.08435542881489,0.29974541068077
163,2948398806,0.640557,0.372611,-0.572001,0.351683,9.85044765472412,0.73154258728027,0.68034195899963,1.08216214179993,-0.08222316950560,0.31658577919006
164,2948415473,0.640568,0.372604,-0.571993,0.351682,9.84976196289062,0.72179609537125,0.68432480096817,1.06857466697693,0.04290127381682,0.31212916970253
165,2948432140,0.640574,0.372590,-0.572000,0.351673,9.86166286468506,0.71380347013474,0.69656366109848,0.97857165336609,-0.04030798748136,0.35555553436279
166,2948448807,0.640581,0.372588,-0.571996,0.351670,9.87237167358398,0.72092711925507,0.66400051116943,1.06434845924377,-0.00105652387720,0.30602052807808
167,2948465474,0.640598,0.372588,-0.571988,0.351653,9.85127639770508,0.73971939086914,0.66917204856873,1.00821828842163,0.01361315045506,0.19623170793056
168,2948482141,0.640611,0.372600,-0.571973,0.351640,9.85242080688477,0.74250710010529,0.70161873102188,1.08500516414642,0.00437977164984,0.16434389352798
169,2948498808,0.640643,0.372593,-0.571960,0.351612,9.86257839202881,0.74942243099213,0.67658561468124,0.88531571626663,0.08420174568892,0.12805068492889
170,2948515475,0.640674,0.372578,-0.571946,0.351593,9.86334896087646,0.74136567115784,0.67937731742859,0.89699506759644,0.12443928420544,0.20031690597534
171,2948532142,0.640714,0.372570,-0.571919,0.351572,9.86066436767578,0.73301535844803,0.65798562765121,0.90709930658340,0.19527120888233,0.10683055967093
172,2948548809,0.640758,0.372537,-0.571913,0.351535,9.84853839874268,0.71446543931961,0.66455942392349,0.71003520488739,0.13782192766666,0.18485964834690
173,2948565476,0.640779,0.372479,-0.571940,0.351515,9.86628055572510,0.73585116863251,0.69011861085892,0.65398824214935,0.00519297411665,0.49068164825439
174,2948582143,0.640785,0.372446,-0.571947,0.351528,9.85634613037109,0.74042743444443,0.68177664279938,0.96410042047501,0.06249498575926,0.52596956491470
175,2948598810,0.640793,0.372439,-0.571936,0.351539,9.86287403106689,0.74567967653275,0.69296467304230,1.09244561195374,0.07509642839432,0.36618474125862
176,2948615477,0.640828,0.372409,-0.571928,0.351521,9.85697174072266,0.75212979316711,0.68224847316742,0.83533251285553,0.15420125424862,0.27040606737137
177,2948632144,0.640808,0.372467,-0.571893,0.351553,9.84055519104004,0.73143237829208,0.61242687702179,1.61224234104156,-0.03161247447133,0.20721952617168
178,2948648811,0.640667,0.372712,-0.571859,0.351604,9.80323791503906,0.75505548715591,0.61950165033340,2.82828235626221,-0.90583795309067,-0.14375767111778
179,2948665478,0.640675,0.372696,-0.571914,0.351518,9.93622398376465,0.71706861257553,0.84684234857559,0.56714206933975,-0.43693348765373,0.14139491319656
180,2948682145,0.640758,0.372516,-0.571989,0.351435,9.78375816345215,0.75262331962585,0.54307532310486,-0.42892310023308,0.17195726931095,0.66767823696136
181,2948698812,0.640806,0.372383,-0.572073,0.351351,9.84890365600586,0.71746230125427,0.66038960218430,-0.15781265497208,-0.12166031450033,0.58978998661041
182,2948715479,0.640739,0.372285,-0.572244,0.351299,9.82187938690186,0.71793323755264,0.66177302598953,0.22700534760952,-0.95628201961517,1.09428966045380
183,2948732146,0.640562,0.372363,-0.572332,0.351397,9.90081691741943,0.76057434082031,0.70559948682785,2.06481885910034,-1.07030987739563,1.10886335372925
184,2948748813,0.640445,0.372515,-0.572319,0.351469,9.85756969451904,0.73892569541931,0.67961740493774,2.38653993606567,-0.63338279724121,0.30828726291656
185,2948765480,0.640330,0.372653,-0.572366,0.351457,9.86801815032959,0.74631053209305,0.68324935436249,1.82867002487183,-1.06504642963409,0.13851347565651
186,2948782147,0.640263,0.372696,-0.572424,0.351438,9.91330814361572,0.76316028833389,0.72599560022354,1.25462532043457,-0.72083741426468,0.39437153935432
187,2948798814,0.640248,0.372687,-0.572435,0.351455,9.90183353424072,0.73675787448883,0.66642993688583,1.11488234996796,-0.08744815737009,0.51042270660400
188,2948815481,0.640234,0.372692,-0.572431,0.351484,9.84041690826416,0.72344666719437,0.65313649177551,1.28520691394806,-0.02226383797824,0.46930149197578
189,2948832148,0.640178,0.372764,-0.572423,0.351521,9.82890510559082,0.70330756902695,0.62077605724335,1.74677324295044,-0.30532258749008,0.32995557785034
190,2948848815,0.640091,0.372826,-0.572435,0.351597,9.84670829772949,0.68000048398972,0.64567053318024,1.89206099510193,-0.39300763607025,0.67138564586639
191,2948865482,0.640023,0.372860,-0.572460,0.351642,9.83876228332520,0.71086573600769,0.62575095891953,1.53551995754242,-0.39008781313896,0.62368208169937
192,2948882149,0.640007,0.372836,-0.572513,0.351613,9.85322380065918,0.74782270193100,0.61724865436554,0.80379050970078,-0.35644555091858,0.48226150870323
193,2948898816,0.639992,0.372783,-0.572583,0.351581,9.88074588775635,0.75996005535126,0.67117267847061,0.61638242006302,-0.36879086494446,0.61958402395248
194,2948915483,0.639971,0.372772,-0.572603,0.351597,9.89849662780762,0.73891872167587,0.67191421985626,1.11867308616638,-0.14800938963890,0.54832947254181
195,2948932150,0.639985,0.372787,-0.572572,0.351607,9.88634395599365,0.75022774934769,0.65769034624100,1.23970592021942,0.13990938663483,0.21236768364906
196,2948948817,0.639983,0.372840,-0.572518,0.351642,9.87542533874512,0.71689826250076,0.58700156211853,1.60774767398834,0.13951237499714,0.14591556787491
197,2948965484,0.640064,0.372784,-0.572477,0.351622,9.83923149108887,0.75404560565948,0.70312279462814,0.64134198427200,0.54199028015137,0.17136175930500
198,2948982151,0.640098,0.372763,-0.572472,0.351590,9.81311607360840,0.69513511657715,0.59053623676300,0.84290111064911,0.08003968745470,0.18176051974297
199,2948998818,0.640091,0.372710,-0.572537,0.351554,9.86893749237061,0.71583509445190,0.73028951883316,0.62272793054581,-0.32118320465088,0.57489615678787
200,2949015485,0.640081,0.372701,-0.572530,0.351593,9.82447719573975,0.73927062749863,0.63808542490005,1.21203136444092,0.06350668519735,0.54302769899368
201,2949032152,0.640030,0.372738,-0.572536,0.351635,9.86448192596436,0.72109895944595,0.66432893276215,1.54973471164703,-0.25572359561920,0.51845222711563
202,2949048819,0.640008,0.372745,-0.572537,0.351666,9.87143993377686,0.76616078615189,0.68338584899902,1.30006873607635,-0.07312425971031,0.49755874276161
203,2949065486,0.640046,0.372747,-0.572506,0.351646,9.87139892578125,0.74692183732986,0.66937476396561,1.01156079769135,0.18456511199474,0.07489152997732
204,2949082153,0.640115,0.372676,-0.572499,0.351607,9.87040710449219,0.72838073968887,0.68141436576843,0.45105239748955,0.33117216825485,0.25056904554367
205,2949098820,0.640166,0.372600,-0.572501,0.351592,9.87055397033691,0.74509203433990,0.67578518390656,0.56724447011948,0.28902649879456,0.45251232385635
206,2949115487,0.640212,0.372519,-0.572504,0.351588,9.84992694854736,0.71280866861343,0.68121415376663,0.61159282922745,0.30836406350136,0.53547191619873
207,2949132154,0.640263,0.372439,-0.572503,0.351582,9.83860015869141,0.70229911804199,0.66929793357849,0.59919625520706,0.33820286393166,0.50031846761703
208,2949148821,0.640300,0.372376,-0.572523,0.351549,9.81684684753418,0.71357136964798,0.65908104181290,0.54704880714417,0.08383036404848,0.40101799368858
209,2949165488,0.640304,0.372336,-0.572565,0.351515,9.85426044464111,0.72320210933685,0.64618849754333,0.65271395444870,-0.21540917456150,0.44221603870392
210,2949182155,0.640291,0.372298,-0.572621,0.351490,9.85513591766357,0.72537326812744,0.63846725225449,0.73221582174301,-0.31210991740227,0.54893136024475
211,2949198822,0.640273,0.372273,-0.572670,0.351468,9.85455703735352,0.72671264410019,0.66445612907410,0.79433941841125,-0.33162683248520,0.50640147924423
212,2949215489,0.640248,0.372242,-0.572723,0.351459,9.88297748565674,0.72538685798645,0.67548340559006,0.86293023824692,-0.32189401984215,0.61201548576355
213,2949232156,0.640242,0.372229,-0.572758,0.351428,9.88235664367676,0.71841877698898,0.65877747535706,0.83190041780472,-0.27830117940903,0.35739958286285
214,2949248823,0.640243,0.372253,-0.572760,0.351396,9.89061737060547,0.70788687467575,0.65038412809372,1.07172501087189,-0.18610826134682,0.10108051449060
215,2949265490,0.640263,0.372302,-0.572716,0.351380,9.87345218658447,0.70713412761688,0.63739120960236,1.30961573123932,0.06659302115440,-0.08634681254625
216,2949282157,0.640282,0.372320,-0.572695,0.351362,9.79714488983154,0.71320343017578,0.65882730484009,1.11631035804749,0.03019097074866,0.08373431861401
217,2949298824,0.640268,0.372279,-0.572771,0.351305,9.84262943267822,0.78733438253403,0.67757385969162,0.55499511957169,-0.47818914055824,0.47449448704720
218,2949315491,0.640244,0.372215,-0.572887,0.351229,9.85439300537109,0.78836095333099,0.67835718393326,0.29493021965027,-0.68926972150803,0.61366742849350
219,2949332158,0.640211,0.372204,-0.572976,0.351155,9.86788463592529,0.76214605569839,0.66359096765518,0.62077510356903,-0.73442500829697,0.35906445980072
220,2949348825,0.640204,0.372253,-0.572993,0.351087,9.86978912353516,0.72377038002014,0.65573638677597,1.01942372322083,-0.43966117501259,-0.09901229292154
221,2949365492,0.640222,0.372354,-0.572954,0.351012,9.88631629943848,0.70024192333221,0.64468199014664,1.29281389713287,-0.23586094379425,-0.53227674961090
222,2949382159,0.640250,0.372455,-0.572922,0.350905,9.86431503295898,0.70747381448746,0.62638753652573,1.13480901718140,-0.31390285491943,-0.68062549829483
223,2949398826,0.640274,0.372509,-0.572927,0.350796,9.84965705871582,0.70305341482162,0.63560354709625,0.84200465679169,-0.38246801495552,-0.40097320079803
224,2949415493,0.640294,0.372513,-0.572951,0.350716,9.85827636718750,0.71369975805283,0.64315575361252,0.67905664443970,-0.28579288721085,-0.02090636640787
225,2949432160,0.640302,0.372489,-0.573003,0.350642,9.85508060455322,0.72446781396866,0.63122218847275,0.58276569843292,-0.37497630715370,0.22413671016693
226,2949448827,0.640299,0.372484,-0.573038,0.350596,9.87174320220947,0.72573733329773,0.62268370389938,0.78930652141571,-0.31308323144913,0.24615083634853
227,2949465494,0.640294,0.372491,-0.573053,0.350574,9.85261154174805,0.72137057781219,0.59806293249130,1.00117480754852,-0.20693138241768,0.26013535261154
228,2949482161,0.640276,0.372512,-0.573069,0.350557,9.86226367950439,0.72457677125931,0.64475399255753,1.12474334239960,-0.28009408712387,0.26247897744179
229,2949498828,0.640251,0.372516,-0.573101,0.350545,9.86109924316406,0.73216080665588,0.64291149377823,1.05210554599762,-0.32973146438599,0.41133990883827
230,2949515495,0.640224,0.372491,-0.573166,0.350515,9.84587574005127,0.72426980733871,0.67804932594299,0.77771681547165,-0.45346641540527,0.53420412540436
231,2949532162,0.640194,0.372456,-0.573248,0.350474,9.85240459442139,0.75500446557999,0.66481071710587,0.64254575967789,-0.54492938518524,0.57376283407211
232,2949548829,0.640185,0.372412,-0.573320,0.350420,9.85148143768311,0.77985602617264,0.66543030738831,0.53796917200089,-0.43455150723457,0.47912400960922
233,2949565496,0.640180,0.372319,-0.573431,0.350346,9.86911869049072,0.77072632312775,0.68146532773972,0.13951236009598,-0.51643526554108,0.66997700929642
234,2949582163,0.640162,0.372214,-0.573542,0.350307,9.87056541442871,0.76810026168823,0.69218057394028,0.24373047053814,-0.45497763156891,0.90624135732651
235,2949598830,0.640135,0.372139,-0.573636,0.350283,9.86092948913574,0.79597169160843,0.67178136110306,0.49534961581230,-0.44596189260483,0.83224630355835
236,2949615497,0.640116,0.372101,-0.573691,0.350267,9.88804721832275,0.79179185628891,0.69464975595474,0.77621203660965,-0.31567654013634,0.59802448749542
237,2949632164,0.640142,0.372045,-0.573712,0.350246,9.87907600402832,0.77834004163742,0.68391746282578,0.63090479373932,0.04585953801870,0.45433086156845
238,2949648831,0.640052,0.372150,-0.573695,0.350326,9.87249565124512,0.73689103126526,0.50001692771912,2.14508891105652,-0.37343958020210,0.44776117801666
239,2949665498,0.639975,0.372244,-0.573758,0.350265,9.85245037078857,0.75403970479965,0.73790502548218,1.30153489112854,-1.01622879505157,0.04430997744203
240,2949682165,0.640058,0.372088,-0.573794,0.350219,9.91494750976562,0.72286576032639,0.65161353349686,-0.06912227720022,0.38708472251892,0.64002293348312
241,2949698832,0.640180,0.371810,-0.573910,0.350103,9.82136344909668,0.76063013076782,0.56040680408478,-1.19394242763519,0.29631331562996,0.92844760417938
242,2949715499,0.640247,0.371653,-0.573968,0.350050,9.84247684478760,0.70246368646622,0.56112480163574,-0.11637770384550,0.20450457930565,0.70917719602585
243,2949732166,0.640191,0.371559,-0.574083,0.350064,9.88099861145020,0.70631825923920,0.58283549547195,0.56459355354309,-0.51374596357346,1.19430744647980
244,2949748833,0.640098,0.371612,-0.574068,0.350203,9.94806766510010,0.70972746610641,0.60572135448456,2.17795038223267,-0.11932316422462,0.92520761489868
245,2949765500,0.640069,0.371703,-0.573984,0.350298,9.87976455688477,0.70249307155609,0.58732134103775,2.11856746673584,0.23265297710896,0.25008240342140
246,2949782167,0.640086,0.371726,-0.573916,0.350354,9.91769409179688,0.70966571569443,0.60764175653458,1.51642549037933,0.40658882260323,0.27406871318817
247,2949798834,0.640158,0.371696,-0.573807,0.350432,9.94815158843994,0.70413088798523,0.62754464149475,1.35570585727692,0.99113476276398,0.35095801949501
248,2949815501,0.640272,0.371638,-0.573625,0.350582,9.99844074249268,0.67806386947632,0.62888002395630,1.57813930511475,1.73059904575348,0.47788172960281
249,2949832168,0.640433,0.371637,-0.573315,0.350797,9.97038364410400,0.67361491918564,0.62016278505325,2.24269914627075,2.49922299385071,0.10914850980043
250,2949848835,0.640660,0.371630,-0.572921,0.351034,9.95155239105225,0.65899938344955,0.60217571258545,2.38560581207275,3.21169233322144,-0.15346492826939
251,2949865502,0.640979,0.371470,-0.572527,0.351265,9.92790412902832,0.67230290174484,0.61504817008972,1.45181739330292,3.92259764671326,0.21190668642521
252,2949882169,0.641347,0.371236,-0.572128,0.351490,9.92224884033203,0.70651412010193,0.66058719158173,0.97681719064713,4.29760646820068,0.34049522876740
253,2949898836,0.641765,0.370991,-0.571685,0.351705,9.88891696929932,0.73726832866669,0.66719520092010,0.85735958814621,4.69293832778931,0.10461508482695
254,2949915503,0.642179,0.370730,-0.571247,0.351935,9.87330818176270,0.72824138402939,0.68539750576019,0.85248047113419,4.73744106292725,0.25873953104019
255,2949932170,0.642579,0.370491,-0.570810,0.352168,9.84739017486572,0.74649560451508,0.71759700775146,0.99390095472336,4.62683248519897,0.22251036763191
256,2949948837,0.642983,0.370260,-0.570367,0.352390,9.83931350708008,0.73218941688538,0.72525948286057,1.00698900222778,4.62319564819336,0.12314588576555
257,2949965504,0.643372,0.370102,-0.569910,0.352585,9.80549621582031,0.71153557300568,0.68534868955612,1.28591144084930,4.37855577468872,-0.28935310244560
258,2949982171,0.643807,0.369880,-0.569457,0.352757,9.81348609924316,0.76306116580963,0.70807605981827,0.77965068817139,4.63949728012085,-0.24158541858196
259,2949998838,0.644167,0.369726,-0.569066,0.352892,9.78764533996582,0.70386379957199,0.69123017787933,0.96840357780457,3.81161880493164,-0.33475160598755
260,2950015505,0.644509,0.369562,-0.568691,0.353044,9.83711338043213,0.71972531080246,0.83016562461853,0.98925215005875,3.73399877548218,-0.13086166977882
261,2950032172,0.644829,0.369448,-0.568299,0.353211,9.78746128082275,0.75155967473984,0.79266095161438,1.34814393520355,3.64534711837769,-0.24898107349873
262,2950048839,0.645137,0.369339,-0.567949,0.353324,9.81729984283447,0.74291914701462,0.87322151660919,1.11691856384277,3.25834488868713,-0.37615451216698
263,2950065506,0.645426,0.369209,-0.567639,0.353431,9.80887889862061,0.79117327928543,0.85379654169083,0.92340177297592,3.04575943946838,-0.17415992915630
264,2950082173,0.645744,0.369087,-0.567335,0.353465,9.79838943481445,0.78193140029907,0.86457794904709,0.64839828014374,2.92951679229736,-0.57790583372116
265,2950098840,0.646051,0.368967,-0.567048,0.353489,9.82146072387695,0.78431707620621,0.87098532915115,0.65021675825119,2.78516340255737,-0.55681365728378
266,2950115507,0.646303,0.368893,-0.566768,0.353555,9.80011272430420,0.75221639871597,0.89485198259354,1.07135367393494,2.52422142028809,-0.40079396963120
267,2950132174,0.646550,0.368829,-0.566480,0.353632,9.79153537750244,0.73227930068970,0.93676090240479,1.16168963909149,2.55236935615540,-0.40758767724037
268,2950148841,0.646787,0.368716,-0.566235,0.353709,9.83084106445312,0.71950256824493,0.89705145359039,0.90259146690369,2.43379545211792,-0.07957865297794
269,2950165508,0.647003,0.368587,-0.566018,0.353796,9.81237888336182,0.71373808383942,0.83821719884872,0.80175429582596,2.29459047317505,0.14573626220226
270,2950182175,0.647201,0.368469,-0.565822,0.353869,9.82025527954102,0.73596751689911,0.89423716068268,0.83496123552322,2.06773900985718,0.14343111217022
271,2950198842,0.647381,0.368398,-0.565602,0.353967,9.85876369476318,0.78151410818100,0.95204949378967,1.27214443683624,2.05315232276917,0.06208518147469
272,2950215509,0.647595,0.368357,-0.565321,0.354067,9.90045738220215,0.80703157186508,0.97730112075806,1.50874173641205,2.39975619316101,-0.28744494915009
273,2950232176,0.647864,0.368290,-0.564998,0.354160,9.90186786651611,0.77848356962204,0.99397456645966,1.30182957649231,2.83843779563904,-0.45669367909431
274,2950248843,0.648182,0.368149,-0.564673,0.354241,9.87419509887695,0.74322074651718,0.98102581501007,0.82683563232422,3.18995285034180,-0.34934443235397
275,2950265510,0.648498,0.367967,-0.564366,0.354343,9.82645320892334,0.73670738935471,0.94534122943878,0.63411283493042,3.25151300430298,-0.04511677101254
276,2950282177,0.648762,0.367772,-0.564115,0.354463,9.80642414093018,0.72717452049255,0.91844463348389,0.62541091442108,2.87579393386841,0.35070189833641
277,2950298844,0.649009,0.367622,-0.563847,0.354592,9.80564689636230,0.73934006690979,0.92181414365768,0.95690333843231,2.80000591278076,0.20807757973671
278,2950315511,0.649269,0.367528,-0.563551,0.354684,9.78324127197266,0.75898516178131,0.91215527057648,1.15323734283447,2.74746108055115,-0.26210111379623
279,2950332178,0.649529,0.367435,-0.563274,0.354745,9.77152252197266,0.76317441463470,0.89203804731369,0.98594814538956,2.58324599266052,-0.35991609096527
280,2950348845,0.649757,0.367333,-0.563041,0.354801,9.75807285308838,0.75666677951813,0.88618159294128,0.85590606927872,2.26770377159119,-0.16155210137367
281,2950365512,0.649917,0.367269,-0.562851,0.354876,9.74103641510010,0.75591641664505,0.90474057197571,1.17818427085876,1.76556038856506,0.05030334740877
282,2950382179,0.650037,0.367217,-0.562707,0.354938,9.77683353424072,0.77512180805206,0.89383053779602,1.16358482837677,1.34701025485992,0.16029706597328
283,2950398846,0.650133,0.367175,-0.562584,0.355000,9.77966499328613,0.77425086498260,0.92372965812683,1.22697651386261,1.14082813262939,0.23454830050468
284,2950415513,0.650243,0.367151,-0.562460,0.355022,9.78243350982666,0.78481972217560,0.95471292734146,1.11764860153198,1.05005669593811,-0.04838879406452
285,2950432180,0.650334,0.367155,-0.562347,0.355030,9.81775856018066,0.76782029867172,0.99982655048370,1.25750672817230,0.82639378309250,-0.14701049029827
286,2950448847,0.650443,0.367129,-0.562225,0.355049,9.82702922821045,0.77750295400620,1.02397000789642,1.10684001445770,1.03880000114441,-0.04630136117339
287,2950465514,0.650567,0.367082,-0.562103,0.355063,9.84947967529297,0.80098897218704,1.03415811061859,0.93802672624588,1.13001954555511,-0.02636187337339
288,2950482181,0.650714,0.366991,-0.561993,0.355062,9.82440948486328,0.76980757713318,1.02090871334076,0.56175059080124,1.23129224777222,0.04502712562680
289,2950498848,0.650830,0.366943,-0.561907,0.355037,9.79296016693115,0.77688986063004,1.00955283641815,0.72549253702164,0.84228640794754,-0.08776830881834
290,2950515515,0.650885,0.366947,-0.561825,0.355061,9.82308578491211,0.77785706520081,1.03396487236023,1.28090381622314,0.58314990997314,0.08927305787802
291,2950532182,0.650932,0.366989,-0.561720,0.355098,9.80595302581787,0.77045392990112,1.03257369995117,1.57815229892731,0.59936285018921,-0.04129407554865
292,2950548849,0.650966,0.367037,-0.561630,0.355127,9.80286788940430,0.78398752212524,1.03482127189636,1.52209866046906,0.44093540310860,-0.02989642508328
293,2950565516,0.650976,0.367066,-0.561560,0.355190,9.83228969573975,0.79433077573776,1.04243409633636,1.61265254020691,0.39485821127892,0.30637916922569
294,2950582183,0.650862,0.367304,-0.561468,0.355297,9.75447273254395,0.74366921186447,0.83672624826431,3.09332299232483,-0.38470920920372,-0.05527861788869
295,2950598850,0.650829,0.367294,-0.561551,0.355238,9.86894416809082,0.78557819128036,1.14489340782166,0.71100848913193,-0.66806232929230,0.40121009945869
296,2950615517,0.650916,0.367119,-0.561633,0.355131,9.70785808563232,0.77978128194809,0.82892549037933,-0.52450323104858,0.08302356302738,0.53064388036728
297,2950632184,0.650918,0.366919,-0.561843,0.355002,9.78853034973145,0.73685765266418,0.99918156862259,-0.80908584594727,-0.81537383794785,1.05470526218414
298,2950648851,0.650801,0.366779,-0.562137,0.354896,9.78450012207031,0.79455250501633,0.95490175485611,-0.31733494997025,-1.73668837547302,1.44080400466919
299,2950665518,0.650585,0.366785,-0.562366,0.354922,9.89436626434326,0.79690831899643,1.01061749458313,1.22989618778229,-1.85245788097382,1.53354752063751
300,2950682185,0.650419,0.366913,-0.562443,0.354973,9.84358119964600,0.78692406415939,0.95794105529785,2.10077285766602,-1.21781980991364,0.66945832967758
301,2950698852,0.650256,0.367095,-0.562511,0.354975,9.83630180358887,0.77032214403152,0.96176075935364,2.15921449661255,-1.41807913780212,0.20916609466076
302,2950715519,0.650138,0.367212,-0.562589,0.354947,9.86423397064209,0.79045081138611,0.99494934082031,1.62020802497864,-1.21180725097656,0.24822546541691
303,2950732186,0.650070,0.367282,-0.562629,0.354935,9.85707664489746,0.77617216110229,0.95309197902679,1.43192899227142,-0.68412154912949,0.27703973650932
304,2950748853,0.649995,0.367389,-0.562659,0.354914,9.80649089813232,0.77958858013153,0.93417358398438,1.62410140037537,-0.78525340557098,0.09052809327841
305,2950765520,0.649912,0.367503,-0.562707,0.354872,9.81524372100830,0.78176188468933,0.92668879032135,1.54684042930603,-0.96327441930771,0.03434662520885
306,2950782187,0.649800,0.367623,-0.562762,0.354864,9.82456779479980,0.76273608207703,0.94920647144318,1.75614738464355,-1.03747439384460,0.25059461593628
307,2950798854,0.649694,0.367759,-0.562785,0.354882,9.83812522888184,0.77546620368958,0.92575126886368,1.99749612808228,-0.84411138296127,0.20417162775993
308,2950815521,0.649619,0.367909,-0.562781,0.354870,9.85369873046875,0.78567677736282,0.95147031545639,1.91835892200470,-0.71797508001328,-0.12146820873022
309,2950832188,0.649566,0.368034,-0.562767,0.354859,9.85259532928467,0.77043026685715,0.95092815160751,1.80709087848663,-0.51488560438156,-0.09554175287485
310,2950848855,0.649520,0.368133,-0.562757,0.354856,9.86449527740479,0.77779668569565,0.98458415269852,1.67312395572662,-0.42677804827690,0.02150186337531
311,2950865522,0.649501,0.368209,-0.562733,0.354850,9.87155914306641,0.77529847621918,0.96195060014725,1.53363728523254,-0.21173377335072,0.00440538441762
312,2950882189,0.649461,0.368314,-0.562706,0.354858,9.84003543853760,0.74514770507812,0.89686805009842,1.77891099452972,-0.31863480806351,0.00124861928634
313,2950898856,0.649539,0.368283,-0.562679,0.354791,9.80576324462891,0.77912682294846,1.00167417526245,0.57138735055923,0.28585693240166,-0.10170803219080
314,2950915523,0.649561,0.368207,-0.562733,0.354744,9.83147621154785,0.71071398258209,0.92133110761642,0.39225846529007,-0.13328208029270,0.50287973880768
315,2950932190,0.649480,0.368248,-0.562761,0.354804,9.81826114654541,0.71896344423294,0.92427074909210,1.64707577228546,-0.43158036470413,0.71706593036652
316,2950948857,0.649393,0.368314,-0.562802,0.354832,9.79248142242432,0.76516610383987,0.92736905813217,1.64450156688690,-0.65295094251633,0.52211487293243
317,2950965524,0.649304,0.368336,-0.562863,0.354873,9.83022689819336,0.79584628343582,0.99080830812454,1.42786979675293,-0.61001133918762,0.81070613861084
318,2950982191,0.649235,0.368322,-0.562943,0.354887,9.87207031250000,0.83048266172409,0.99085104465485,1.10037267208099,-0.60044485330582,0.82766157388687
319,2950998858,0.649253,0.368236,-0.562999,0.354853,9.88034248352051,0.79414319992065,0.96684235334396,0.45762848854065,-0.09882658720016,0.62239497900009
320,2951015525,0.649316,0.368101,-0.563037,0.354819,9.86399841308594,0.78201639652252,0.97230637073517,0.16588065028191,0.27723187208176,0.65457093715668
321,2951032192,0.649397,0.367925,-0.563071,0.354798,9.84208106994629,0.76015573740005,0.96167355775833,-0.05445899814367,0.49263459444046,0.81347209215164
322,2951048859,0.649466,0.367758,-0.563097,0.354806,9.77468681335449,0.74859642982483,0.92140364646912,0.15549471974373,0.53074634075165,0.91975212097168
323,2951065526,0.649504,0.367596,-0.563151,0.354819,9.81895637512207,0.76362526416779,0.92825561761856,0.18621711432934,0.28836059570312,1.05929005146027
324,2951082193,0.649527,0.367463,-0.563199,0.354838,9.81820583343506,0.76588422060013,0.91753321886063,0.41312000155449,0.20663045346737,1.00643825531006
325,2951098860,0.649535,0.367364,-0.563239,0.354861,9.82562446594238,0.77428621053696,0.92388933897018,0.65297019481659,0.10607499629259,0.90881550312042
326,2951115527,0.649547,0.367304,-0.563246,0.354890,9.84053611755371,0.77144646644592,0.93569594621658,0.91462934017181,0.19043041765690,0.68735516071320
327,2951132194,0.649572,0.367262,-0.563241,0.354896,9.84501743316650,0.75488245487213,0.93311965465546,0.87314969301224,0.19064812362194,0.45398506522179
328,2951148861,0.649608,0.367218,-0.563224,0.354902,9.82537746429443,0.75870215892792,0.90291035175323,0.87957847118378,0.29094743728638,0.40188884735107
329,2951165528,0.649634,0.367165,-0.563237,0.354888,9.81223678588867,0.76802307367325,0.94458597898483,0.72364836931229,0.09407544136047,0.44997671246529
330,2951182195,0.649660,0.367088,-0.563279,0.354855,9.85740756988525,0.79874587059021,0.95203286409378,0.46802088618279,-0.03057515807450,0.53141230344772
331,2951198862,0.649690,0.367011,-0.563314,0.354824,9.86427783966064,0.78222739696503,0.98789507150650,0.48710229992867,0.02421680651605,0.51517373323441
332,2951215529,0.649741,0.366950,-0.563314,0.354794,9.85958576202393,0.77306157350540,0.96810078620911,0.59021902084351,0.22778654098511,0.31725171208382
333,2951232196,0.649792,0.366909,-0.563303,0.354762,9.83384418487549,0.75852429866791,0.94461226463318,0.68116974830627,0.22170354425907,0.19961258769035
334,2951248863,0.649865,0.366892,-0.563248,0.354731,9.81587505340576,0.73754149675369,0.93031114339828,0.87884849309921,0.44742822647095,-0.04785092547536
335,2951265530,0.649917,0.366840,-0.563242,0.354700,9.83537101745605,0.75831675529480,0.96300089359283,0.64296835660934,0.22914402186871,0.25952070951462
336,2951282197,0.649964,0.366776,-0.563244,0.354677,9.83181953430176,0.75810933113098,0.97060030698776,0.61679220199585,0.23274259269238,0.37351000308990
337,2951298864,0.650029,0.366704,-0.563241,0.354639,9.83656215667725,0.75519841909409,0.94756621122360,0.46028581261635,0.29567298293114,0.27983155846596
338,2951315531,0.650096,0.366627,-0.563231,0.354609,9.82857322692871,0.75605672597885,0.94483757019043,0.49785965681076,0.36983457207680,0.31659856438637
339,2951332198,0.650170,0.366566,-0.563199,0.354589,9.81899929046631,0.74858081340790,0.93306225538254,0.68449938297272,0.48860064148903,0.22293291985989
340,2951348865,0.650255,0.366511,-0.563159,0.354552,9.81766510009766,0.75210857391357,0.94886791706085,0.58299618959427,0.50266200304031,0.07601848244667
341,2951365532,0.650344,0.366437,-0.563138,0.354498,9.82106590270996,0.71905010938644,0.94003826379776,0.39447399973869,0.43574884533882,0.11295201629400
342,2951382199,0.650420,0.366334,-0.563146,0.354454,9.82487106323242,0.73689538240433,0.93807494640350,0.26525792479515,0.35572201013565,0.37436804175377
343,2951398866,0.650474,0.366260,-0.563153,0.354419,9.82647037506104,0.74797111749649,0.94454109668732,0.47793292999268,0.22480268776417,0.35491517186165
344,2951415533,0.650527,0.366192,-0.563160,0.354381,9.83682346343994,0.76252251863480,0.95952504873276,0.49365913867950,0.19461809098721,0.31868600845337
345,2951432200,0.650622,0.366128,-0.563115,0.354344,9.80514812469482,0.75321722030640,0.96998184919357,0.54053038358688,0.58934819698334,0.07226622849703
346,2951448867,0.650706,0.366066,-0.563078,0.354313,9.83449459075928,0.79631763696671,1.04681313037872,0.57843720912933,0.51728689670563,0.14276519417763
347,2951465534,0.650638,0.366294,-0.562934,0.354431,9.74485111236572,0.71482199430466,0.73504954576492,3.08973693847656,0.07635145634413,-0.21569095551968
348,2951482201,0.650652,0.366373,-0.562948,0.354302,9.79672908782959,0.74671339988708,1.08098995685577,0.88270324468613,-0.57072132825851,-0.54578739404678
349,2951498868,0.650785,0.366171,-0.563052,0.354102,9.72416877746582,0.71058481931686,0.89361017942429,-1.14776277542114,-0.00790792144835,0.16257663071156
350,2951515535,0.650750,0.366048,-0.563241,0.353991,9.78681945800781,0.69276255369186,0.90591937303543,-0.28218153119087,-1.00454938411713,0.87928402423859
351,2951532202,0.650604,0.366085,-0.563423,0.353932,9.80295276641846,0.76585012674332,0.96111291646957,0.97990345954895,-1.66183519363403,0.74456119537354
352,2951548869,0.650388,0.366249,-0.563534,0.353982,9.88695430755615,0.73718142509460,0.98974645137787,2.31506776809692,-1.65075778961182,0.72946256399155
353,2951565536,0.650207,0.366484,-0.563500,0.354125,9.85806274414062,0.77536541223526,0.94862353801727,3.24169683456421,-0.80756193399429,0.42477378249168
354,2951582203,0.650068,0.366746,-0.563466,0.354164,9.81253910064697,0.75740391016006,0.93529790639877,2.90732312202454,-0.97134244441986,-0.24812944233418
355,2951598870,0.649990,0.366877,-0.563474,0.354159,9.82147693634033,0.77472573518753,0.96006417274475,1.86707580089569,-0.70854324102402,0.01666105911136
356,2951615537,0.649922,0.366979,-0.563478,0.354172,9.83718490600586,0.78947812318802,0.97564131021500,1.72710287570953,-0.54775959253311,0.17603608965874
357,2951632204,0.649859,0.367081,-0.563475,0.354186,9.81233978271484,0.76762861013412,0.96612060070038,1.80536222457886,-0.48713433742523,0.15335603058338
358,2951648871,0.649796,0.367163,-0.563494,0.354188,9.80001068115234,0.74540776014328,0.92956924438477,1.60224080085754,-0.56529152393341,0.23220475018024
359,2951665538,0.649725,0.367229,-0.563531,0.354191,9.80735492706299,0.76801300048828,0.93908727169037,1.47703325748444,-0.64266747236252,0.35914126038551
360,2951682205,0.649651,0.367282,-0.563573,0.354202,9.82691287994385,0.75419020652771,0.91132706403732,1.50058412551880,-0.61524909734726,0.47047969698906
361,2951698872,0.649608,0.367329,-0.563616,0.354165,9.82803821563721,0.78063809871674,0.88763177394867,1.17572546005249,-0.60803914070129,0.20319837331772
362,2951715539,0.649596,0.367337,-0.563670,0.354092,9.85749626159668,0.78277558088303,0.94728600978851,0.74212783575058,-0.54442989826202,0.14617165923119
363,2951732206,0.649578,0.367337,-0.563721,0.354046,9.87990283966064,0.77689087390900,0.96321994066238,0.84639722108841,-0.45542579889297,0.30370256304741
364,2951748873,0.649578,0.367378,-0.563709,0.354023,9.87472152709961,0.76447618007660,0.92805194854736,1.23377656936646,-0.14963580667973,0.04409226402640
365,2951765540,0.649595,0.367452,-0.563693,0.353940,9.79017734527588,0.76696276664734,0.93167525529861,1.10340785980225,-0.29565379023552,-0.39732342958450
366,2951782207,0.649631,0.367455,-0.563689,0.353876,9.82659149169922,0.76605921983719,0.91503685712814,0.77985543012619,-0.06036271899939,-0.06379482895136
367,2951798874,0.649654,0.367390,-0.563760,0.353789,9.81381416320801,0.71298128366470,0.88855159282684,0.25082513689995,-0.33009004592896,0.32672840356827
368,2951815541,0.649572,0.367444,-0.563809,0.353805,9.78840827941895,0.73160612583160,0.84824794530869,1.49639642238617,-0.67395341396332,0.52399742603302
369,2951832208,0.649464,0.367523,-0.563916,0.353750,9.83868408203125,0.74808567762375,0.96964937448502,1.25164151191711,-1.27472496032715,0.31876286864281
370,2951848875,0.649372,0.367552,-0.564002,0.353752,9.84255790710449,0.80150121450424,0.97378635406494,1.26415312290192,-0.84714627265930,0.67791688442230
371,2951865542,0.649306,0.367624,-0.564046,0.353727,9.85420894622803,0.81962162256241,0.94415265321732,1.37212359905243,-0.73623061180115,0.21620962023735
372,2951882209,0.649287,0.367657,-0.564099,0.353644,9.85452461242676,0.79729306697845,0.94682663679123,0.84261935949326,-0.64762347936630,0.01144887600094
373,2951898876,0.649293,0.367633,-0.564182,0.353526,9.82636165618896,0.80437099933624,0.92629843950272,0.31717488169670,-0.63064223527908,0.10350091755390
374,2951915543,0.649292,0.367594,-0.564278,0.353415,9.81459522247314,0.77740645408630,0.93496358394623,0.28529983758926,-0.66346496343613,0.23773705959320
375,2951932210,0.649229,0.367593,-0.564379,0.353371,9.82868003845215,0.76624226570129,0.94171106815338,0.82015699148178,-0.85347276926041,0.55007112026215
376,2951948877,0.649172,0.367593,-0.564488,0.353300,9.82487106323242,0.74747669696808,0.92317664623260,0.70606523752213,-0.92979854345322,0.43373823165894
377,2951965544,0.649121,0.367587,-0.564611,0.353204,9.82888412475586,0.77826225757599,0.92760974168777,0.51467442512512,-1.02114641666412,0.36829784512520
378,2951982211,0.649093,0.367551,-0.564728,0.353108,9.83696174621582,0.76728934049606,0.89623856544495,0.36119031906128,-0.83056223392487,0.41285112500191
379,2951998878,0.649037,0.367531,-0.564861,0.353016,9.83310508728027,0.75982439517975,0.88543993234634,0.49241703748703,-1.03775620460510,0.47987955808640
380,2952015545,0.648948,0.367557,-0.564985,0.352955,9.82740592956543,0.77110344171524,0.89615452289581,0.90848881006241,-1.15869283676147,0.49057918787003
381,2952032212,0.648833,0.367636,-0.565083,0.352927,9.84907531738281,0.73445248603821,0.89587712287903,1.41446113586426,-1.19385266304016,0.43394309282303
382,2952048879,0.648722,0.367740,-0.565162,0.352897,9.85286998748779,0.74623948335648,0.90857625007629,1.57684588432312,-1.15740585327148,0.27052134275436
383,2952065546,0.648623,0.367823,-0.565247,0.352856,9.84508800506592,0.76059037446976,0.91336953639984,1.35327267646790,-1.11104679107666,0.29106271266937
384,2952082213,0.648552,0.367878,-0.565317,0.352816,9.85598564147949,0.78490048646927,0.88433074951172,1.19464027881622,-0.86622798442841,0.28842461109161
385,2952098880,0.648497,0.367927,-0.565377,0.352771,9.84879875183105,0.78072714805603,0.87665188312531,1.12607514858246,-0.76040905714035,0.22959224879742
386,2952115547,0.648435,0.368004,-0.565422,0.352733,9.82644653320312,0.78742009401321,0.87742942571640,1.35749864578247,-0.77005219459534,0.13888485729694
387,2952132214,0.648368,0.368098,-0.565470,0.352682,9.82823657989502,0.76914656162262,0.85511004924774,1.41196417808533,-0.87496179342270,0.02451135218143
388,2952148881,0.648281,0.368216,-0.565516,0.352645,9.83557891845703,0.75730746984482,0.87861913442612,1.59503066539764,-0.96402990818024,0.04480940848589
389,2952165548,0.648200,0.368320,-0.565564,0.352606,9.84061717987061,0.77952367067337,0.90570271015167,1.47289681434631,-0.92913275957108,0.07640268653631
390,2952182215,0.648140,0.368375,-0.565640,0.352538,9.82582473754883,0.77999931573868,0.89626806974411,1.05347597599030,-0.91975837945938,0.15599414706230
391,2952198882,0.648088,0.368410,-0.565715,0.352477,9.82766342163086,0.79471594095230,0.86943829059601,0.94856631755829,-0.82212275266647,0.24326941370964
392,2952215549,0.648023,0.368462,-0.565776,0.352443,9.83408451080322,0.78489965200424,0.86345684528351,1.19475555419922,-0.78253841400146,0.29507109522820
393,2952232216,0.647960,0.368523,-0.565833,0.352404,9.83012294769287,0.76443111896515,0.86271846294403,1.25380551815033,-0.79128521680832,0.22010272741318
394,2952248883,0.647870,0.368607,-0.565922,0.352340,9.85013484954834,0.76015019416809,0.84465515613556,1.25538086891174,-1.15526723861694,0.17373095452785
395,2952265550,0.647794,0.368680,-0.565995,0.352284,9.84043598175049,0.80682766437531,0.86111921072006,1.22862827777863,-0.98647952079773,0.17467860877514
396,2952282217,0.647726,0.368737,-0.566079,0.352214,9.83844661712646,0.79902625083923,0.87717920541763,1.06620550155640,-0.99594348669052,0.17668922245502
397,2952298884,0.647703,0.368757,-0.566149,0.352124,9.82001304626465,0.79473102092743,0.86826640367508,0.78053414821625,-0.72215646505356,0.10077315568924
398,2952315551,0.647533,0.368923,-0.566227,0.352137,9.80142593383789,0.78492361307144,0.76155143976212,2.08781909942627,-1.42651844024658,0.35307106375694
399,2952332218,0.647294,0.369182,-0.566411,0.352009,9.80413150787354,0.81658256053925,0.95438289642334,1.88690042495728,-2.74796748161316,-0.19425311684608
400,2952348885,0.647267,0.369132,-0.566554,0.351882,9.88716983795166,0.78514766693115,0.87956476211548,0.09200081229210,-0.99057751893997,0.38732799887657
401,2952365552,0.647304,0.368932,-0.566792,0.351640,9.75642776489258,0.76266264915466,0.73104476928711,-1.40716803073883,-1.08996748924255,0.55632054805756
402,2952382219,0.647187,0.368878,-0.567055,0.351488,9.77892589569092,0.72874432802200,0.76268917322159,-0.06743183732033,-1.92727255821228,0.81768542528152
403,2952398886,0.646943,0.368903,-0.567362,0.351415,9.86832523345947,0.75278049707413,0.83204358816147,0.80896437168121,-2.60214138031006,1.28320908546448
404,2952415553,0.646668,0.369079,-0.567520,0.351481,9.92217636108398,0.75139647722244,0.84729307889938,2.45830726623535,-2.07754230499268,1.00897407531738
405,2952432220,0.646446,0.369298,-0.567611,0.351513,9.85901069641113,0.75614559650421,0.82109534740448,2.56577777862549,-1.76752603054047,0.39428192377090
406,2952448887,0.646280,0.369461,-0.567728,0.351458,9.90230560302734,0.75692898035049,0.84931635856628,1.75553286075592,-1.74389839172363,0.15931099653244
407,2952465554,0.646165,0.369520,-0.567837,0.351432,9.88110065460205,0.76756495237350,0.84357404708862,1.29152023792267,-1.18759024143219,0.53869903087616
408,2952482221,0.646077,0.369562,-0.567913,0.351426,9.86580467224121,0.76797932386398,0.81879973411560,1.30655515193939,-0.84394478797913,0.55247873067856
409,2952498888,0.645981,0.369628,-0.567982,0.351422,9.85501480102539,0.77018451690674,0.81123113632202,1.47785270214081,-0.89355665445328,0.46958318352699
410,2952515555,0.645854,0.369687,-0.568070,0.351450,9.83226490020752,0.75469893217087,0.82433795928955,1.57187688350677,-1.00177025794983,0.76261812448502
411,2952532222,0.645750,0.369747,-0.568108,0.351517,9.83239269256592,0.73997139930725,0.77677726745605,1.79235088825226,-0.59440034627914,0.74644368886948
412,2952548889,0.645674,0.369776,-0.568166,0.351534,9.82250595092773,0.74416297674179,0.75354921817780,1.44499158859253,-0.61719554662704,0.63926726579666
413,2952565556,0.645622,0.369768,-0.568250,0.351500,9.84237098693848,0.78376227617264,0.78531879186630,0.87259906530380,-0.68649071455002,0.55561631917953
414,2952582223,0.645559,0.369743,-0.568356,0.351473,9.86247539520264,0.78234386444092,0.81737267971039,0.79649090766907,-0.77011626958847,0.73910564184189
415,2952598890,0.645515,0.369709,-0.568439,0.351454,9.86098766326904,0.79456007480621,0.81538659334183,0.77994519472122,-0.55568677186966,0.70205688476562
416,2952615557,0.645510,0.369668,-0.568484,0.351432,9.87712574005127,0.76249164342880,0.82434231042862,0.69240087270737,-0.22429679334164,0.51551949977875
417,2952632224,0.645493,0.369667,-0.568509,0.351425,9.86405944824219,0.74445319175720,0.74715173244476,1.04590725898743,-0.24001018702984,0.41564288735390
418,2952648891,0.645535,0.369614,-0.568506,0.351408,9.83073997497559,0.79388225078583,0.81782138347626,0.70632147789001,0.21845071017742,0.35993528366089
419,2952665558,0.645531,0.369616,-0.568540,0.351360,9.80311775207520,0.72881036996841,0.70392817258835,0.80482780933380,-0.34079614281654,0.20997290313244
420,2952682225,0.645483,0.369580,-0.568641,0.351323,9.85838222503662,0.73363155126572,0.84441787004471,0.70084035396576,-0.68760502338409,0.68718880414963
421,2952698892,0.645429,0.369632,-0.568647,0.351356,9.80055522918701,0.76011019945145,0.76505804061890,1.57413089275360,-0.32217577099800,0.41895973682404
422,2952715559,0.645342,0.369707,-0.568676,0.351390,9.84593105316162,0.75686043500900,0.83079868555069,1.72858798503876,-0.61065149307251,0.48183885216713
423,2952732226,0.645291,0.369726,-0.568718,0.351395,9.85228538513184,0.77504307031631,0.80080980062485,1.24995100498199,-0.46271261572838,0.51787596940994
424,2952748893,0.645272,0.369735,-0.568746,0.351375,9.85253620147705,0.78558266162872,0.79933321475983,1.01312303543091,-0.31406930088997,0.32855969667435
425,2952765560,0.645271,0.369686,-0.568799,0.351344,9.87322998046875,0.78857606649399,0.78746128082275,0.63604015111923,-0.25005036592484,0.52708375453949
426,2952782227,0.645287,0.369632,-0.568831,0.351321,9.84866428375244,0.79404318332672,0.83865994215012,0.59869676828384,-0.05198737606406,0.48189014196396
427,2952798894,0.645317,0.369589,-0.568830,0.351311,9.84471511840820,0.77045822143555,0.83076453208923,0.81946545839310,0.15311270952225,0.38850620388985
428,2952815561,0.645353,0.369540,-0.568833,0.351291,9.82955646514893,0.73248952627182,0.79674679040909,0.72168266773224,0.15213301777840,0.36008256673813
429,2952832228,0.645364,0.369491,-0.568867,0.351267,9.83215618133545,0.74470567703247,0.76895642280579,0.67796808481216,-0.09485021978617,0.48251760005951
430,2952848895,0.645355,0.369459,-0.568910,0.351248,9.84263134002686,0.77110022306442,0.77327597141266,0.76322007179260,-0.24605481326580,0.50530016422272
431,2952865562,0.645357,0.369427,-0.568953,0.351209,9.85455036163330,0.74507772922516,0.78797793388367,0.64568328857422,-0.25592848658562,0.39191269874573
432,2952882229,0.645371,0.369384,-0.568988,0.351172,9.85165023803711,0.74375814199448,0.79096764326096,0.61437177658081,-0.13402484357357,0.38910812139511
433,2952898896,0.645361,0.369365,-0.569022,0.351155,9.85397052764893,0.76125156879425,0.76461428403854,0.91685771942139,-0.22957301139832,0.44796606898308
434,2952915563,0.645329,0.369398,-0.569044,0.351144,9.86695957183838,0.74436795711517,0.76837080717087,1.25696885585785,-0.37783211469650,0.29472532868385
435,2952932230,0.645291,0.369440,-0.569081,0.351109,9.83934307098389,0.76009833812714,0.77797245979309,1.15273809432983,-0.54531359672546,0.19702568650246
436,2952948897,0.645272,0.369450,-0.569125,0.351064,9.83787441253662,0.75056886672974,0.77713257074356,0.91966247558594,-0.45495203137398,0.25645998120308
437,2952965564,0.645254,0.369428,-0.569196,0.351002,9.84588050842285,0.75718504190445,0.77173405885696,0.62703078985214,-0.53953146934509,0.37429755926132
438,2952982231,0.645241,0.369400,-0.569263,0.350948,9.85289287567139,0.76125127077103,0.76122254133224,0.63301783800125,-0.46264857053757,0.40578198432922
439,2952998898,0.645219,0.369372,-0.569316,0.350933,9.84266376495361,0.76606559753418,0.77548193931580,0.83559507131577,-0.33261933922768,0.56794238090515
440,2953015565,0.645206,0.369332,-0.569362,0.350922,9.86728382110596,0.75901651382446,0.78131419420242,0.79921859502792,-0.23228795826435,0.59112823009491
441,2953032232,0.645187,0.369324,-0.569390,0.350921,9.85411834716797,0.76074224710464,0.75753116607666,1.02093493938446,-0.22944495081902,0.47594797611237
442,2953048899,0.645165,0.369353,-0.569405,0.350906,9.85097599029541,0.75130575895309,0.77516347169876,1.15424931049347,-0.31094458699226,0.24539530277252
443,2953065566,0.645154,0.369368,-0.569422,0.350884,9.84534645080566,0.74411529302597,0.77304887771606,1.06821596622467,-0.25094681978226,0.25274610519409
444,2953082233,0.645133,0.369366,-0.569457,0.350868,9.85479640960693,0.74485653638840,0.79326748847961,0.94416093826294,-0.32724705338478,0.40234991908073
445,2953098900,0.645119,0.369342,-0.569504,0.350841,9.85716342926025,0.75653636455536,0.78316944837570,0.84147971868515,-0.31599026918411,0.47147861123085
446,2953115567,0.645117,0.369329,-0.569525,0.350825,9.83699226379395,0.75745362043381,0.77782040834427,0.93200778961182,-0.15542426705360,0.37047493457794
447,2953132234,0.645106,0.369326,-0.569536,0.350832,9.83912563323975,0.75018864870071,0.75713348388672,1.05366802215576,-0.11403411626816,0.42857727408409
448,2953148901,0.645106,0.369330,-0.569547,0.350809,9.82986164093018,0.77258592844009,0.78219854831696,1.01391708850861,-0.16661699116230,0.24941644072533
449,2953165568,0.645112,0.369309,-0.569580,0.350765,9.83617591857910,0.72953915596008,0.75471204519272,0.72524917125702,-0.22918884456158,0.29148530960083
450,2953182235,0.645103,0.369271,-0.569639,0.350727,9.84908866882324,0.75014919042587,0.76097297668457,0.64438992738724,-0.34593150019646,0.48839572072029
451,2953198902,0.645089,0.369243,-0.569692,0.350697,9.84963703155518,0.77443361282349,0.79904603958130,0.79033100605011,-0.34661024808884,0.48232555389404
452,2953215569,0.645096,0.369195,-0.569742,0.350652,9.85830974578857,0.76307302713394,0.78444141149521,0.56244206428528,-0.23842221498489,0.43200939893723
453,2953232236,0.645121,0.369152,-0.569772,0.350604,9.85832309722900,0.75380730628967,0.82013159990311,0.56239724159241,-0.09990233927965,0.30733320116997
454,2953248903,0.644967,0.369390,-0.569727,0.350709,9.81625080108643,0.72000157833099,0.57809942960739,3.06226730346680,-0.75907719135284,0.12484911084175
455,2953265570,0.644919,0.369459,-0.569829,0.350560,9.90483951568604,0.79794353246689,1.01373648643494,0.69582027196884,-1.22846841812134,-0.21852116286755
456,2953282237,0.644980,0.369333,-0.569881,0.350496,9.83024597167969,0.72910642623901,0.68800508975983,0.05905007943511,0.10627990216017,0.53255212306976
457,2953298904,0.645063,0.369203,-0.569930,0.350400,9.81137084960938,0.78726267814636,0.74836426973343,-0.20647037029266,0.13518382608891,0.34104591608047
458,2953315571,0.645054,0.369158,-0.570042,0.350282,9.78165721893311,0.71130484342575,0.73104935884476,0.25444936752319,-0.76291906833649,0.30349767208099
459,2953332238,0.644888,0.369132,-0.570238,0.350295,9.87574291229248,0.72238564491272,0.79048925638199,0.92799937725067,-1.47557973861694,1.39289546012878
460,2953348905,0.644741,0.369223,-0.570284,0.350396,9.85978984832764,0.76438599824905,0.74075168371201,2.16116142272949,-0.78922343254089,0.89636754989624
461,2953365572,0.644586,0.369321,-0.570392,0.350403,9.86441898345947,0.74684327840805,0.78203147649765,1.68348443508148,-1.35217773914337,0.62664031982422
462,2953382239,0.644513,0.369367,-0.570447,0.350397,9.88208770751953,0.75672894716263,0.77662700414658,1.34692060947418,-0.69864398241043,0.44659581780434
463,2953398906,0.644492,0.369404,-0.570457,0.350381,9.86281681060791,0.74698340892792,0.74448764324188,1.20753633975983,-0.30550190806389,0.19853684306145
464,2953415573,0.644479,0.369429,-0.570453,0.350385,9.85356807708740,0.75658351182938,0.75347059965134,1.25344705581665,-0.12792903184891,0.27130252122879
465,2953432240,0.644452,0.369491,-0.570438,0.350394,9.83511734008789,0.74883055686951,0.72686183452606,1.51378738880157,-0.21296320855618,0.15726198256016
466,2953448907,0.644392,0.369554,-0.570444,0.350426,9.82810401916504,0.72096222639084,0.71275264024734,1.64871501922607,-0.37643623352051,0.39058083295822
467,2953465574,0.644342,0.369610,-0.570443,0.350463,9.82791996002197,0.71825337409973,0.69917011260986,1.65984380245209,-0.27192363142967,0.40451416373253
468,2953482241,0.644319,0.369646,-0.570458,0.350441,9.82507705688477,0.76173669099808,0.72169017791748,1.18968427181244,-0.34515038132668,0.18989256024361
469,2953498908,0.644316,0.369658,-0.570489,0.350384,9.85017013549805,0.76584720611572,0.76599681377411,0.86035627126694,-0.37251752614975,0.12125051766634
470,2953515575,0.644307,0.369648,-0.570520,0.350362,9.86972618103027,0.76992189884186,0.76441794633865,0.89187258481979,-0.24975581467152,0.37436801195145
471,2953532242,0.644299,0.369648,-0.570532,0.350356,9.86208724975586,0.74932539463043,0.76788002252579,0.98629373311996,-0.15260685980320,0.35057380795479
472,2953548909,0.644333,0.369612,-0.570541,0.350317,9.88082504272461,0.74088644981384,0.76846617460251,0.68051654100418,0.03888007253408,0.24572822451591
473,2953565576,0.644347,0.369631,-0.570500,0.350337,9.85330009460449,0.71833509206772,0.72421461343765,1.32730138301849,0.19527122378349,0.21508263051510
474,2953582243,0.644393,0.369671,-0.570417,0.350347,9.80421638488770,0.76844459772110,0.72416067123413,1.38180518150330,0.43085685372353,-0.10008803009987
475,2953598910,0.644415,0.369684,-0.570447,0.350242,9.82521152496338,0.71943992376328,0.76662439107895,0.61184895038605,-0.39206001162529,-0.16050837934017
476,2953615577,0.644410,0.369665,-0.570457,0.350256,9.87357807159424,0.71349477767944,0.79625135660172,1.06448948383331,-0.02551665157080,0.51097333431244
477,2953632244,0.644370,0.369721,-0.570444,0.350293,9.82080650329590,0.74883407354355,0.76881539821625,1.62832713127136,-0.18792676925659,0.34087938070297
478,2953648911,0.644334,0.369767,-0.570440,0.350317,9.85112476348877,0.74089950323105,0.77577143907547,1.50575768947601,-0.21902059018612,0.34121236205101
479,2953665578,0.644339,0.369735,-0.570457,0.350312,9.87085914611816,0.77667140960693,0.76372337341309,0.94174051284790,-0.02903839573264,0.47902148962021
480,2953682245,0.644378,0.369684,-0.570469,0.350276,9.86122322082520,0.76784390211105,0.77750325202942,0.58478909730911,0.08575130999088,0.31120711565018
481,2953698912,0.644418,0.369640,-0.570469,0.350249,9.86135196685791,0.78389388322830,0.74601471424103,0.68604898452759,0.14599238336086,0.28602984547615
482,2953715579,0.644443,0.369634,-0.570450,0.350239,9.85990810394287,0.76485162973404,0.79621976613998,1.01385307312012,0.12607850134373,0.21039551496506
483,2953732246,0.644474,0.369629,-0.570411,0.350252,9.84520816802979,0.72704875469208,0.78873872756958,1.13211977481842,0.29499426484108,0.23558562994003
484,2953748913,0.644515,0.369578,-0.570405,0.350241,9.82704830169678,0.71473526954651,0.77152389287949,0.74650764465332,0.23690466582775,0.37754395604134
485,2953765580,0.644533,0.369514,-0.570441,0.350217,9.82596969604492,0.73277205228806,0.72810506820679,0.57620882987976,-0.04470056295395,0.52326738834381
486,2953782247,0.644529,0.369452,-0.570493,0.350204,9.84637355804443,0.75996780395508,0.75551432371140,0.65047293901443,-0.17409591376781,0.66248524188995
487,2953798914,0.644507,0.369424,-0.570539,0.350199,9.85871219635010,0.76496779918671,0.74468016624451,0.91908603906631,-0.27892866730690,0.59362548589706
488,2953815581,0.644486,0.369416,-0.570578,0.350181,9.86138725280762,0.75786936283112,0.76817297935486,0.90745145082474,-0.33557760715485,0.43841895461082
489,2953832248,0.644458,0.369422,-0.570607,0.350181,9.87962722778320,0.74612498283386,0.74932080507278,1.12940490245819,-0.29633253812790,0.45516327023506
490,2953848915,0.644437,0.369441,-0.570625,0.350169,9.87310409545898,0.73788756132126,0.75289469957352,1.16772139072418,-0.27896711230278,0.30189689993858
491,2953865582,0.644423,0.369487,-0.570628,0.350142,9.84631919860840,0.74996936321259,0.73077058792114,1.18484985828400,-0.29649260640144,0.07781778275967
492,2953882249,0.644410,0.369501,-0.570650,0.350115,9.84142971038818,0.76005202531815,0.75312870740891,1.03960669040680,-0.29647338390350,0.24708570539951
493,2953898916,0.644380,0.369505,-0.570699,0.350085,9.83541488647461,0.74282735586166,0.74418628215790,0.95805579423904,-0.46818092465401,0.38260248303413
494,2953915583,0.644359,0.369528,-0.570724,0.350060,9.83006000518799,0.75982689857483,0.73195981979370,1.12622880935669,-0.35890439152718,0.24908353388309
495,2953932250,0.644329,0.369552,-0.570755,0.350039,9.82882404327393,0.74260455369949,0.74470573663712,1.14921629428864,-0.40747886896133,0.30774942040443
496,2953948917,0.644291,0.369575,-0.570787,0.350032,9.84463405609131,0.74449503421783,0.74752962589264,1.21287667751312,-0.40650558471680,0.38638040423393
497,2953965584,0.644270,0.369566,-0.570817,0.350031,9.84892463684082,0.74221181869507,0.75882977247238,1.03416395187378,-0.24182869493961,0.49418419599533
498,2953982251,0.644248,0.369561,-0.570849,0.350026,9.85495948791504,0.75043398141861,0.75375193357468,1.03244793415070,-0.27298659086227,0.46367952227592
499,2953998918,0.644217,0.369563,-0.570870,0.350046,9.88031673431396,0.76457834243774,0.75259727239609,1.18849337100983,-0.21595989167690,0.54343748092651
500,2954015585,0.644208,0.369574,-0.570863,0.350063,9.85281181335449,0.74143481254578,0.74947959184647,1.25456118583679,-0.03646608069539,0.37052610516548
501,2954032252,0.644212,0.369588,-0.570853,0.350057,9.85812473297119,0.74936658143997,0.72068363428116,1.17773604393005,-0.03049832209945,0.22029484808445
502,2954048919,0.644225,0.369595,-0.570834,0.350056,9.83523845672607,0.75982487201691,0.73199158906937,1.15141892433167,0.07119049876928,0.22115284204483
503,2954065586,0.644238,0.369589,-0.570841,0.350028,9.84654521942139,0.74409341812134,0.71743369102478,0.91354089975357,-0.08292751759291,0.22682604193687
504,2954082253,0.644239,0.369555,-0.570873,0.350009,9.84360122680664,0.73439067602158,0.72105425596237,0.80094110965729,-0.15139664709568,0.46294313669205
505,2954098920,0.644233,0.369525,-0.570899,0.350009,9.83711719512939,0.75036197900772,0.74498355388641,0.90118277072906,-0.11518671363592,0.53405034542084
506,2954115587,0.644238,0.369506,-0.570916,0.349992,9.86701965332031,0.75542277097702,0.73369866609573,0.87103676795959,-0.09679680317640,0.36070364713669
507,2954132254,0.644291,0.369448,-0.570926,0.349938,9.84420108795166,0.74542820453644,0.75209426879883,0.47400140762329,0.12093034386635,0.22523805499077
508,2954148921,0.644199,0.369587,-0.570884,0.350033,9.83588123321533,0.73792207241058,0.59108847379684,2.39173984527588,-0.31560611724854,0.32237425446510
509,2954165588,0.644093,0.369758,-0.570928,0.349973,9.84265136718750,0.79208445549011,0.88105762004852,1.76511859893799,-1.21916460990906,-0.23342134058475
510,2954182255,0.644152,0.369661,-0.570958,0.349917,9.89188575744629,0.71250575780869,0.78473407030106,0.21816258132458,0.14225934445858,0.40194651484489
511,2954198922,0.644234,0.369493,-0.571031,0.349826,9.80537128448486,0.75062435865402,0.66306078433990,-0.40490475296974,0.12748719751835,0.57796335220337
512,2954215589,0.644272,0.369416,-0.571081,0.349755,9.80031013488770,0.72957849502563,0.74485605955124,0.26301684975624,-0.11699241399765,0.35779663920403
513,2954232256,0.644159,0.369359,-0.571239,0.349765,9.87661838531494,0.70753544569016,0.74293351173401,0.78995960950851,-1.02528262138367,1.27619099617004
514,2954248923,0.644008,0.369435,-0.571277,0.349901,9.88919448852539,0.76140081882477,0.77206170558929,2.25280332565308,-0.64351260662079,1.09988594055176
515,2954265590,0.643885,0.369585,-0.571285,0.349957,9.84174442291260,0.74277627468109,0.74854910373688,2.27801895141602,-0.78404951095581,0.31342259049416
516,2954282257,0.643800,0.369677,-0.571321,0.349955,9.86844062805176,0.75967985391617,0.74708038568497,1.60468685626984,-0.76749098300934,0.25532019138336
517,2954298924,0.643776,0.369712,-0.571321,0.349963,9.86837673187256,0.76866948604584,0.75881421566010,1.33718764781952,-0.20392188429832,0.29300928115845
518,2954315591,0.643772,0.369715,-0.571312,0.349983,9.84309291839600,0.75486117601395,0.73188418149948,1.20243942737579,0.01748066954315,0.39749631285667
519,2954332258,0.643753,0.369754,-0.571298,0.349999,9.83242225646973,0.74509024620056,0.68822377920151,1.42363059520721,-0.11230528354645,0.26247894763947
520,2954348925,0.643693,0.369828,-0.571294,0.350039,9.81375026702881,0.71508878469467,0.69882899522781,1.72747409343719,-0.33623707294464,0.35121411085129
521,2954365592,0.643626,0.369889,-0.571302,0.350085,9.81530380249023,0.71390652656555,0.70521247386932,1.69031000137329,-0.37537330389023,0.48440018296242
522,2954382259,0.643594,0.369914,-0.571324,0.350080,9.83451175689697,0.75483834743500,0.69269698858261,1.21242833137512,-0.34018146991730,0.34801253676414
523,2954398926,0.643574,0.369901,-0.571390,0.350023,9.86391067504883,0.77326965332031,0.73200809955597,0.71431255340576,-0.53045821189880,0.34609159827232
524,2954415593,0.643554,0.369883,-0.571441,0.349995,9.88226127624512,0.76827657222748,0.73392939567566,0.85045695304871,-0.37933048605919,0.46210435032845
525,2954432260,0.643548,0.369898,-0.571451,0.349977,9.87373542785645,0.74069041013718,0.76972156763077,1.08286654949188,-0.19417627155781,0.23855668306351
526,2954448927,0.643566,0.369886,-0.571448,0.349959,9.87765884399414,0.73838382959366,0.74954384565353,0.92288964986801,0.02009316533804,0.25442376732826
527,2954465594,0.643555,0.369944,-0.571404,0.349991,9.83218097686768,0.71977621316910,0.65392857789993,1.60948932170868,0.04658950492740,0.15806877613068
528,2954482261,0.643601,0.369954,-0.571349,0.349983,9.82580757141113,0.77124851942062,0.70209717750549,1.07752621173859,0.33187654614449,0.00923337787390
529,2954498928,0.643596,0.369924,-0.571428,0.349895,9.82273674011230,0.71693658828735,0.70569658279419,0.44367596507072,-0.56595736742020,0.27659150958061
530,2954515595,0.643567,0.369880,-0.571485,0.349904,9.87392807006836,0.72091645002365,0.76308947801590,0.87924551963806,-0.28228396177292,0.76397556066513
531,2954532262,0.643496,0.369927,-0.571513,0.349938,9.81886100769043,0.76725208759308,0.71953463554382,1.52960336208344,-0.47941219806671,0.54092746973038
532,2954548929,0.643426,0.370015,-0.571525,0.349955,9.86800765991211,0.72640615701675,0.74498742818832,1.69830131530762,-0.53865420818329,0.26644894480705
533,2954565596,0.643384,0.370030,-0.571553,0.349971,9.86808586120605,0.77336889505386,0.75413012504578,1.25677025318146,-0.32990437746048,0.51829218864441
534,2954582263,0.643410,0.369999,-0.571571,0.349926,9.86856937408447,0.75746929645538,0.72598439455032,0.66388756036758,-0.06844993680716,0.23472115397453
535,2954598930,0.643459,0.369920,-0.571600,0.349871,9.86149501800537,0.76284790039062,0.74213451147079,0.36411654949188,0.07037729769945,0.36273345351219
536,2954615597,0.643497,0.369868,-0.571608,0.349844,9.86154556274414,0.76895964145660,0.74667274951935,0.63664197921753,0.12652672827244,0.34899860620499
537,2954632264,0.643533,0.369849,-0.571590,0.349827,9.83530139923096,0.71459537744522,0.75069040060043,0.91707539558411,0.17935292422771,0.20423565804958
538,2954648931,0.643572,0.369797,-0.571596,0.349800,9.82573318481445,0.69947040081024,0.74047875404358,0.64860314130783,0.13605464994907,0.34322294592857
539,2954665598,0.643601,0.369717,-0.571640,0.349759,9.83709812164307,0.71758031845093,0.70908319950104,0.40625581145287,-0.03537754341960,0.50673449039459
540,2954682265,0.643607,0.369659,-0.571684,0.349739,9.83957195281982,0.74220448732376,0.68732976913452,0.64497900009155,-0.12835162878036,0.57460808753967
541,2954698932,0.643606,0.369622,-0.571722,0.349715,9.85229301452637,0.76085972785950,0.69784003496170,0.79288589954376,-0.18964922428131,0.47612085938454
542,2954715599,0.643586,0.369629,-0.571747,0.349704,9.86123847961426,0.74310368299484,0.71160823106766,1.06396436691284,-0.27749440073967,0.37257513403893
543,2954732266,0.643561,0.369680,-0.571756,0.349681,9.86589813232422,0.72523790597916,0.70664048194885,1.26160466670990,-0.36925187706947,0.11110788583755
544,2954748933,0.643543,0.369719,-0.571767,0.349658,9.85921382904053,0.73711830377579,0.70768052339554,1.16655600070953,-0.31825700402260,0.15099966526031
545,2954765600,0.643530,0.369760,-0.571772,0.349630,9.85392379760742,0.72936862707138,0.72377794981003,1.16923248767853,-0.28800836205482,0.09284602850676
546,2954782267,0.643508,0.369778,-0.571797,0.349610,9.84116554260254,0.74393105506897,0.71179795265198,1.08244395256042,-0.33804279565811,0.28875756263733
547,2954798934,0.643486,0.369780,-0.571838,0.349582,9.84139347076416,0.75025886297226,0.72542440891266,0.94825899600983,-0.39031830430031,0.36192020773888
548,2954815601,0.643462,0.369804,-0.571867,0.349552,9.84476566314697,0.76934176683426,0.71440947055817,1.06274771690369,-0.40120372176170,0.23997816443443
549,2954832268,0.643441,0.369861,-0.571875,0.349518,9.83290576934814,0.75053101778030,0.71582484245300,1.28876698017120,-0.38686060905457,0.03637003153563
550,2954848935,0.643415,0.369904,-0.571895,0.349487,9.86108684539795,0.73921430110931,0.71130156517029,1.21657776832581,-0.41785204410553,0.14279080927372
551,2954865602,0.643381,0.369924,-0.571933,0.349467,9.84924316406250,0.75037896633148,0.69388759136200,1.10322868824005,-0.44322133064270,0.34574580192566
552,2954882269,0.643349,0.369938,-0.571974,0.349443,9.86268615722656,0.73951375484467,0.71506917476654,1.05990469455719,-0.44578266143799,0.35295581817627
553,2954898936,0.643314,0.369957,-0.572006,0.349436,9.84414577484131,0.73599231243134,0.69827967882156,1.15622138977051,-0.39369919896126,0.39980146288872
554,2954915603,0.643277,0.369986,-0.572037,0.349421,9.85734653472900,0.76103472709656,0.71962672472000,1.17571258544922,-0.43242558836937,0.31973615288734
555,2954932270,0.643256,0.370015,-0.572055,0.349402,9.86107635498047,0.73649609088898,0.68945968151093,1.15720736980438,-0.32533890008926,0.23119302093983
556,2954948937,0.643253,0.370029,-0.572065,0.349375,9.85354232788086,0.74173969030380,0.72222858667374,1.05158054828644,-0.20260284841061,0.19551451504230
557,2954965604,0.643263,0.370034,-0.572066,0.349350,9.84875106811523,0.74185180664062,0.70517873764038,1.01951336860657,-0.08550158888102,0.18220873177052
558,2954982271,0.643263,0.370043,-0.572074,0.349327,9.85567665100098,0.75142717361450,0.72057521343231,1.00943493843079,-0.16625842452049,0.21834827959538
559,2954998938,0.643268,0.370038,-0.572080,0.349314,9.85105800628662,0.74172121286392,0.70550596714020,0.96246117353439,-0.07640907168388,0.29786285758018
560,2955015605,0.643263,0.370042,-0.572101,0.349283,9.84069728851318,0.74794733524323,0.66725945472717,0.92565572261810,-0.24652864038944,0.24211683869362
561,2955032272,0.643265,0.370046,-0.572114,0.349253,9.84333419799805,0.72673779726028,0.66744685173035,0.96607261896133,-0.17948740720749,0.21891175210476
562,2955048939,0.643250,0.370030,-0.572159,0.349227,9.86980628967285,0.72106444835663,0.68873459100723,0.84432262182236,-0.33171647787094,0.43418645858765
563,2955065606,0.643230,0.370025,-0.572193,0.349212,9.86139297485352,0.75611793994904,0.70320218801498,0.98707503080368,-0.29894503951073,0.42175152897835
564,2955082273,0.643222,0.370037,-0.572202,0.349199,9.87679672241211,0.77636122703552,0.71727359294891,1.10073137283325,-0.17833480238914,0.27140495181084
565,2955098940,0.643255,0.370016,-0.572201,0.349162,9.85562324523926,0.75052076578140,0.74620425701141,0.76604384183884,0.04140932857990,0.17302019894123
566,2955115607,0.643236,0.370056,-0.572177,0.349194,9.86472606658936,0.73893147706985,0.63409501314163,1.49879121780396,-0.03409690782428,0.30694258213043
567,2955132274,0.643079,0.370338,-0.572134,0.349255,9.78790760040283,0.76249527931213,0.64682763814926,3.06899046897888,-0.99304908514023,-0.24044561386108
568,2955148941,0.643092,0.370339,-0.572178,0.349157,9.92781352996826,0.71805918216705,0.89398741722107,0.60572755336761,-0.43712556362152,-0.01839632168412
569,2955165608,0.643170,0.370179,-0.572250,0.349064,9.76011657714844,0.75509113073349,0.56356734037399,-0.34799334406853,0.08915779739618,0.54777878522873
570,2955182275,0.643233,0.370078,-0.572311,0.348958,9.81931400299072,0.73469245433807,0.69489282369614,-0.07533334940672,-0.09601560980082,0.26965048909187
571,2955198942,0.643159,0.370026,-0.572467,0.348894,9.83820819854736,0.72996371984482,0.68913513422012,0.42193078994751,-1.06552028656006,0.82913434505463
572,2955215609,0.642981,0.370126,-0.572542,0.348992,9.90867328643799,0.74906742572784,0.72905737161636,2.21173334121704,-1.06973361968994,0.99611616134644
573,2955232276,0.642859,0.370290,-0.572535,0.349055,9.86454677581787,0.76247876882553,0.70056200027466,2.38947272300720,-0.72857248783112,0.24309013783932
574,2955248943,0.642751,0.370405,-0.572590,0.349041,9.87667465209961,0.74681174755096,0.72311663627625,1.68044912815094,-1.02494966983795,0.21355865895748
575,2955265610,0.642691,0.370435,-0.572659,0.349005,9.87946224212646,0.78548103570938,0.72481262683868,1.07062375545502,-0.74510550498962,0.37938815355301
576,2955282277,0.642680,0.370465,-0.572664,0.348986,9.89006042480469,0.75251233577728,0.67748343944550,1.16344392299652,-0.23684702813625,0.17138737440109
577,2955298944,0.642665,0.370505,-0.572648,0.348998,9.85689926147461,0.76000237464905,0.66737395524979,1.38988602161407,-0.10122779756784,0.23083446919918
578,2955315611,0.642612,0.370593,-0.572637,0.349020,9.82495307922363,0.72454345226288,0.65865808725357,1.76631581783295,-0.35685536265373,0.18231120705605
579,2955332278,0.642536,0.370676,-0.572629,0.349084,9.83604812622070,0.71287339925766,0.65723854303360,1.88905167579651,-0.34936359524727,0.45155185461044
580,2955348945,0.642490,0.370706,-0.572651,0.349101,9.85140895843506,0.73819279670715,0.63393574953079,1.36916530132294,-0.35630464553833,0.45888990163803
581,2955365612,0.642471,0.370709,-0.572697,0.349058,9.86170387268066,0.77166342735291,0.66764932870865,0.85661673545837,-0.43835493922234,0.29427710175514
582,2955382279,0.642442,0.370670,-0.572776,0.349023,9.87237930297852,0.77268457412720,0.68713712692261,0.67498427629471,-0.50081157684326,0.60613733530045
583,2955398946,0.642426,0.370671,-0.572799,0.349013,9.89288043975830,0.75705945491791,0.71223902702332,1.07850587368011,-0.23468917608261,0.38531103730202
584,2955415613,0.642447,0.370676,-0.572780,0.349000,9.88990688323975,0.75435936450958,0.71065580844879,1.04680383205414,0.06935919076204,0.15788950026035
585,2955432280,0.642452,0.370707,-0.572745,0.349016,9.87113761901855,0.70614117383957,0.60587054491043,1.42227315902710,0.09831434488297,0.18847103416920
586,2955448947,0.642529,0.370680,-0.572695,0.348984,9.82877922058105,0.78589403629303,0.71479547023773,0.74357503652573,0.45821118354797,-0.01541244052351
587,2955465614,0.642544,0.370659,-0.572712,0.348951,9.82003593444824,0.73244303464890,0.59968346357346,0.78459376096725,-0.09108515828848,0.27839723229408
588,2955482281,0.642531,0.370601,-0.572786,0.348915,9.88100433349609,0.73388242721558,0.73388940095901,0.54199028015137,-0.38082882761955,0.61780393123627
589,2955498948,0.642508,0.370627,-0.572772,0.348954,9.82543945312500,0.74814039468765,0.69265419244766,1.44903862476349,-0.03786197677255,0.43028056621552
590,2955515615,0.642448,0.370713,-0.572758,0.348996,9.87191200256348,0.73655521869659,0.68737310171127,1.77984559535980,-0.31983858346939,0.28730404376984
591,2955532282,0.642410,0.370740,-0.572768,0.349022,9.86531829833984,0.77107244729996,0.68056046962738,1.34679889678955,-0.24722656607628,0.45465746521950
592,2955548949,0.642412,0.370728,-0.572783,0.349004,9.86469650268555,0.77211016416550,0.69997024536133,0.94151002168655,-0.11633928120136,0.33345171809196
593,2955565616,0.642462,0.370633,-0.572815,0.348962,9.86556529998779,0.77367305755615,0.69405919313431,0.29995033144951,0.12986919283867,0.48436173796654
594,2955582283,0.642504,0.370553,-0.572835,0.348935,9.86557197570801,0.78313934803009,0.68751871585846,0.47526922821999,0.15596853196621,0.48623144626617
595,2955598950,0.642544,0.370506,-0.572824,0.348931,9.85232830047607,0.74850517511368,0.72614383697510,0.78400480747223,0.25884196162224,0.37676283717155
596,2955615617,0.642584,0.370448,-0.572820,0.348925,9.83618545532227,0.70422381162643,0.69076389074326,0.69417452812195,0.24855202436447,0.43215665221214
597,2955632284,0.642624,0.370360,-0.572847,0.348899,9.84696197509766,0.73518610000610,0.67431139945984,0.43837413191795,0.14247064292431,0.53527981042862
598,2955648951,0.642625,0.370300,-0.572898,0.348878,9.85326862335205,0.74574649333954,0.64962750673294,0.59769791364670,-0.18682542443275,0.60242348909378
599,2955665618,0.642623,0.370263,-0.572937,0.348857,9.83910846710205,0.75483924150467,0.67083251476288,0.71908932924271,-0.18508377671242,0.49108505249023
600,2955682285,0.642608,0.370264,-0.572962,0.348842,9.85726928710938,0.74320119619370,0.64369910955429,0.98493635654449,-0.26079490780830,0.35910284519196
601,2955698952,0.642588,0.370257,-0.572992,0.348838,9.86507511138916,0.72729337215424,0.66614699363708,1.02089655399323,-0.25200971961021,0.47359159588814
602,2955715619,0.642582,0.370273,-0.572999,0.348821,9.86692047119141,0.73750633001328,0.67800867557526,1.09080648422241,-0.18503256142139,0.22412393987179
603,2955732286,0.642565,0.370288,-0.573017,0.348806,9.87002086639404,0.72988396883011,0.66428112983704,1.08112490177155,-0.26691636443138,0.29466131329536
604,2955748953,0.642559,0.370277,-0.573037,0.348796,9.86786937713623,0.73994439840317,0.68952184915543,0.95406025648117,-0.15949666500092,0.40348961949348
605,2955765620,0.642542,0.370253,-0.573083,0.348777,9.84794330596924,0.73853653669357,0.65578067302704,0.81321609020233,-0.30701300501823,0.49324938654900
606,2955782287,0.642529,0.370234,-0.573117,0.348764,9.85678672790527,0.74337857961655,0.65567857027054,0.88138413429260,-0.23838379979134,0.46954476833344
607,2955798954,0.642508,0.370254,-0.573133,0.348758,9.86546707153320,0.74408072233200,0.65573203563690,1.14073848724365,-0.26383003592491,0.31748220324516
608,2955815621,0.642483,0.370276,-0.573155,0.348743,9.84502220153809,0.74857079982758,0.65848344564438,1.14692389965057,-0.33205586671829,0.30047541856766
609,2955832288,0.642453,0.370299,-0.573176,0.348740,9.85707569122314,0.72981476783752,0.65904724597931,1.19155406951904,-0.31787282228470,0.35337844491005
610,2955848955,0.642436,0.370305,-0.573187,0.348746,9.85697269439697,0.73161101341248,0.67633897066116,1.14760267734528,-0.16368436813354,0.40647354722023
611,2955865622,0.642423,0.370308,-0.573203,0.348740,9.87203407287598,0.73057913780212,0.67068403959274,1.04972994327545,-0.19813983142376,0.36444947123528
612,2955882289,0.642410,0.370316,-0.573215,0.348735,9.87352848052979,0.73655259609222,0.67134404182434,1.09489166736603,-0.18007647991180,0.34072569012642
613,2955898956,0.642403,0.370327,-0.573218,0.348734,9.86116218566895,0.74975216388702,0.67169541120529,1.14637315273285,-0.11384206265211,0.31518989801407
614,2955915623,0.642406,0.370344,-0.573209,0.348724,9.86417961120605,0.74279499053955,0.70284610986710,1.08715665340424,-0.06739341467619,0.18619151413441
615,2955932290,0.642416,0.370342,-0.573203,0.348717,9.84581184387207,0.73997950553894,0.66911727190018,1.05033838748932,0.00888760574162,0.27774405479431
616,2955948957,0.642430,0.370336,-0.573199,0.348705,9.85302734375000,0.74770438671112,0.68096339702606,0.98400145769119,0.01226848270744,0.25776618719101
617,2955965624,0.642444,0.370332,-0.573197,0.348685,9.84749603271484,0.74547874927521,0.65603685379028,0.93362134695053,-0.02760408818722,0.22204932570457
618,2955982291,0.642453,0.370306,-0.573233,0.348639,9.84759807586670,0.72560888528824,0.65956348180771,0.67553490400314,-0.22880464792252,0.30219143629074
619,2955998958,0.642438,0.370294,-0.573266,0.348625,9.85908603668213,0.72803622484207,0.68811833858490,0.96148788928986,-0.25521132349968,0.44362473487854
620,2956015625,0.642432,0.370287,-0.573284,0.348614,9.87004566192627,0.75191426277161,0.69154244661331,1.00965261459351,-0.15935581922531,0.37294650077820
621,2956032292,0.642480,0.370253,-0.573268,0.348588,9.85359859466553,0.74677985906601,0.69847607612610,0.66805601119995,0.22781215608120,0.18976448476315
622,2956048959,0.642470,0.370285,-0.573246,0.348608,9.86015415191650,0.73696362972260,0.61572617292404,1.40572738647461,-0.01117353979498,0.26872846484184
623,2956065626,0.642312,0.370571,-0.573208,0.348659,9.78383731842041,0.75195634365082,0.57156080007553,3.05329012870789,-1.06131982803345,-0.28654849529266
624,2956082293,0.642299,0.370579,-0.573277,0.348559,9.93281650543213,0.71266716718674,0.87584918737411,0.59299796819687,-0.67541325092316,0.06775838881731
625,2956098960,0.642376,0.370400,-0.573364,0.348465,9.78929901123047,0.75594240427017,0.55536037683487,-0.45975428819656,0.06582462787628,0.66131985187531
626,2956115627,0.642446,0.370292,-0.573408,0.348377,9.84056282043457,0.72349166870117,0.64441096782684,-0.03157405555248,0.06800171732903,0.31189867854118
627,2956132294,0.642391,0.370240,-0.573541,0.348315,9.82198143005371,0.73664349317551,0.66005676984787,0.42158502340317,-0.88185161352158,0.73984843492508
628,2956148961,0.642238,0.370332,-0.573605,0.348395,9.89704227447510,0.74893635511398,0.70523685216904,2.05089855194092,-0.95064741373062,0.85501599311829
629,2956165628,0.642118,0.370499,-0.573594,0.348457,9.85766792297363,0.73710602521896,0.66145908832550,2.42106604576111,-0.71358901262283,0.20607978105545
630,2956182295,0.641990,0.370641,-0.573656,0.348440,9.86641502380371,0.72987413406372,0.65071433782578,1.82206201553345,-1.20459735393524,0.16351145505905
631,2956198962,0.641923,0.370693,-0.573717,0.348406,9.88944625854492,0.76708084344864,0.69208675622940,1.20911145210266,-0.79123395681381,0.29859283566475
632,2956215629,0.641913,0.370707,-0.573739,0.348374,9.88364601135254,0.75645166635513,0.64585196971893,0.97818738222122,-0.30441331863403,0.21377637982368
633,2956232296,0.641905,0.370743,-0.573736,0.348356,9.85542201995850,0.74378454685211,0.64045238494873,1.17010343074799,-0.19372807443142,0.12525890767574
634,2956248963,0.641853,0.370864,-0.573709,0.348367,9.84304237365723,0.73728585243225,0.63885182142258,1.81969261169434,-0.39770755171776,-0.03938592597842
635,2956265630,0.641772,0.370989,-0.573691,0.348413,9.83516693115234,0.71537464857101,0.63805896043777,2.03825879096985,-0.47049891948700,0.18393760919571
636,2956282297,0.641728,0.371055,-0.573693,0.348421,9.83961772918701,0.72692316770554,0.60301518440247,1.52915513515472,-0.36389884352684,0.22221578657627
637,2956298964,0.641708,0.371068,-0.573736,0.348372,9.84969806671143,0.74459862709045,0.62129878997803,0.87886130809784,-0.47147217392921,0.22207491099834
638,2956315631,0.641686,0.371046,-0.573797,0.348335,9.88474941253662,0.77162700891495,0.66131371259689,0.75262910127640,-0.44657665491104,0.46795681118965
639,2956332298,0.641670,0.371075,-0.573808,0.348318,9.87664794921875,0.76863890886307,0.68637317419052,1.13452088832855,-0.27524685859680,0.20705945789814
640,2956348965,0.641683,0.371097,-0.573781,0.348315,9.88429450988770,0.75525271892548,0.66904330253601,1.23231661319733,0.06367316842079,0.13737371563911
641,2956365632,0.641672,0.371174,-0.573726,0.348342,9.86157417297363,0.70989733934402,0.60101914405823,1.74688839912415,0.04325984418392,0.03981493785977
642,2956382299,0.641744,0.371157,-0.573671,0.348318,9.83395385742188,0.77698230743408,0.70061689615250,0.89265388250351,0.45996570587158,-0.01767916604877
643,2956398966,0.641762,0.371139,-0.573698,0.348259,9.81379604339600,0.71956866979599,0.56511944532394,0.67912071943283,-0.19810782372952,0.17478105425835
644,2956415633,0.641737,0.371108,-0.573773,0.348216,9.87446498870850,0.73227941989899,0.70274949073792,0.66576361656189,-0.51131272315979,0.51493048667908
645,2956432300,0.641707,0.371153,-0.573766,0.348234,9.82490158081055,0.74609643220901,0.64374774694443,1.47209000587463,-0.19450925290585,0.29420027136803
646,2956448967,0.641651,0.371227,-0.573763,0.348263,9.88255977630615,0.71706581115723,0.66611307859421,1.66999924182892,-0.35784140229225,0.29527598619461
647,2956465634,0.641624,0.371236,-0.573773,0.348287,9.87423038482666,0.77740097045898,0.67373281717300,1.27055633068085,-0.15523216128349,0.49068805575371
648,2956482301,0.641657,0.371191,-0.573801,0.348226,9.88544178009033,0.76345944404602,0.66052907705307,0.53566402196884,-0.08641083538532,0.23969644308090
649,2956498968,0.641719,0.371090,-0.573839,0.348160,9.87678718566895,0.76976430416107,0.66209542751312,0.12887030839920,0.10428210347891,0.38833972811699
650,2956515635,0.641782,0.371027,-0.573828,0.348130,9.87949752807617,0.77899450063705,0.66955542564392,0.54489737749100,0.32202845811844,0.27338996529579
651,2956532302,0.641827,0.370996,-0.573803,0.348119,9.86277103424072,0.73694550991058,0.66867315769196,0.84546238183975,0.28894966840744,0.23727603256702
652,2956548969,0.641892,0.370957,-0.573763,0.348106,9.84887027740479,0.69871002435684,0.66253823041916,0.74015575647354,0.44394490122795,0.16705882549286
653,2956565636,0.641958,0.370885,-0.573762,0.348064,9.84642124176025,0.73172420263290,0.64380311965942,0.44016709923744,0.28652930259705,0.26988101005554
654,2956582303,0.642013,0.370804,-0.573778,0.348022,9.84202957153320,0.74514925479889,0.63844954967499,0.39926353096962,0.18571768701077,0.37917038798332
655,2956598970,0.642034,0.370778,-0.573778,0.348011,9.84793186187744,0.75889688730240,0.61259508132935,0.86459505558014,0.06887254863977,0.33760097622871
656,2956615637,0.642054,0.370779,-0.573766,0.347994,9.84424781799316,0.75962239503860,0.65180015563965,0.98182433843613,0.03899533301592,0.17256556451321
657,2956632304,0.642055,0.370812,-0.573761,0.347964,9.86434173583984,0.74969422817230,0.65571057796478,1.10894024372101,-0.17362208664417,0.05834573134780
658,2956648971,0.642055,0.370852,-0.573745,0.347947,9.84988784790039,0.72652870416641,0.63696455955505,1.22857713699341,-0.11555810272694,0.05983126908541
659,2956665638,0.642055,0.370900,-0.573733,0.347916,9.83520317077637,0.72720062732697,0.64706921577454,1.20462942123413,-0.19294688105583,-0.02668202854693
660,2956682305,0.642044,0.370923,-0.573747,0.347890,9.84724521636963,0.74207347631454,0.65736728906631,1.08193159103394,-0.27098873257637,0.19513033330441
661,2956698972,0.642021,0.370933,-0.573776,0.347873,9.84321212768555,0.74883067607880,0.67722064256668,0.99165958166122,-0.33436739444733,0.34230095148087
662,2956715639,0.641995,0.370959,-0.573812,0.347835,9.84255313873291,0.75915974378586,0.69431710243225,1.02878534793854,-0.46842426061630,0.21933434903622
663,2956732306,0.641965,0.370978,-0.573849,0.347807,9.84579372406006,0.76246809959412,0.66421520709991,1.06030178070068,-0.44383609294891,0.29973262548447
664,2956748973,0.641932,0.371015,-0.573874,0.347788,9.85458374023438,0.74532467126846,0.63778191804886,1.17192196846008,-0.42559981346130,0.24743150174618
665,2956765640,0.641902,0.371040,-0.573904,0.347768,9.84640598297119,0.75209921598434,0.66477310657501,1.11758458614349,-0.40662083029747,0.28953877091408
666,2956782307,0.641855,0.371076,-0.573938,0.347759,9.86674022674561,0.75073122978210,0.62749475240707,1.22792410850525,-0.49579143524170,0.35445412993431
667,2956798974,0.641813,0.371104,-0.573964,0.347764,9.87266826629639,0.76057159900665,0.65910917520523,1.23092079162598,-0.37935611605644,0.40634548664093
668,2956815641,0.641791,0.371111,-0.573987,0.347761,9.86494827270508,0.75996315479279,0.67997598648071,1.10083401203156,-0.26413735747337,0.40781825780869
669,2956832308,0.641788,0.371107,-0.574003,0.347744,9.84957981109619,0.74450212717056,0.61495715379715,0.96732759475708,-0.15680733323097,0.32019713521004
670,2956848975,0.641784,0.371097,-0.574011,0.347748,9.86446952819824,0.75526988506317,0.64110523462296,1.06463027000427,-0.06342343986034,0.42045804858208
671,2956865642,0.641764,0.371103,-0.574026,0.347753,9.84502792358398,0.75162315368652,0.63146752119064,1.15757882595062,-0.19390736520290,0.42050933837891
672,2956882309,0.641757,0.371109,-0.574040,0.347736,9.84172725677490,0.74255841970444,0.60917693376541,1.01587653160095,-0.19345912337303,0.28400644659996
673,2956898976,0.641719,0.371109,-0.574081,0.347738,9.84810256958008,0.75813692808151,0.64780479669571,1.08764326572418,-0.37332436442375,0.53854542970657
674,2956915643,0.641698,0.371089,-0.574114,0.347746,9.88082981109619,0.77272373437881,0.65762668848038,0.98808664083481,-0.20466467738152,0.58245837688446
675,2956932310,0.641710,0.371054,-0.574127,0.347740,9.87854957580566,0.75826668739319,0.66643106937408,0.84600013494492,0.01019385363907,0.45232027769089
676,2956948977,0.641745,0.370990,-0.574129,0.347739,9.87012386322021,0.77873772382736,0.65215986967087,0.70985597372055,0.23445868492126,0.50010079145432
677,2956965644,0.641645,0.371128,-0.574081,0.347856,9.85989475250244,0.73881435394287,0.48762777447701,2.49832653999329,-0.26242130994797,0.42569583654404
678,2956982311,0.641571,0.371241,-0.574146,0.347764,9.86688995361328,0.78843075037003,0.79527598619461,1.27032589912415,-1.12674105167389,-0.18028779327869
679,2956998978,0.641642,0.371116,-0.574166,0.347734,9.89998626708984,0.73124140501022,0.60136789083481,0.20286539196968,0.36640244722366,0.57643938064575
680,2957015645,0.641743,0.370956,-0.574221,0.347627,9.80437660217285,0.76539421081543,0.57777202129364,-0.42087432742119,0.22006431221962,0.39725297689438
681,2957032312,0.641771,0.370916,-0.574266,0.347545,9.80901050567627,0.69919502735138,0.62527841329575,0.38093766570091,-0.24765561521053,0.17140017449856
682,2957048979,0.641668,0.370873,-0.574405,0.347550,9.87013053894043,0.71965324878693,0.60999649763107,0.85245472192764,-0.94890570640564,1.12506341934204
683,2957065646,0.641521,0.370972,-0.574427,0.347679,9.90222167968750,0.76024335622787,0.62783551216125,2.33353447914124,-0.63518857955933,0.92061007022858
684,2957082313,0.641414,0.371105,-0.574425,0.347739,9.83935356140137,0.75181865692139,0.64318078756332,2.16171193122864,-0.62557101249695,0.32289931178093
685,2957098980,0.641313,0.371200,-0.574467,0.347754,9.88994312286377,0.77637559175491,0.69396960735321,1.73940956592560,-0.81834501028061,0.37589198350906
686,2957115647,0.641281,0.371232,-0.574464,0.347784,9.90263557434082,0.77141106128693,0.68041771650314,1.43354284763336,-0.16278791427612,0.40643516182899
687,2957132314,0.641294,0.371253,-0.574419,0.347813,9.87583541870117,0.74792152643204,0.61789840459824,1.35630762577057,0.22774812579155,0.23201261460781
688,2957148981,0.641299,0.371314,-0.574343,0.347864,9.83862400054932,0.73498231172562,0.57769715785980,1.72560453414917,0.29837515950203,0.10936623811722
689,2957165648,0.641261,0.371419,-0.574257,0.347963,9.83384513854980,0.71915656328201,0.63917356729507,2.25661993026733,0.17981396615505,0.22996364533901
690,2957182315,0.641220,0.371491,-0.574183,0.348084,9.84988594055176,0.71859562397003,0.62544876337051,2.18115210533142,0.25708746910095,0.49090582132339
691,2957198982,0.641228,0.371492,-0.574143,0.348133,9.84598255157471,0.75213718414307,0.63209849596024,1.39123070240021,0.29033276438713,0.43140754103661
692,2957215649,0.641245,0.371472,-0.574134,0.348137,9.86542510986328,0.78635060787201,0.63851410150528,0.98850935697556,0.11853558570147,0.36432784795761
693,2957232316,0.641254,0.371465,-0.574116,0.348160,9.88913345336914,0.78465199470520,0.64547991752625,1.15349352359772,0.14166383445263,0.39434593915939
694,2957248983,0.641284,0.371483,-0.574045,0.348201,9.88123989105225,0.76109886169434,0.63898992538452,1.41652309894562,0.44813254475594,0.19085301458836
695,2957265650,0.641339,0.371513,-0.573942,0.348238,9.89503955841064,0.74563342332840,0.62339359521866,1.48196363449097,0.64651572704315,-0.01840912923217
696,2957282317,0.641407,0.371529,-0.573837,0.348269,9.85440826416016,0.75314933061600,0.67545509338379,1.34570395946503,0.72526204586029,-0.02184122987092
697,2957298984,0.641516,0.371487,-0.573736,0.348279,9.83482456207275,0.72906005382538,0.60958755016327,0.94112581014633,0.95783799886703,0.02306423522532
698,2957315651,0.641582,0.371383,-0.573757,0.348235,9.83667373657227,0.70989131927490,0.65496057271957,0.27946019172668,0.26236367225647,0.45328071713448
699,2957332318,0.641647,0.371338,-0.573671,0.348303,9.86037158966064,0.73458147048950,0.66306179761887,1.19478118419647,0.87115198373795,0.43325158953667
700,2957348985,0.641658,0.371358,-0.573634,0.348323,9.84329986572266,0.76367431879044,0.64144462347031,1.30623495578766,0.16296079754829,0.22397024929523
701,2957365652,0.641673,0.371377,-0.573577,0.348370,9.87195777893066,0.79003703594208,0.68378019332886,1.45905292034149,0.33771622180939,0.28220072388649
702,2957382319,0.641730,0.371338,-0.573540,0.348368,9.85622882843018,0.79857134819031,0.68357765674591,0.86164963245392,0.43362298607826,0.24926276504993
703,2957398986,0.641830,0.371255,-0.573495,0.348347,9.87727451324463,0.75804054737091,0.67315453290939,0.46773910522461,0.69208073616028,0.21057480573654
704,2957415653,0.641950,0.371136,-0.573451,0.348324,9.85421085357666,0.76587373018265,0.68480056524277,0.30158951878548,0.84859997034073,0.30605894327164
705,2957432320,0.642056,0.371061,-0.573380,0.348324,9.85355186462402,0.75081354379654,0.68198126554489,0.67506116628647,0.86535072326660,0.19703850150108
706,2957448987,0.642155,0.371002,-0.573305,0.348329,9.83998298645020,0.72320812940598,0.66354352235794,0.75570267438889,0.83063268661499,0.15654481947422
707,2957465654,0.642249,0.370908,-0.573267,0.348318,9.83112239837646,0.73349601030350,0.67655324935913,0.50446766614914,0.68610012531281,0.33614104986191
708,2957482321,0.642320,0.370812,-0.573251,0.348315,9.85048580169678,0.75967299938202,0.67076677083969,0.52760887145996,0.53253930807114,0.49091866612434
709,2957498988,0.642363,0.370758,-0.573224,0.348338,9.84248161315918,0.76968717575073,0.63637822866440,0.88447052240372,0.43279060721397,0.47325864434242
710,2957515655,0.642398,0.370746,-0.573185,0.348351,9.87644100189209,0.75091069936752,0.66318279504776,1.07099509239197,0.31566372513771,0.25493600964546
711,2957532322,0.642448,0.370725,-0.573133,0.348366,9.88207912445068,0.75297141075134,0.66387110948563,1.04017007350922,0.47448801994324,0.23000203073025
712,2957548989,0.642501,0.370704,-0.573088,0.348366,9.88455486297607,0.72947603464127,0.65391600131989,0.96284550428391,0.41100701689720,0.17645871639252
713,2957565656,0.642566,0.370658,-0.573043,0.348369,9.86340808868408,0.73578703403473,0.65537184476852,0.85805100202560,0.52682757377625,0.25967434048653
714,2957582323,0.642624,0.370580,-0.573035,0.348357,9.85106372833252,0.75089263916016,0.65617680549622,0.56108456850052,0.37471377849579,0.42672038078308
715,2957598990,0.642665,0.370502,-0.573040,0.348356,9.84971237182617,0.77580529451370,0.67858380079269,0.58370059728622,0.27559265494347,0.54863679409027
716,2957615657,0.642698,0.370474,-0.573029,0.348345,9.82591629028320,0.78107398748398,0.66971772909164,0.87733739614487,0.17219416797161,0.28786113858223
717,2957632324,0.642730,0.370479,-0.572998,0.348328,9.84208965301514,0.76024347543716,0.67649751901627,1.03549575805664,0.15868347883224,0.08152522146702
718,2957648991,0.642753,0.370478,-0.572985,0.348309,9.84282398223877,0.74499905109406,0.65900784730911,0.98313063383102,0.05783347412944,0.16851875185966
719,2957665658,0.642773,0.370451,-0.572984,0.348303,9.84620380401611,0.74661111831665,0.66132396459579,0.88635301589966,0.08900412917137,0.35926935076714
720,2957682325,0.642781,0.370419,-0.572998,0.348300,9.83063411712646,0.75057172775269,0.66601854562759,0.88216537237167,-0.00685780029744,0.46563887596130
721,2957698992,0.642789,0.370392,-0.573012,0.348291,9.85309982299805,0.74370366334915,0.65705382823944,0.87247097492218,-0.03816932439804,0.41705158352852
722,2957715659,0.642792,0.370375,-0.573021,0.348287,9.85350608825684,0.76129597425461,0.66408497095108,0.97739344835281,-0.04404744505882,0.39524239301682
723,2957732326,0.642802,0.370379,-0.573018,0.348271,9.86679363250732,0.74671679735184,0.65298932790756,1.04307723045349,-0.03649169579148,0.22365009784698
724,2957748993,0.642796,0.370380,-0.573038,0.348249,9.84614944458008,0.71928757429123,0.66259735822678,1.01471102237701,-0.21895654499531,0.29898983240128
725,2957765660,0.642781,0.370391,-0.573050,0.348244,9.83104515075684,0.75886327028275,0.67563378810883,1.13975238800049,-0.19586673378944,0.33333650231361
726,2957782327,0.642765,0.370392,-0.573067,0.348246,9.85280513763428,0.75809806585312,0.66590070724487,1.08897507190704,-0.18318843841553,0.42031717300415
727,2957798994,0.642755,0.370378,-0.573084,0.348249,9.86528491973877,0.76676511764526,0.66905039548874,1.01816880702972,-0.11895177513361,0.46839222311974
728,2957815661,0.642759,0.370362,-0.573102,0.348231,9.86307907104492,0.77574455738068,0.74809348583221,0.89859604835510,-0.11321455240250,0.35602936148643
729,2957832328,0.642657,0.370546,-0.573038,0.348328,9.84635639190674,0.73208272457123,0.52857971191406,2.71456193923950,-0.35869947075844,0.12395265698433
730,2957848995,0.642540,0.370703,-0.573109,0.348260,9.86416435241699,0.74678832292557,0.82062071561813,1.65548968315125,-1.36896693706512,-0.12256318330765
731,2957865662,0.642637,0.370618,-0.573099,0.348188,9.83595371246338,0.75242328643799,0.61107009649277,0.21571014821529,0.40355366468430,0.08979812264442
732,2957882329,0.642701,0.370374,-0.573314,0.347976,9.85136890411377,0.69135224819183,0.64828157424927,-1.51580429077148,-0.70036000013351,0.75320541858673
733,2957898996,0.642647,0.370294,-0.573456,0.347925,9.80431938171387,0.77666491270065,0.63068377971649,0.28468519449234,-0.83013969659805,0.91056996583939
734,2957915663,0.642483,0.370308,-0.573626,0.347934,9.88113307952881,0.75711899995804,0.71534663438797,1.19428181648254,-1.45003104209900,1.14264655113220
735,2957932330,0.642300,0.370448,-0.573684,0.348027,9.89944648742676,0.73433643579483,0.69185107946396,2.36580681800842,-1.13147306442261,0.77619284391403
736,2957948997,0.642160,0.370636,-0.573670,0.348109,9.83265972137451,0.74819707870483,0.64072787761688,2.64301323890686,-0.77338194847107,0.25321996212006
737,2957965664,0.642029,0.370802,-0.573698,0.348125,9.87279224395752,0.75290340185165,0.67969906330109,2.13647055625916,-1.04472291469574,0.13424897193909
738,2957982331,0.641961,0.370878,-0.573737,0.348106,9.89358997344971,0.74178546667099,0.71421569585800,1.43118643760681,-0.71896767616272,0.21322572231293
739,2957998998,0.641900,0.370908,-0.573784,0.348111,9.85251045227051,0.75683343410492,0.64732980728149,1.25792956352234,-0.55178076028824,0.49814143776894
740,2958015665,0.641822,0.370966,-0.573814,0.348142,9.82887840270996,0.76829892396927,0.64018565416336,1.59531271457672,-0.54964214563370,0.50861704349518
741,2958032332,0.641716,0.371046,-0.573850,0.348194,9.82990741729736,0.72707086801529,0.63251358270645,1.84319233894348,-0.67998516559601,0.59012937545776
742,2958048999,0.641596,0.371136,-0.573899,0.348239,9.85139942169189,0.74394756555557,0.64386701583862,1.84220635890961,-0.83732408285141,0.59044963121414
743,2958065666,0.641513,0.371182,-0.573960,0.348240,9.84519290924072,0.76658207178116,0.63516235351562,1.33160436153412,-0.75207215547562,0.51236927509308
744,2958082333,0.641467,0.371177,-0.574046,0.348190,9.85684585571289,0.78788334131241,0.64782226085663,0.77320891618729,-0.72146487236023,0.46183535456657
745,2958099000,0.641421,0.371179,-0.574107,0.348172,9.87702465057373,0.78666538000107,0.66748380661011,0.99221038818359,-0.54832309484482,0.51259976625443
746,2958115667,0.641381,0.371214,-0.574120,0.348187,9.89378643035889,0.77404838800430,0.69249457120895,1.33974909782410,-0.31141841411591,0.38533028960228
747,2958132334,0.641312,0.371343,-0.574086,0.348233,9.86677360534668,0.72500735521317,0.58074665069580,2.08963775634766,-0.36001852154732,0.10784228146076
748,2958149001,0.641359,0.371321,-0.574073,0.348192,9.86142349243164,0.77131646871567,0.72065585851669,0.73399585485458,0.14792615175247,0.09248745441437
749,2958165668,0.641397,0.371242,-0.574116,0.348134,9.85395717620850,0.70496332645416,0.57181441783905,0.28381428122520,-0.05079638585448,0.40927812457085
750,2958182335,0.641347,0.371220,-0.574174,0.348154,9.86212253570557,0.71175765991211,0.59608048200607,1.08081758022308,-0.39103549718857,0.77886945009232
751,2958199002,0.641283,0.371262,-0.574202,0.348182,9.83086776733398,0.74228048324585,0.64081710577011,1.45065212249756,-0.45401707291603,0.51053792238235
752,2958215669,0.641189,0.371318,-0.574230,0.348248,9.85575675964355,0.72478210926056,0.66005009412766,1.76631557941437,-0.50123405456543,0.70011025667191
753,2958232336,0.641101,0.371334,-0.574298,0.348281,9.89658546447754,0.79319554567337,0.64194667339325,1.34242570400238,-0.65211856365204,0.79609400033951
754,2958249003,0.641096,0.371313,-0.574328,0.348265,9.88091754913330,0.78021115064621,0.64294689893723,0.85495197772980,-0.18895129859447,0.43778508901596
755,2958265670,0.641138,0.371235,-0.574363,0.348211,9.87163734436035,0.78702664375305,0.63116842508316,0.33337488770485,0.01776240579784,0.38810923695564
756,2958282337,0.641186,0.371181,-0.574373,0.348165,9.87827873229980,0.77719563245773,0.66779202222824,0.49651494622231,0.10461506992579,0.25251558423042
757,2958299004,0.641231,0.371137,-0.574363,0.348146,9.86925888061523,0.74881130456924,0.66708070039749,0.70935648679733,0.23179493844509,0.29060170054436
758,2958315671,0.641274,0.371082,-0.574360,0.348128,9.86364459991455,0.70114058256149,0.63610023260117,0.63049501180649,0.22172915935516,0.36138239502907
759,2958332338,0.641299,0.371018,-0.574395,0.348092,9.85757541656494,0.71937197446823,0.60928201675415,0.51457196474075,-0.04107636958361,0.45485597848892
760,2958349005,0.641314,0.370949,-0.574439,0.348066,9.84362506866455,0.73236435651779,0.60981488227844,0.55880510807037,-0.07977715134621,0.56949836015701
761,2958365672,0.641333,0.370880,-0.574488,0.348025,9.84361743927002,0.72777605056763,0.62419837713242,0.51893246173859,-0.12127613276243,0.50913566350937
762,2958382339,0.641332,0.370827,-0.574540,0.347997,9.87239360809326,0.73085916042328,0.64837938547134,0.60492080450058,-0.22570551931858,0.55442535877228
763,2958399006,0.641332,0.370791,-0.574559,0.348005,9.87101936340332,0.72515195608139,0.62722444534302,0.89139872789383,-0.02262241393328,0.55993205308914
764,2958415673,0.641325,0.370797,-0.574558,0.348012,9.86732959747314,0.73309409618378,0.61455535888672,1.17797935009003,-0.06379483640194,0.35202094912529
765,2958432340,0.641312,0.370795,-0.574565,0.348027,9.85775756835938,0.74056488275528,0.63928216695786,1.14431130886078,-0.08756340295076,0.45789101719856
766,2958449007,0.641301,0.370790,-0.574594,0.348003,9.87290763854980,0.74369883537292,0.62779384851456,0.92794799804688,-0.26650655269623,0.34901142120361
767,2958465674,0.641292,0.370775,-0.574628,0.347981,9.85360145568848,0.75007957220078,0.61585605144501,0.86981368064880,-0.25095322728157,0.40021762251854
768,2958482341,0.641293,0.370773,-0.574637,0.347966,9.84398365020752,0.74659508466721,0.62380975484848,1.00876903533936,-0.11354750394821,0.29977107048035
769,2958499008,0.641288,0.370782,-0.574640,0.347961,9.85292816162109,0.76077222824097,0.61191624403000,1.10949087142944,-0.11286877095699,0.29124200344086
770,2958515675,0.641293,0.370787,-0.574638,0.347950,9.84967422485352,0.74110221862793,0.64809572696686,1.07321047782898,-0.05672572180629,0.25124776363373
771,2958532342,0.641278,0.370815,-0.574629,0.347961,9.86338710784912,0.73581093549728,0.62772208452225,1.27840673923492,-0.10802797228098,0.28052309155464
772,2958549009,0.641261,0.370854,-0.574618,0.347969,9.86268138885498,0.72672623395920,0.63031601905823,1.36506736278534,-0.13690628111362,0.22954101860523
773,2958565676,0.641248,0.370901,-0.574600,0.347974,9.85171604156494,0.73262333869934,0.64344561100006,1.38653075695038,-0.11550687998533,0.15508490800858
