sep=,
DeviceTag:,A
FirmwareVersion:,3.0.0
AppVersion:,2023.6.0
StartTime: ,2024-03-14_11:40:57_000 EDT
© Movella Technologies B. V. 2005-2024

PacketCounter,SampleTimeFine,Quat_W,Quat_X,Quat_Y,Quat_Z,Acc_X,Acc_Y,Acc_Z,Gyr_X,Gyr_Y,Gyr_Z
0,2719610897,0.807165,-0.074609,0.287472,-0.510181,0.00000000000000,0.00000000000000,0.00000000000000,0.00000000000000,0.00000000000000,0.00000000000000
1,2719627564,0.807183,-0.074614,0.287424,-0.510178,-3.85776615142822,-4.12867689132690,8.23220920562744,1.14480447769165,0.32496756315231,0.96568202972412
2,2719644231,0.807171,-0.074589,0.287370,-0.510231,-3.86020708084106,-4.11303138732910,8.22528362274170,1.39455389976501,0.44074970483780,0.67155861854553
3,2719660898,0.807150,-0.074686,0.287419,-0.510224,-3.83790659904480,-4.11790084838867,8.21170806884766,0.26511064171791,0.60615658760071,0.72670269012451
4,2719677565,0.807136,-0.074736,0.287437,-0.510229,-3.83428740501404,-4.16528129577637,8.19873809814453,0.64435786008835,0.58094084262848,0.78198772668839
5,2719694232,0.807130,-0.074646,0.287356,-0.510296,-3.83148908615112,-4.11364889144897,8.21247577667236,1.91337764263153,0.54298287630081,0.66738379001617
6,2719710899,0.807120,-0.074677,0.287338,-0.510318,-3.84691596031189,-4.09990501403809,8.21967887878418,0.92235815525055,0.45237788558006,0.71559959650040
7,2719727566,0.807131,-0.074672,0.287296,-0.510324,-3.83544731140137,-4.13172626495361,8.22491550445557,1.18669390678406,0.40049937367439,0.92864596843719
8,2719744233,0.807129,-0.074705,0.287294,-0.510325,-3.82793188095093,-4.12370586395264,8.22256278991699,0.81215953826904,0.50351369380951,0.86590778827667
9,2719760900,0.807136,-0.074779,0.287319,-0.510288,-3.86623358726501,-4.15058994293213,8.19845390319824,0.42600965499878,0.48019331693649,1.02557730674744
10,2719777567,0.807120,-0.074840,0.287333,-0.510297,-3.84226226806641,-4.12218809127808,8.21709823608398,0.60765486955643,0.51772874593735,0.73740881681442
11,2719794234,0.807106,-0.074926,0.287375,-0.510283,-3.83594536781311,-4.13290739059448,8.20949554443359,0.33211344480515,0.58807396888733,0.80666553974152
12,2719810901,0.807088,-0.074936,0.287356,-0.510320,-3.82982897758484,-4.13109159469604,8.19748497009277,1.06808161735535,0.53668206930161,0.65053057670593
13,2719827568,0.807068,-0.074954,0.287350,-0.510353,-3.85130453109741,-4.12984323501587,8.21280097961426,0.95471966266632,0.58451384305954,0.66060912609100
14,2719844235,0.807060,-0.074953,0.287346,-0.510368,-3.85803985595703,-4.14499521255493,8.20234489440918,1.02885580062866,0.62502032518387,0.84176784753799
15,2719860902,0.807045,-0.074872,0.287288,-0.510435,-3.82662034034729,-4.13172721862793,8.19641876220703,1.75484764575958,0.63730156421661,0.68207257986069
16,2719877569,0.807040,-0.074897,0.287266,-0.510453,-3.83575725555420,-4.14008283615112,8.22618198394775,0.95360565185547,0.43497410416603,0.77431678771973
17,2719894236,0.807035,-0.074835,0.287194,-0.510511,-3.84996581077576,-4.11995172500610,8.20688819885254,1.70231604576111,0.48527735471725,0.68818122148514
18,2719910903,0.807030,-0.074886,0.287199,-0.510507,-3.84361267089844,-4.12424087524414,8.19989871978760,0.70399707555771,0.50423079729080,0.80009597539902
19,2719927570,0.807045,-0.074846,0.287156,-0.510514,-3.83833694458008,-4.17690801620483,8.21371459960938,1.39144206047058,0.51518028974533,0.99443233013153
20,2719944237,0.807072,-0.074732,0.287032,-0.510558,-3.84981489181519,-4.08401203155518,8.23074626922607,2.15494370460510,0.30869066715240,0.95994478464127
21,2719960904,0.807085,-0.074801,0.287022,-0.510533,-3.84274888038635,-4.10950517654419,8.22052574157715,0.59991985559464,0.29334861040115,0.98090875148773
22,2719977571,0.807105,-0.074757,0.286958,-0.510543,-3.82934427261353,-4.14026641845703,8.22071361541748,1.49467384815216,0.39515912532806,1.00694406032562
23,2719994238,0.807145,-0.074659,0.286886,-0.510535,-3.82766413688660,-4.11488342285156,8.20481014251709,1.78266322612762,0.48034691810608,1.29554808139801
24,2720010905,0.807194,-0.074561,0.286826,-0.510506,-3.84198570251465,-4.11940622329712,8.21535968780518,1.70674717426300,0.52620655298233,1.43950438499451
25,2720027572,0.807251,-0.074436,0.286759,-0.510472,-3.83905696868896,-4.09955453872681,8.22179889678955,1.88544690608978,0.55918282270432,1.54760253429413
26,2720044239,0.807303,-0.074288,0.286670,-0.510461,-3.83286595344543,-4.08473539352417,8.23571777343750,2.14728546142578,0.56897974014282,1.39190304279327
27,2720060906,0.807359,-0.074272,0.286669,-0.510376,-3.84403061866760,-4.12391185760498,8.23932361602783,0.93936479091644,0.52547645568848,1.64126789569855
28,2720077573,0.807431,-0.074140,0.286610,-0.510314,-3.83441114425659,-4.10925197601318,8.21053028106689,1.85262441635132,0.59685915708542,1.75217103958130
29,2720094240,0.807494,-0.074135,0.286625,-0.510206,-3.85455656051636,-4.11776542663574,8.21256351470947,0.74870401620865,0.51201701164246,1.85056233406067
30,2720110907,0.807548,-0.074163,0.286617,-0.510121,-3.84168386459351,-4.12195205688477,8.20571041107178,0.72032517194748,0.33238241076469,1.55252027511597
31,2720127574,0.807592,-0.074167,0.286602,-0.510060,-3.84005236625671,-4.10010719299316,8.23246479034424,0.92696851491928,0.42101517319679,1.40732192993164
32,2720144241,0.807602,-0.074290,0.286678,-0.509983,-3.85656976699829,-4.09107732772827,8.23944091796875,-0.09593236446381,0.57147693634033,1.16864979267120
33,2720160908,0.807606,-0.074503,0.286761,-0.509898,-3.84288311004639,-4.12215900421143,8.23504638671875,-0.64303243160248,0.29507753252983,1.04459488391876
34,2720177575,0.807605,-0.074671,0.286786,-0.509862,-3.84731626510620,-4.14066553115845,8.22658252716064,-0.09438279271126,0.16779519617558,0.80995678901672
35,2720194242,0.807580,-0.074749,0.286710,-0.509933,-3.83783292770386,-4.13003778457642,8.22886562347412,0.94053030014038,0.00424530496821,0.28676620125771
36,2720210909,0.807534,-0.074946,0.286674,-0.509997,-3.85357069969177,-4.11657953262329,8.24326133728027,0.13481883704662,-0.12943376600742,0.00411724112928
37,2720227576,0.807465,-0.075097,0.286652,-0.510097,-3.82217168807983,-4.11237001419067,8.18665409088135,0.38549032807350,0.16855077445507,-0.16803210973740
38,2720244243,0.807377,-0.075183,0.286647,-0.510226,-3.81711506843567,-4.11782932281494,8.15540313720703,0.72750949859619,0.51852267980576,-0.22727428376675
39,2720260910,0.807270,-0.075238,0.286717,-0.510348,-3.81942415237427,-4.15074968338013,8.19915676116943,0.62139612436295,1.09835577011108,-0.18252889811993
40,2720277577,0.807155,-0.075236,0.286729,-0.510522,-3.86189389228821,-4.13376998901367,8.24505615234375,1.24049353599548,1.01954543590546,-0.40501359105110
41,2720294244,0.807023,-0.075349,0.286763,-0.510696,-3.84420919418335,-4.13994884490967,8.23588848114014,0.51949602365494,0.76540356874466,-0.69306689500809
42,2720310911,0.806886,-0.075534,0.286819,-0.510854,-3.85564160346985,-4.12869834899902,8.21467208862305,0.02666922658682,0.66911262273788,-0.80368816852570
43,2720327578,0.806739,-0.075721,0.286885,-0.511021,-3.80456256866455,-4.13389015197754,8.20919609069824,-0.02592005208135,0.71533066034317,-0.83680528402328
44,2720344245,0.806621,-0.075939,0.286913,-0.511160,-3.80696153640747,-4.12937116622925,8.22742938995361,-0.12068703025579,0.30525854229927,-0.62464249134064
45,2720360912,0.806547,-0.076141,0.286897,-0.511255,-3.79103350639343,-4.09382009506226,8.21029281616211,0.07284891605377,0.01863963901997,-0.24492143094540
46,2720377579,0.806490,-0.076380,0.286928,-0.511292,-3.80075764656067,-4.11467647552490,8.19213485717773,-0.40774139761925,0.08845986425877,0.09207125753164
47,2720394246,0.806466,-0.076682,0.287006,-0.511241,-3.81399583816528,-4.17446851730347,8.20392704010010,-1.05854737758636,0.03604347258806,0.55744117498398
48,2720410913,0.806489,-0.076738,0.286919,-0.511244,-3.81907272338867,-4.18543720245361,8.18370532989502,1.00264108181000,-0.09604761749506,0.85071939229965
49,2720427580,0.806509,-0.076840,0.286903,-0.511208,-3.83275151252747,-4.14591503143311,8.21743774414062,0.41304960846901,0.11125516146421,1.01286065578461
50,2720444247,0.806549,-0.076998,0.286921,-0.511109,-3.80831074714661,-4.16327905654907,8.20059299468994,-0.11795929074287,0.04554578289390,1.32776880264282
51,2720460914,0.806619,-0.077046,0.286885,-0.511013,-3.81730532646179,-4.19112253189087,8.19465923309326,0.69831115007401,0.07943139225245,1.59095215797424
52,2720477581,0.806705,-0.077107,0.286785,-0.510924,-3.80018138885498,-4.15390253067017,8.21444416046143,0.87617850303650,-0.35010001063347,1.55673360824585
53,2720494248,0.806779,-0.077180,0.286735,-0.510824,-3.79347372055054,-4.13491249084473,8.20957565307617,0.63433057069778,-0.07655636221170,1.52228438854218
54,2720510915,0.806837,-0.077330,0.286781,-0.510684,-3.79702806472778,-4.17173194885254,8.18200016021729,-0.25403958559036,0.16879411041737,1.65972220897675
55,2720527582,0.806898,-0.077365,0.286749,-0.510599,-3.79218173027039,-4.21024465560913,8.19647789001465,0.79296272993088,0.18039663136005,1.50546956062317
56,2720544249,0.806960,-0.077286,0.286664,-0.510561,-3.80373954772949,-4.19252347946167,8.19399452209473,1.67808640003204,0.28700947761536,1.49372625350952
57,2720560916,0.806980,-0.077318,0.286633,-0.510543,-3.82119297981262,-4.16078424453735,8.22244358062744,0.89372324943542,0.29261869192123,1.03904974460602
58,2720577583,0.806983,-0.077309,0.286551,-0.510585,-3.83247327804565,-4.15688228607178,8.20577430725098,1.42493045330048,0.22888146340847,0.67636090517044
59,2720594250,0.806958,-0.077430,0.286598,-0.510581,-3.79022240638733,-4.16480636596680,8.20254993438721,0.12039889395237,0.49959489703178,0.67905026674271
60,2720610917,0.806941,-0.077477,0.286555,-0.510623,-3.80667519569397,-4.20857334136963,8.19188976287842,0.93371731042862,0.26190903782845,0.56766062974930
61,2720627584,0.806912,-0.077473,0.286475,-0.510715,-3.79889631271362,-4.10853576660156,8.23591709136963,1.46154391765594,0.30840888619423,0.28878960013390
62,2720644251,0.806880,-0.077677,0.286559,-0.510688,-3.80432033538818,-4.16529941558838,8.23030567169189,-0.50681138038635,0.42338436841965,0.62969470024109
63,2720660918,0.806870,-0.077756,0.286543,-0.510700,-3.78908038139343,-4.19900989532471,8.22004032135010,0.62030762434006,0.28488364815712,0.68938505649567
64,2720677585,0.806864,-0.077742,0.286471,-0.510751,-3.81392860412598,-4.19061279296875,8.23050689697266,1.41220092773438,0.30927973985672,0.62982261180878
65,2720694252,0.806833,-0.077930,0.286488,-0.510764,-3.79273223876953,-4.14546489715576,8.23515796661377,-0.09881380200386,0.13954439759254,0.39601719379425
66,2720710919,0.806801,-0.078148,0.286485,-0.510782,-3.79165220260620,-4.16000986099243,8.22642135620117,-0.18060792982578,-0.07665880769491,0.27285847067833
67,2720727586,0.806777,-0.078259,0.286442,-0.510828,-3.79199552536011,-4.14428377151489,8.22041702270508,0.59783232212067,0.07556386291981,0.37318342924118
68,2720744253,0.806744,-0.078461,0.286505,-0.510813,-3.78419589996338,-4.19604635238647,8.17932987213135,-0.40259319543839,0.31205868721008,0.55799180269241
69,2720760920,0.806744,-0.078507,0.286470,-0.510825,-3.78035902976990,-4.20940542221069,8.20929050445557,0.88651311397552,0.29301568865776,0.75173914432526
70,2720777587,0.806734,-0.078637,0.286485,-0.510812,-3.78926396369934,-4.16824150085449,8.20808601379395,0.17686206102371,0.25638946890831,0.73851013183594
71,2720794254,0.806715,-0.078685,0.286469,-0.510844,-3.78985166549683,-4.15970516204834,8.20548152923584,0.82022744417191,0.41686588525772,0.61878353357315
72,2720810921,0.806668,-0.078835,0.286526,-0.510863,-3.80229878425598,-4.17179965972900,8.20448112487793,-0.03619074076414,0.50592124462128,0.42571505904198
73,2720827588,0.806606,-0.078939,0.286571,-0.510921,-3.75887966156006,-4.19340705871582,8.19930171966553,0.32930886745453,0.65898269414902,0.24176466464996
74,2720844255,0.806557,-0.078971,0.286582,-0.510986,-3.77186703681946,-4.19695568084717,8.18041706085205,0.86992895603180,0.71154010295868,0.35631749033928
75,2720860922,0.806510,-0.079026,0.286582,-0.511051,-3.77216434478760,-4.17032146453857,8.21487808227539,0.79329562187195,0.56470239162445,0.29004460573196
76,2720877589,0.806450,-0.079135,0.286618,-0.511109,-3.78065538406372,-4.17136669158936,8.23525142669678,0.34839031100273,0.60061132907867,0.20648315548897
77,2720894256,0.806407,-0.079234,0.286677,-0.511129,-3.78626918792725,-4.18496227264404,8.19787406921387,0.24086825549603,0.69553214311600,0.52949780225754
78,2720910923,0.806379,-0.079291,0.286735,-0.511131,-3.78287839889526,-4.18168258666992,8.19578456878662,0.45661681890488,0.80730593204498,0.75467187166214
79,2720927590,0.806352,-0.079392,0.286815,-0.511114,-3.76165843009949,-4.19704198837280,8.20900344848633,0.08689749240875,0.74986940622330,0.81173694133759
80,2720944257,0.806332,-0.079396,0.286853,-0.511124,-3.77417492866516,-4.18964195251465,8.20554924011230,0.85566276311874,0.87678039073944,0.81323528289795
81,2720960924,0.806334,-0.079410,0.286862,-0.511114,-3.78385567665100,-4.19745874404907,8.22987174987793,0.84361183643341,0.60992157459259,1.00472855567932
82,2720977591,0.806341,-0.079401,0.286848,-0.511112,-3.79820680618286,-4.18238878250122,8.21062755584717,1.08740627765656,0.56202578544617,0.99107700586319
83,2720994258,0.806354,-0.079491,0.286891,-0.511052,-3.78197574615479,-4.17322063446045,8.17881870269775,0.23971565067768,0.50595968961716,1.15243697166443
84,2721010925,0.806372,-0.079615,0.286992,-0.510949,-3.78427815437317,-4.21126174926758,8.17783355712891,-0.26144161820412,0.64335894584656,1.41875779628754
85,2721027592,0.806405,-0.079588,0.286990,-0.510902,-3.79104995727539,-4.22018337249756,8.20118331909180,1.04531192779541,0.59886974096298,1.41824567317963
86,2721044259,0.806399,-0.079652,0.287048,-0.510869,-3.78916859626770,-4.18109083175659,8.23520088195801,0.36012095212936,0.71047705411911,1.01125979423523
87,2721060926,0.806408,-0.079730,0.287108,-0.510808,-3.79430723190308,-4.22779941558838,8.19295215606689,0.27253830432892,0.68667000532150,1.10683345794678
88,2721077593,0.806428,-0.079718,0.287132,-0.510766,-3.78386282920837,-4.23212623596191,8.18077278137207,0.90536409616470,0.74473404884338,1.27504503726959
89,2721094260,0.806443,-0.079632,0.287102,-0.510772,-3.78771805763245,-4.21145105361938,8.21069622039795,1.58151364326477,0.72658741474152,1.13724863529205
90,2721110927,0.806448,-0.079643,0.287135,-0.510744,-3.79219508171082,-4.19525098800659,8.22312736511230,0.75683611631393,0.74491333961487,1.11356997489929
91,2721127594,0.806441,-0.079647,0.287180,-0.510728,-3.78991365432739,-4.19165325164795,8.20878696441650,0.76676094532013,0.86503696441650,1.03048217296600
92,2721144261,0.806440,-0.079587,0.287164,-0.510748,-3.77669644355774,-4.22937393188477,8.18959426879883,1.42115271091461,0.76831054687500,0.93659889698029
93,2721160928,0.806440,-0.079565,0.287142,-0.510764,-3.79409456253052,-4.20839405059814,8.21188259124756,1.21730113029480,0.58561515808105,0.88661563396454
94,2721177595,0.806411,-0.079651,0.287163,-0.510785,-3.79401659965515,-4.18414640426636,8.17551803588867,0.47809302806854,0.53036862611771,0.54417389631271
95,2721194262,0.806372,-0.079757,0.287240,-0.510786,-3.79233860969543,-4.17924022674561,8.21828651428223,0.11154970526695,0.76171523332596,0.62758153676987
96,2721210929,0.806313,-0.079804,0.287298,-0.510840,-3.79647922515869,-4.21222591400146,8.22319602966309,0.60921728610992,0.93452411890030,0.35800790786743
97,2721227596,0.806272,-0.079893,0.287350,-0.510861,-3.79918694496155,-4.24780035018921,8.19739913940430,0.31964010000229,0.68579924106598,0.56407493352890
98,2721244263,0.806231,-0.079882,0.287316,-0.510947,-3.78935527801514,-4.16841077804565,8.18921089172363,1.28735196590424,0.57597196102142,0.38163560628891
99,2721260930,0.806191,-0.080033,0.287416,-0.510931,-3.74001216888428,-4.17448520660400,8.17003917694092,-0.24296204745770,0.72955846786499,0.62778645753860
100,2721277597,0.806164,-0.080150,0.287533,-0.510889,-3.76621389389038,-4.29860925674438,8.15068817138672,-0.16922311484814,0.90181666612625,0.91966885328293
101,2721294264,0.806186,-0.079878,0.287410,-0.510966,-3.79321479797363,-4.24512672424316,8.19082450866699,3.09183096885681,0.89839750528336,1.05647909641266
102,2721310931,0.806159,-0.079818,0.287458,-0.510991,-3.80993390083313,-4.15405225753784,8.22795486450195,1.18885827064514,1.17365705966949,0.86116933822632
103,2721327598,0.806130,-0.079925,0.287593,-0.510944,-3.79856538772583,-4.20258617401123,8.23108863830566,-0.19551454484463,1.02188920974731,0.98163872957230
104,2721344265,0.806110,-0.079834,0.287605,-0.510982,-3.77263164520264,-4.22828483581543,8.18281364440918,1.50564873218536,1.06421387195587,0.86931419372559
105,2721360932,0.806110,-0.079719,0.287623,-0.510990,-3.78764319419861,-4.23417043685913,8.16806221008301,1.58257675170898,1.13453376293182,1.12585091590881
106,2721377599,0.806101,-0.079640,0.287700,-0.510973,-3.80798196792603,-4.21361255645752,8.18393230438232,1.11794960498810,1.34928345680237,1.19664454460144
107,2721394266,0.806117,-0.079489,0.287708,-0.510967,-3.78536128997803,-4.18843936920166,8.21968746185303,1.81179749965668,1.18291616439819,1.30228400230408
108,2721410933,0.806125,-0.079404,0.287695,-0.510976,-3.81746363639832,-4.15154886245728,8.22522926330566,1.52694582939148,0.83764410018921,1.09469306468964
109,2721427600,0.806129,-0.079519,0.287765,-0.510912,-3.80857324600220,-4.18365144729614,8.22553157806396,-0.01664825528860,0.57895588874817,1.10483586788177
110,2721444267,0.806115,-0.079686,0.287869,-0.510849,-3.79454183578491,-4.23397111892700,8.20864391326904,-0.43079277873039,0.60980641841888,0.97512042522430
111,2721460934,0.806138,-0.079732,0.287894,-0.510792,-3.78661441802979,-4.24668836593628,8.18072509765625,0.52746158838272,0.51539790630341,1.28457295894623
112,2721477601,0.806160,-0.079638,0.287818,-0.510814,-3.80574846267700,-4.22448015213013,8.18445396423340,1.83246719837189,0.50195127725601,1.04823184013367
113,2721494268,0.806179,-0.079701,0.287849,-0.510757,-3.78885030746460,-4.20936107635498,8.19064044952393,0.41438150405884,0.49954372644424,1.24907374382019
114,2721510935,0.806198,-0.079753,0.287851,-0.510718,-3.81655573844910,-4.23896455764771,8.17982006072998,0.60043209791183,0.36395007371902,1.18529808521271
115,2721527602,0.806216,-0.079756,0.287845,-0.510693,-3.78346967697144,-4.19343948364258,8.18237018585205,0.93971067667007,0.52075099945068,1.16202890872955
116,2721544269,0.806230,-0.079821,0.287895,-0.510632,-3.79373311996460,-4.25490093231201,8.17115879058838,0.33713358640671,0.60998570919037,1.24308037757874
117,2721560936,0.806268,-0.079767,0.287862,-0.510599,-3.79641437530518,-4.22792482376099,8.19980430603027,1.34718322753906,0.53027892112732,1.37178409099579
118,2721577603,0.806286,-0.079785,0.287833,-0.510583,-3.82059478759766,-4.18144989013672,8.19522666931152,0.97506916522980,0.37080147862434,1.02108240127563
119,2721594270,0.806304,-0.079857,0.287852,-0.510534,-3.79034757614136,-4.20006847381592,8.20714473724365,0.44824147224426,0.43021014332771,1.12606883049011
120,2721610937,0.806306,-0.079894,0.287840,-0.510532,-3.79589080810547,-4.23135423660278,8.18392276763916,0.83120256662369,0.43642121553421,0.86706036329269
121,2721627604,0.806321,-0.079822,0.287758,-0.510565,-3.80725479125977,-4.18761825561523,8.20383644104004,1.72504699230194,0.39232885837555,0.94758653640747
122,2721644271,0.806310,-0.079929,0.287816,-0.510533,-3.78627490997314,-4.15706110000610,8.20538806915283,0.11695398390293,0.56691789627075,0.92841547727585
123,2721660938,0.806316,-0.079997,0.287884,-0.510475,-3.78410816192627,-4.26579761505127,8.17698860168457,0.25445580482483,0.71526664495468,1.20446932315826
124,2721677605,0.806338,-0.079827,0.287805,-0.510511,-3.80185294151306,-4.22222757339478,8.17023372650146,2.29878473281860,0.77228057384491,1.08967316150665
125,2721694272,0.806330,-0.079865,0.287844,-0.510496,-3.82052040100098,-4.19341897964478,8.21898555755615,0.62315052747726,0.73389977216721,0.91637748479843
126,2721710939,0.806321,-0.079952,0.287911,-0.510459,-3.82220172882080,-4.23830890655518,8.22200965881348,0.18961721658707,0.69080650806427,0.97994840145111
127,2721727606,0.806309,-0.079896,0.287872,-0.510509,-3.80131077766418,-4.23167705535889,8.17510795593262,1.52361643314362,0.65564036369324,0.72599840164185
128,2721744273,0.806295,-0.079905,0.287863,-0.510535,-3.78570747375488,-4.21932125091553,8.18307399749756,1.04097056388855,0.61455750465393,0.66895890235901
129,2721760940,0.806273,-0.079868,0.287848,-0.510584,-3.79310035705566,-4.21105480194092,8.17509365081787,1.33088076114655,0.74433708190918,0.66229957342148
130,2721777607,0.806255,-0.079883,0.287856,-0.510604,-3.79252600669861,-4.20520162582397,8.17616939544678,0.90422433614731,0.66575729846954,0.74880653619766
131,2721794274,0.806251,-0.079880,0.287833,-0.510625,-3.80589056015015,-4.22023487091064,8.21169567108154,1.13610887527466,0.54651737213135,0.78351175785065
132,2721810941,0.806249,-0.079896,0.287821,-0.510631,-3.80525040626526,-4.21363782882690,8.20544433593750,0.95616692304611,0.51318246126175,0.85705858469009
133,2721827608,0.806257,-0.079929,0.287802,-0.510625,-3.78853249549866,-4.20337247848511,8.18466758728027,0.86420458555222,0.38550314307213,0.93289774656296
134,2721844275,0.806269,-0.080006,0.287856,-0.510564,-3.78888678550720,-4.20659112930298,8.18441677093506,0.25124138593674,0.59829348325729,1.21330559253693
135,2721860942,0.806291,-0.079932,0.287854,-0.510542,-3.77972340583801,-4.24624443054199,8.16567325592041,1.37325668334961,0.81369614601135,1.29347312450409
136,2721877609,0.806316,-0.079778,0.287844,-0.510532,-3.79528188705444,-4.21106481552124,8.17006587982178,1.89053058624268,1.08238625526428,1.34797716140747
137,2721894276,0.806339,-0.079765,0.287891,-0.510472,-3.80043315887451,-4.21229410171509,8.21505737304688,0.79837977886200,0.85781407356262,1.40308284759521
138,2721910943,0.806335,-0.079696,0.287874,-0.510497,-3.80680179595947,-4.18782806396484,8.22083282470703,1.47118687629700,0.79079842567444,0.92680180072784
139,2721927610,0.806279,-0.079820,0.288013,-0.510489,-3.80914139747620,-4.19370698928833,8.19676303863525,-0.25327119231224,1.05034494400024,0.65645992755890
140,2721944277,0.806226,-0.079925,0.288125,-0.510492,-3.78605437278748,-4.27949333190918,8.16866779327393,-0.01202516164631,0.98913037776947,0.60052168369293
141,2721960944,0.806182,-0.079773,0.288079,-0.510611,-3.80404996871948,-4.21894502639771,8.18217468261719,2.20543932914734,1.06174230575562,0.40084517002106
142,2721977611,0.806102,-0.079844,0.288155,-0.510684,-3.81106948852539,-4.18355274200439,8.19694805145264,0.42930084466934,0.99438101053238,0.16054680943489
143,2721994278,0.806002,-0.079963,0.288258,-0.510765,-3.79234457015991,-4.23932218551636,8.17154884338379,0.07469303160906,1.02784407138824,-0.03909778594971
144,2722010945,0.805922,-0.079987,0.288285,-0.510873,-3.81278657913208,-4.22919988632202,8.16726112365723,0.94444912672043,0.92660993337631,0.00001920952491
145,2722027612,0.805842,-0.080100,0.288324,-0.510959,-3.81061339378357,-4.19596052169800,8.19608402252197,0.35120770335197,0.64661175012589,-0.00429012719542
146,2722044279,0.805743,-0.080291,0.288428,-0.511025,-3.80032372474670,-4.22730922698975,8.18701076507568,-0.37986195087433,0.74897307157516,-0.04903551563621
147,2722060946,0.805696,-0.080396,0.288483,-0.511053,-3.78615951538086,-4.26022481918335,8.18344306945801,0.23656529188156,0.66721725463867,0.45418357849121
148,2722077613,0.805683,-0.080370,0.288486,-0.511075,-3.78446030616760,-4.20682811737061,8.15978622436523,1.17895889282227,0.79074716567993,0.79748332500458
149,2722094280,0.805682,-0.080357,0.288546,-0.511046,-3.78758907318115,-4.23943042755127,8.14421653747559,0.78609865903854,0.98466110229492,1.16652417182922
150,2722110947,0.805729,-0.080191,0.288529,-0.511007,-3.77628755569458,-4.25735759735107,8.16852474212646,1.91257083415985,0.99952924251556,1.65229451656342
151,2722127614,0.805784,-0.080031,0.288477,-0.510974,-3.82181739807129,-4.20567607879639,8.19510650634766,2.01084685325623,0.76679939031601,1.62234044075012
152,2722144281,0.805828,-0.080043,0.288526,-0.510876,-3.82116150856018,-4.21685838699341,8.22046279907227,0.59069919586182,0.72557562589645,1.62196874618530
153,2722160948,0.805875,-0.080071,0.288546,-0.510786,-3.82314753532410,-4.29324674606323,8.20734214782715,0.61307209730148,0.50589573383331,1.55523514747620
154,2722177615,0.805930,-0.079875,0.288397,-0.510814,-3.81781649589539,-4.21664142608643,8.17863655090332,2.67643094062805,0.38901209831238,1.30499911308289
155,2722194282,0.805935,-0.079945,0.288416,-0.510784,-3.81589531898499,-4.20919275283813,8.17387771606445,0.45424759387970,0.43558880686760,1.04697680473328
156,2722210949,0.805934,-0.079939,0.288420,-0.510784,-3.79298043251038,-4.23904228210449,8.16275405883789,1.00237226486206,0.67032915353775,0.96559238433838
157,2722227616,0.805942,-0.079901,0.288373,-0.510805,-3.79279971122742,-4.22266530990601,8.19818592071533,1.41158640384674,0.49252590537071,0.90200889110565
158,2722244283,0.805924,-0.079933,0.288365,-0.510832,-3.79831576347351,-4.21801137924194,8.21147823333740,0.88628256320953,0.53072708845139,0.64813578128815
159,2722260950,0.805901,-0.079919,0.288337,-0.510886,-3.80734109878540,-4.20740938186646,8.19762516021729,1.26357054710388,0.59728175401688,0.57352596521378
160,2722277617,0.805862,-0.080014,0.288360,-0.510920,-3.78869843482971,-4.21687746047974,8.19084167480469,0.43061989545822,0.52625769376755,0.43592172861099
161,2722294284,0.805809,-0.080171,0.288415,-0.510948,-3.80665111541748,-4.24594926834106,8.16962814331055,-0.03683106228709,0.51524418592453,0.29856082797050
162,2722310951,0.805773,-0.080197,0.288380,-0.511020,-3.81790208816528,-4.22273254394531,8.18941974639893,1.09722876548767,0.45094355940819,0.34279394149780
163,2722327618,0.805744,-0.080317,0.288391,-0.511041,-3.80505585670471,-4.22359037399292,8.17771720886230,0.31022742390633,0.34458684921265,0.47829791903496
164,2722344285,0.805711,-0.080388,0.288402,-0.511077,-3.79073381423950,-4.24016094207764,8.14224243164062,0.59550166130066,0.50864899158478,0.52653950452805
165,2722360952,0.805685,-0.080440,0.288401,-0.511110,-3.80688977241516,-4.24371147155762,8.20387935638428,0.75544011592865,0.50659996271133,0.57165622711182
166,2722377619,0.805670,-0.080470,0.288388,-0.511135,-3.80415844917297,-4.20881509780884,8.21745586395264,0.90782296657562,0.49584266543388,0.68524861335754
167,2722394286,0.805660,-0.080618,0.288445,-0.511096,-3.79571557044983,-4.24832153320312,8.17638492584229,-0.09226974844933,0.43966117501259,0.82307046651840
168,2722410953,0.805690,-0.080629,0.288411,-0.511067,-3.78833174705505,-4.24818849563599,8.18524265289307,1.00906980037689,0.33216467499733,1.15825104713440
169,2722427620,0.805708,-0.080592,0.288341,-0.511083,-3.79559659957886,-4.21503686904907,8.20613002777100,1.47322320938110,0.33803004026413,0.97162419557571
170,2722444287,0.805720,-0.080700,0.288363,-0.511035,-3.79546618461609,-4.19260120391846,8.19202041625977,0.21911025047302,0.31287834048271,1.05359768867493
171,2722460954,0.805729,-0.080820,0.288401,-0.510979,-3.78552341461182,-4.23785829544067,8.18039131164551,0.08779392391443,0.37195402383804,1.06724905967712
172,2722477621,0.805750,-0.080866,0.288368,-0.510958,-3.79576206207275,-4.26670980453491,8.17590427398682,0.81881874799728,0.22620497643948,1.02562844753265
173,2722494288,0.805777,-0.080869,0.288325,-0.510939,-3.79050207138062,-4.22344684600830,8.19742488861084,1.09690880775452,0.31911504268646,1.11560595035553
174,2722510955,0.805788,-0.080933,0.288336,-0.510906,-3.80008172988892,-4.24401378631592,8.17389678955078,0.51847147941589,0.40275332331657,1.08525490760803
175,2722527622,0.805820,-0.080939,0.288323,-0.510863,-3.78195381164551,-4.26228618621826,8.15818500518799,0.91779923439026,0.43195182085037,1.30613887310028
176,2722544289,0.805837,-0.080912,0.288300,-0.510852,-3.77223968505859,-4.21303653717041,8.17526721954346,1.19138121604919,0.53592652082443,1.14349830150604
177,2722560956,0.805831,-0.081026,0.288382,-0.510797,-3.79440951347351,-4.23649740219116,8.20333862304688,-0.05068753287196,0.65315580368042,1.05842554569244
178,2722577623,0.805817,-0.081039,0.288406,-0.510803,-3.78346490859985,-4.25527954101562,8.18804168701172,0.82592630386353,0.73667883872986,0.86905807256699
179,2722594290,0.805810,-0.081051,0.288420,-0.510805,-3.78327488899231,-4.21758127212524,8.18294143676758,0.88837015628815,0.69243294000626,0.86652255058289
180,2722610957,0.805790,-0.081044,0.288439,-0.510827,-3.78415608406067,-4.22815608978271,8.18632030487061,0.99878638982773,0.82263511419296,0.75504314899445
181,2722627624,0.805754,-0.081126,0.288479,-0.510848,-3.81056451797485,-4.25687408447266,8.19633769989014,0.43120896816254,0.66209465265274,0.53323715925217
182,2722644291,0.805720,-0.081156,0.288459,-0.510908,-3.80774593353271,-4.26569080352783,8.17247486114502,0.98623621463776,0.50768858194351,0.42924967408180
183,2722660958,0.805684,-0.081177,0.288432,-0.510977,-3.80328297615051,-4.20968580245972,8.19706058502197,1.08017086982727,0.51010894775391,0.38723200559616
184,2722677625,0.805636,-0.081319,0.288496,-0.510994,-3.78824424743652,-4.22902965545654,8.17558574676514,-0.01567497104406,0.58478277921677,0.43804755806923
185,2722694292,0.805604,-0.081354,0.288506,-0.511033,-3.79165744781494,-4.25789260864258,8.13395404815674,0.81691056489944,0.64976221323013,0.55814552307129
186,2722710959,0.805586,-0.081374,0.288525,-0.511048,-3.77476072311401,-4.24538230895996,8.15816688537598,0.83144587278366,0.70850491523743,0.76660734415054
187,2722727626,0.805578,-0.081364,0.288537,-0.511056,-3.78060293197632,-4.24180746078491,8.16499233245850,1.00812220573425,0.74309486150742,0.90060013532639
188,2722744293,0.805584,-0.081337,0.288528,-0.511055,-3.80351328849792,-4.25524425506592,8.19533824920654,1.18944740295410,0.67828196287155,0.99686545133591
189,2722760960,0.805601,-0.081374,0.288539,-0.511016,-3.81526994705200,-4.22238159179688,8.19839572906494,0.68725919723511,0.52032834291458,1.12610721588135
190,2722777627,0.805618,-0.081336,0.288509,-0.511012,-3.78114604949951,-4.24830102920532,8.17427253723145,1.29106569290161,0.54335427284241,1.10095548629761
191,2722794294,0.805653,-0.081362,0.288532,-0.510940,-3.78024101257324,-4.26443719863892,8.17430019378662,0.64481896162033,0.55719786882401,1.42452073097229
192,2722810961,0.805713,-0.081177,0.288458,-0.510916,-3.78473591804504,-4.27386331558228,8.15265941619873,2.26556491851807,0.74365842342377,1.59615135192871
193,2722827628,0.805771,-0.081141,0.288464,-0.510827,-3.78503918647766,-4.22679519653320,8.19132614135742,1.02982902526855,0.62813222408295,1.71023035049438
194,2722844295,0.805816,-0.081080,0.288444,-0.510777,-3.78107857704163,-4.23287916183472,8.18062400817871,1.30424332618713,0.59822940826416,1.52312958240509
195,2722860962,0.805841,-0.081167,0.288483,-0.510702,-3.80770039558411,-4.22394180297852,8.18801879882812,0.22761365771294,0.44247856736183,1.30466604232788
196,2722877629,0.805865,-0.081220,0.288519,-0.510635,-3.79137229919434,-4.25091600418091,8.18212699890137,0.45373535156250,0.55965667963028,1.30118274688721
197,2722894296,0.805874,-0.081271,0.288544,-0.510599,-3.80323290824890,-4.25306177139282,8.18429374694824,0.52560454607010,0.51895809173584,1.14556014537811
198,2722910963,0.805901,-0.081275,0.288536,-0.510561,-3.79610204696655,-4.28004264831543,8.15627765655518,0.94088900089264,0.50095242261887,1.23126018047333
199,2722927630,0.805930,-0.081225,0.288505,-0.510540,-3.79238104820251,-4.21449184417725,8.18858051300049,1.34344363212585,0.55660879611969,1.25532317161560
200,2722944297,0.805952,-0.081290,0.288559,-0.510464,-3.77445125579834,-4.22629404067993,8.18071842193604,0.29452684521675,0.60700178146362,1.34896349906921
201,2722960964,0.806004,-0.081223,0.288497,-0.510428,-3.78779482841492,-4.21553373336792,8.18837261199951,1.51191127300262,0.37505316734314,1.47076463699341
202,2722977631,0.806053,-0.081270,0.288466,-0.510360,-3.81025028228760,-4.23619842529297,8.19640064239502,0.71703392267227,0.14014628529549,1.41156077384949
203,2722994298,0.806088,-0.081470,0.288470,-0.510271,-3.82112264633179,-4.27389717102051,8.18264484405518,-0.29573705792427,-0.17508842051029,1.16713869571686
204,2723010965,0.806112,-0.081544,0.288339,-0.510296,-3.83643913269043,-4.24281072616577,8.19600105285645,1.10491251945496,-0.38658529520035,0.66862595081329
205,2723027632,0.806125,-0.081790,0.288351,-0.510228,-3.81658673286438,-4.23633432388306,8.18485450744629,-0.55296540260315,-0.23636680841446,0.89190465211868
206,2723044299,0.806163,-0.081873,0.288268,-0.510202,-3.76522755622864,-4.30292844772339,8.14344501495361,0.80247789621353,-0.19738428294659,0.97820669412613
207,2723060966,0.806228,-0.081807,0.288097,-0.510207,-3.76455307006836,-4.22538232803345,8.16931343078613,1.99261057376862,-0.22564789652824,1.19886016845703
208,2723077633,0.806300,-0.081845,0.288050,-0.510113,-3.77085947990417,-4.21331834793091,8.16977977752686,0.80227309465408,0.04416270181537,1.61144232749939
209,2723094300,0.806380,-0.081856,0.288024,-0.510001,-3.76242113113403,-4.24639034271240,8.17866992950439,0.85595721006393,0.24052244424820,1.77235388755798
210,2723110967,0.806457,-0.081796,0.287971,-0.509917,-3.77294921875000,-4.26702547073364,8.15671253204346,1.38698542118073,0.34293484687805,1.76583576202393
211,2723127634,0.806525,-0.081691,0.287901,-0.509867,-3.76134300231934,-4.25904560089111,8.18169498443604,1.75036561489105,0.44086501002312,1.64637804031372
212,2723144301,0.806559,-0.081628,0.287857,-0.509848,-3.77869749069214,-4.22540378570557,8.22443389892578,1.46697366237640,0.52218532562256,1.26866734027863
213,2723160968,0.806565,-0.081636,0.287855,-0.509839,-3.77442812919617,-4.24531602859497,8.17642879486084,0.92992663383484,0.56621342897415,1.01319348812103
214,2723177635,0.806542,-0.081646,0.287863,-0.509868,-3.78921151161194,-4.26916122436523,8.16601562500000,0.94383430480957,0.69977086782455,0.70135897397995
215,2723194302,0.806494,-0.081607,0.287844,-0.509962,-3.79151988029480,-4.24410629272461,8.19607162475586,1.43587994575500,0.80405306816101,0.31875646114349
216,2723210969,0.806418,-0.081710,0.287870,-0.510051,-3.80435490608215,-4.24306249618530,8.20397377014160,0.45085391402245,0.60587483644485,0.00363059993833
217,2723227636,0.806347,-0.081726,0.287843,-0.510175,-3.78437232971191,-4.23420619964600,8.18167781829834,1.20349609851837,0.63202536106110,-0.03795802593231
218,2723244303,0.806281,-0.081744,0.287853,-0.510270,-3.74732637405396,-4.22472715377808,8.18660831451416,0.99700623750687,0.80427068471909,0.15743485093117
219,2723260970,0.806229,-0.081798,0.287932,-0.510300,-3.76167273521423,-4.27030324935913,8.15548801422119,0.44674310088158,1.00111722946167,0.53007405996323
220,2723277637,0.806195,-0.081687,0.287898,-0.510391,-3.80296826362610,-4.24922084808350,8.18109798431396,1.88271903991699,0.94257932901382,0.52884465456009
221,2723294304,0.806157,-0.081593,0.287852,-0.510492,-3.79224538803101,-4.20423555374146,8.19224357604980,1.84358286857605,0.83328992128372,0.41873562335968
222,2723310971,0.806130,-0.081575,0.287890,-0.510516,-3.78335285186768,-4.25230264663696,8.16955089569092,0.98116493225098,0.96536189317703,0.77746713161469
223,2723327638,0.806136,-0.081499,0.287869,-0.510529,-3.76627111434937,-4.29372310638428,8.16171264648438,1.51924920082092,0.77960574626923,1.02196586132050
224,2723344305,0.806151,-0.081295,0.287776,-0.510592,-3.78354454040527,-4.23780345916748,8.19004535675049,2.56954956054688,0.82797533273697,1.01154160499573
225,2723360972,0.806155,-0.081270,0.287807,-0.510571,-3.78063631057739,-4.20026063919067,8.20576953887939,0.97596561908722,0.85809594392776,1.16195225715637
226,2723377639,0.806178,-0.081285,0.287852,-0.510507,-3.77151823043823,-4.25744724273682,8.16018009185791,0.64191192388535,0.75678491592407,1.35284376144409
227,2723394306,0.806218,-0.081208,0.287814,-0.510478,-3.76875019073486,-4.25300741195679,8.19467735290527,1.51676487922668,0.59571939706802,1.36065530776978
228,2723410973,0.806281,-0.080895,0.287690,-0.510497,-3.75378322601318,-4.17719650268555,8.16206169128418,3.22774457931519,0.92694288492203,1.61643683910370
229,2723427640,0.806302,-0.080878,0.287799,-0.510406,-3.79548501968384,-4.22236776351929,8.17217731475830,0.53672051429749,1.20025587081909,1.60685753822327
230,2723444307,0.806304,-0.080750,0.287839,-0.510401,-3.77358102798462,-4.26211357116699,8.15916728973389,1.54312038421631,1.29388332366943,1.26163697242737
231,2723460974,0.806288,-0.080597,0.287844,-0.510447,-3.81248331069946,-4.21600055694580,8.20156955718994,1.88168191909790,1.22037482261658,0.99288272857666
232,2723477641,0.806241,-0.080682,0.287927,-0.510462,-3.79604649543762,-4.21985816955566,8.20625305175781,0.22340036928654,0.88906157016754,0.57871246337891
233,2723494308,0.806180,-0.080691,0.287930,-0.510554,-3.80073714256287,-4.25278711318970,8.19534683227539,1.07910788059235,0.78987646102905,0.19799257814884
234,2723510975,0.806140,-0.080717,0.287926,-0.510615,-3.81213927268982,-4.22903871536255,8.20234870910645,0.95523196458817,0.62929761409760,0.41311365365982
235,2723527642,0.806101,-0.080739,0.287896,-0.510691,-3.79990863800049,-4.20955085754395,8.19265842437744,1.11509370803833,0.51292634010315,0.30632150173187
236,2723544309,0.806086,-0.080709,0.287867,-0.510735,-3.77631115913391,-4.19211053848267,8.15980052947998,1.36467683315277,0.66670501232147,0.61312323808670
237,2723560976,0.806080,-0.080764,0.287928,-0.510702,-3.78446888923645,-4.25094747543335,8.21714019775391,0.39564579725266,0.75623410940170,1.04932022094727
238,2723577643,0.806124,-0.080644,0.287870,-0.510685,-3.77581214904785,-4.24095106124878,8.18585300445557,1.84587526321411,0.62822192907333,1.40291643142700
239,2723594310,0.806176,-0.080504,0.287793,-0.510667,-3.78972601890564,-4.17777776718140,8.21264553070068,2.01975989341736,0.57412791252136,1.47283911705017
240,2723610977,0.806229,-0.080535,0.287805,-0.510572,-3.79315400123596,-4.20672130584717,8.18323230743408,0.63047581911087,0.44224810600281,1.57527709007263
241,2723627644,0.806281,-0.080600,0.287835,-0.510462,-3.79649710655212,-4.23797035217285,8.20327568054199,0.32626098394394,0.39779725670815,1.64151167869568
242,2723644311,0.806320,-0.080594,0.287836,-0.510402,-3.78466725349426,-4.24385499954224,8.19736671447754,0.90919327735901,0.52979230880737,1.44447314739227
243,2723660978,0.806346,-0.080547,0.287815,-0.510379,-3.79936933517456,-4.23860025405884,8.18156528472900,1.31219625473022,0.63899201154709,1.19825804233551
244,2723677645,0.806328,-0.080601,0.287869,-0.510370,-3.78358769416809,-4.23314905166626,8.18562412261963,0.45984405279160,0.75750201940536,0.87551254034042
245,2723694312,0.806310,-0.080558,0.287883,-0.510397,-3.78460097312927,-4.24368333816528,8.18165588378906,1.21740376949310,0.89992153644562,0.83220154047012
246,2723710979,0.806276,-0.080554,0.287940,-0.510419,-3.76730275154114,-4.22746706008911,8.17414569854736,0.84709519147873,1.04629802703857,0.72720211744308
247,2723727646,0.806247,-0.080508,0.287971,-0.510454,-3.79177808761597,-4.20852279663086,8.22165966033936,1.20974564552307,1.06827378273010,0.70427882671356
248,2723744313,0.806202,-0.080560,0.288059,-0.510469,-3.79902601242065,-4.21902465820312,8.20923805236816,0.42219337821007,1.05773413181305,0.59186470508575
249,2723760980,0.806153,-0.080572,0.288099,-0.510521,-3.81515979766846,-4.24084568023682,8.20269298553467,0.87429594993591,0.95195364952087,0.44744747877121
250,2723777647,0.806095,-0.080734,0.288201,-0.510528,-3.80366992950439,-4.24725770950317,8.18218040466309,-0.27460655570030,0.75359600782394,0.42428076267242
251,2723794314,0.806050,-0.080711,0.288209,-0.510598,-3.79413652420044,-4.25338315963745,8.17867851257324,1.19418573379517,0.87663930654526,0.45998486876488
252,2723810981,0.806008,-0.080739,0.288248,-0.510639,-3.79627609252930,-4.20856523513794,8.18441486358643,0.74750018119812,0.84523826837540,0.53513252735138
253,2723827648,0.805981,-0.080781,0.288301,-0.510645,-3.78024840354919,-4.23715877532959,8.21915626525879,0.55735152959824,0.81898528337479,0.78308904170990
254,2723844315,0.806001,-0.080780,0.288293,-0.510619,-3.79467344284058,-4.21407461166382,8.19578933715820,0.97156006097794,0.52721822261810,1.17231249809265
255,2723860982,0.806018,-0.080790,0.288322,-0.510573,-3.77193999290466,-4.20009994506836,8.17202568054199,0.75460773706436,0.69790118932724,1.24438655376434
256,2723877649,0.806033,-0.080940,0.288432,-0.510464,-3.79325914382935,-4.22560024261475,8.17507171630859,-0.44778677821159,0.60817992687225,1.39384937286377
257,2723894316,0.806057,-0.081024,0.288474,-0.510389,-3.79695701599121,-4.28083372116089,8.17937278747559,0.23766665160656,0.47797781229019,1.30242514610291
258,2723910983,0.806085,-0.081053,0.288451,-0.510353,-3.78509092330933,-4.22776603698730,8.19567871093750,0.85229444503784,0.31821852922440,1.17445099353790
259,2723927650,0.806088,-0.081174,0.288500,-0.510302,-3.80003929138184,-4.24412488937378,8.17492961883545,0.03467318788171,0.42988991737366,1.05603075027466
260,2723944317,0.806098,-0.081190,0.288490,-0.510288,-3.80174422264099,-4.24979782104492,8.19776725769043,0.89296752214432,0.47285524010658,1.05075454711914
261,2723960984,0.806086,-0.081236,0.288494,-0.510298,-3.78924965858459,-4.21502065658569,8.15548419952393,0.73766493797302,0.51821529865265,0.75369846820831
262,2723977651,0.806054,-0.081415,0.288594,-0.510264,-3.78734183311462,-4.23994588851929,8.17705631256104,-0.44653177261353,0.59584736824036,0.73072391748428
263,2723994318,0.806051,-0.081472,0.288619,-0.510245,-3.77715921401978,-4.27312374114990,8.15092468261719,0.52451604604721,0.53604173660278,0.98294490575790
264,2724010985,0.806065,-0.081451,0.288593,-0.510241,-3.79822087287903,-4.22073841094971,8.16649055480957,1.18186604976654,0.50958389043808,1.08275771141052
265,2724027652,0.806076,-0.081507,0.288615,-0.510203,-3.79580187797546,-4.21047258377075,8.18381118774414,0.52533566951752,0.51192742586136,1.09022378921509
266,2724044319,0.806076,-0.081607,0.288651,-0.510166,-3.81411409378052,-4.23652935028076,8.18709182739258,0.23661650717258,0.46309679746628,0.96454226970673
267,2724060986,0.806049,-0.081732,0.288680,-0.510172,-3.80726242065430,-4.25494289398193,8.18466854095459,0.18937389552593,0.39614519476891,0.59445154666901
268,2724077653,0.806026,-0.081906,0.288713,-0.510162,-3.79796791076660,-4.26483821868896,8.19517612457275,-0.13217432796955,0.23849906027317,0.61038261651993
269,2724094320,0.806023,-0.081996,0.288659,-0.510183,-3.80757999420166,-4.25702142715454,8.17158508300781,0.71027225255966,0.02024043723941,0.62467461824417
270,2724110987,0.806028,-0.082177,0.288667,-0.510141,-3.78708267211914,-4.21850252151489,8.16612434387207,-0.12422158569098,0.00909891072661,0.83487790822983
271,2724127654,0.806070,-0.082372,0.288694,-0.510028,-3.76198005676270,-4.29666471481323,8.15717697143555,-0.40320792794228,-0.07217658311129,1.37771344184875
272,2724144321,0.806165,-0.082277,0.288522,-0.509991,-3.75767588615417,-4.28335857391357,8.17205619812012,2.11844563484192,-0.17768809199333,1.53340017795563
273,2724160988,0.806255,-0.082236,0.288395,-0.509926,-3.78836989402771,-4.19849872589111,8.19581508636475,1.59658694267273,-0.13134191930294,1.59613859653473
274,2724177655,0.806328,-0.082357,0.288377,-0.509802,-3.78267025947571,-4.23953247070312,8.18257808685303,0.17628581821918,-0.11493699997663,1.64555847644806
275,2724194322,0.806395,-0.082442,0.288345,-0.509701,-3.79080748558044,-4.29567003250122,8.17734622955322,0.47421273589134,-0.02412716113031,1.53710126876831
276,2724210989,0.806465,-0.082412,0.288252,-0.509647,-3.80268406867981,-4.27832555770874,8.16729068756104,1.40180218219757,0.02775776199996,1.51574027538300
277,2724227656,0.806526,-0.082465,0.288190,-0.509577,-3.78979778289795,-4.26216316223145,8.18400669097900,0.82727092504501,-0.03502536565065,1.36990165710449
278,2724244323,0.806570,-0.082494,0.288120,-0.509541,-3.77524185180664,-4.23677778244019,8.18577480316162,1.01818799972534,0.02458178997040,1.21066749095917
279,2724260990,0.806603,-0.082592,0.288097,-0.509486,-3.75945806503296,-4.25755167007446,8.19110488891602,0.43064555525780,0.05276856943965,1.17378520965576
280,2724277657,0.806607,-0.082616,0.288069,-0.509493,-3.76534366607666,-4.26013278961182,8.13878726959229,0.95086503028870,0.36566609144211,0.89714246988297
281,2724294324,0.806612,-0.082680,0.288072,-0.509472,-3.77746033668518,-4.25917673110962,8.16977024078369,0.58739519119263,0.40548104047775,0.93753367662430
282,2724310991,0.806597,-0.082703,0.288079,-0.509488,-3.77056288719177,-4.26858186721802,8.17462730407715,0.86520344018936,0.63125705718994,0.75386506319046
283,2724327658,0.806564,-0.082673,0.288047,-0.509565,-3.78454637527466,-4.24692678451538,8.18901634216309,1.40294206142426,0.66582131385803,0.43905931711197
284,2724344325,0.806520,-0.082731,0.288081,-0.509606,-3.77862811088562,-4.25867938995361,8.19645118713379,0.59411859512329,0.71768701076508,0.48342046141624
285,2724360992,0.806474,-0.082720,0.288076,-0.509682,-3.75769090652466,-4.25126934051514,8.17451763153076,1.18873023986816,0.76897644996643,0.38139232993126
286,2724377659,0.806421,-0.082753,0.288150,-0.509719,-3.76426076889038,-4.23184442520142,8.17383193969727,0.59122437238693,1.05302131175995,0.52780729532242
287,2724394326,0.806378,-0.082835,0.288258,-0.509713,-3.76419401168823,-4.28574705123901,8.19329738616943,0.12292174249887,1.02058291435242,0.72615200281143
288,2724410993,0.806351,-0.082780,0.288259,-0.509764,-3.76566386222839,-4.27776002883911,8.17490673065186,1.37784147262573,0.92226839065552,0.65871381759644
289,2724427660,0.806319,-0.082723,0.288270,-0.509818,-3.78766489028931,-4.24372434616089,8.19285964965820,1.35224175453186,0.98024284839630,0.65202891826630
290,2724444327,0.806279,-0.082772,0.288328,-0.509841,-3.79553818702698,-4.24448299407959,8.19299221038818,0.54959088563919,0.88084000349045,0.58998215198517
291,2724460994,0.806239,-0.082771,0.288370,-0.509880,-3.78094077110291,-4.23421382904053,8.18896007537842,0.91754287481308,0.98166424036026,0.58954668045044
292,2724477661,0.806197,-0.082904,0.288484,-0.509859,-3.78118586540222,-4.29481220245361,8.16384506225586,-0.21632485091686,0.86695784330368,0.71069473028183
293,2724494328,0.806194,-0.082812,0.288442,-0.509904,-3.77323746681213,-4.28851413726807,8.17228794097900,1.73406291007996,0.75157260894775,0.84130668640137
294,2724510995,0.806186,-0.082754,0.288441,-0.509926,-3.77414631843567,-4.19516611099243,8.18104648590088,1.34131753444672,0.84322756528854,0.92708349227905
295,2724527662,0.806187,-0.082847,0.288547,-0.509850,-3.75663995742798,-4.24669981002808,8.16495418548584,-0.05372263491154,0.84320205450058,1.25701367855072
296,2724544329,0.806196,-0.082800,0.288580,-0.509824,-3.76807618141174,-4.26160860061646,8.16959095001221,1.06645512580872,0.91746592521667,1.28380441665649
297,2724560996,0.806202,-0.082800,0.288635,-0.509784,-3.78125452995300,-4.27497243881226,8.16277313232422,0.71364015340805,0.89456832408905,1.22083568572998
298,2724577663,0.806194,-0.082825,0.288711,-0.509748,-3.78849411010742,-4.29287385940552,8.18415260314941,0.47216373682022,0.91560930013657,1.19291794300079
299,2724594330,0.806190,-0.082752,0.288708,-0.509769,-3.80174231529236,-4.27976417541504,8.20864772796631,1.44082307815552,0.88190281391144,0.96641188859940
300,2724610997,0.806167,-0.082787,0.288759,-0.509771,-3.79550504684448,-4.24075698852539,8.17384910583496,0.58955949544907,0.82213568687439,0.83695268630981
301,2724627664,0.806158,-0.082757,0.288774,-0.509781,-3.75915455818176,-4.24235248565674,8.15615940093994,1.09831726551056,0.82181543111801,0.96541297435760
302,2724644331,0.806153,-0.082805,0.288841,-0.509743,-3.75907039642334,-4.27945423126221,8.17269611358643,0.40737637877464,0.81993287801743,1.08137464523315
303,2724660998,0.806171,-0.082736,0.288848,-0.509723,-3.76877999305725,-4.26054811477661,8.15859413146973,1.30983996391296,0.85613650083542,1.27312397956848
304,2724677665,0.806170,-0.082765,0.288905,-0.509687,-3.78358674049377,-4.24786567687988,8.19317245483398,0.54733693599701,0.81158316135406,1.13372683525085
305,2724694332,0.806165,-0.082812,0.288976,-0.509648,-3.78826999664307,-4.26592683792114,8.18127059936523,0.40613418817520,0.85489434003830,1.07590639591217
306,2724710999,0.806170,-0.082826,0.288998,-0.509625,-3.78413510322571,-4.27113294601440,8.17557716369629,0.77902942895889,0.67386370897293,1.08638179302216
307,2724727666,0.806160,-0.082860,0.289054,-0.509603,-3.78644061088562,-4.27233362197876,8.18129444122314,0.55262601375580,0.81449031829834,1.01266849040985
308,2724744333,0.806141,-0.082905,0.289147,-0.509572,-3.78323054313660,-4.28607416152954,8.18421459197998,0.30442616343498,0.97465938329697,1.07495868206024
309,2724761000,0.806121,-0.082975,0.289218,-0.509552,-3.77320384979248,-4.28908586502075,8.15380764007568,0.30751246213913,0.81256926059723,0.87767684459686
310,2724777667,0.806096,-0.082887,0.289193,-0.509620,-3.79080438613892,-4.25394678115845,8.15770053863525,1.71185648441315,0.91902834177017,0.58482110500336
311,2724794334,0.806063,-0.083001,0.289287,-0.509601,-3.79806280136108,-4.25139999389648,8.16633892059326,-0.02652194909751,0.80436038970947,0.75120127201080
312,2724811001,0.806026,-0.083059,0.289353,-0.509612,-3.77913403511047,-4.29820394515991,8.16836738586426,0.42641940712929,0.86492156982422,0.69097298383713
313,2724827668,0.806024,-0.083026,0.289366,-0.509614,-3.78027009963989,-4.27511215209961,8.15955352783203,1.11395406723022,0.80290055274963,1.02925288677216
314,2724844335,0.806009,-0.083040,0.289407,-0.509613,-3.77480244636536,-4.26586580276489,8.16364097595215,0.74555373191833,0.82267355918884,0.92627698183060
315,2724861002,0.805991,-0.083002,0.289455,-0.509619,-3.78620934486389,-4.27392053604126,8.17566013336182,1.02268326282501,1.05656874179840,0.97070211172104
316,2724877669,0.805980,-0.083017,0.289509,-0.509604,-3.79525327682495,-4.28788709640503,8.17074489593506,0.66810089349747,0.88154423236847,1.00426745414734
317,2724894336,0.805958,-0.082923,0.289488,-0.509665,-3.77799630165100,-4.25378751754761,8.18192672729492,1.67581951618195,0.90478771924973,0.73501390218735
318,2724911003,0.805955,-0.083011,0.289574,-0.509608,-3.80393505096436,-4.27320814132690,8.18546867370605,0.08099376410246,0.77238297462463,1.12414789199829
319,2724927670,0.805950,-0.083058,0.289628,-0.509576,-3.79855394363403,-4.28777027130127,8.16515350341797,0.46255892515182,0.73976522684097,1.06399631500244
320,2724944337,0.805965,-0.083029,0.289641,-0.509550,-3.78606820106506,-4.27299022674561,8.13473033905029,1.07107830047607,0.77366358041763,1.18272387981415
321,2724961004,0.805976,-0.083078,0.289716,-0.509482,-3.77830982208252,-4.30294561386108,8.15501403808594,0.31921747326851,0.80060809850693,1.31753647327423
322,2724977671,0.805999,-0.082936,0.289673,-0.509493,-3.79094314575195,-4.28320646286011,8.15759563446045,1.95031118392944,0.84262579679489,1.23748397827148
323,2724994338,0.806007,-0.082962,0.289739,-0.509439,-3.80906367301941,-4.26169776916504,8.17682170867920,0.51900935173035,0.86069554090500,1.25363266468048
324,2725011005,0.805988,-0.082965,0.289774,-0.509449,-3.79494166374207,-4.29328632354736,8.17182254791260,0.84203666448593,0.84408575296402,0.85883873701096
325,2725027672,0.805985,-0.082988,0.289807,-0.509430,-3.80353808403015,-4.27276897430420,8.16853427886963,0.68984609842300,0.70598208904266,1.04006135463715
326,2725044339,0.805974,-0.083026,0.289856,-0.509414,-3.78269648551941,-4.30667495727539,8.17411327362061,0.55537939071655,0.76649212837219,0.97487705945969
327,2725061006,0.805984,-0.082945,0.289817,-0.509433,-3.82399678230286,-4.28203105926514,8.16543865203857,1.62315964698792,0.69781148433685,0.99751853942871
328,2725077673,0.805961,-0.083005,0.289885,-0.509422,-3.79622006416321,-4.26486921310425,8.16910266876221,0.38632276654243,0.83500605821609,0.84699273109436
329,2725094340,0.805951,-0.083005,0.289912,-0.509423,-3.79929995536804,-4.28428554534912,8.12822246551514,0.88770413398743,0.80158144235611,0.91931027173996
330,2725111007,0.805932,-0.082986,0.289932,-0.509444,-3.78901362419128,-4.26386928558350,8.15654373168945,1.03994596004486,0.84320193529129,0.82961452007294
331,2725127674,0.805924,-0.083046,0.289988,-0.509414,-3.79836463928223,-4.29104423522949,8.16019344329834,0.40777337551117,0.73503965139389,0.97544044256210
332,2725144341,0.805926,-0.083017,0.289981,-0.509420,-3.80431270599365,-4.29425525665283,8.13719081878662,1.18026518821716,0.69011497497559,0.98738867044449
333,2725161008,0.805929,-0.083054,0.290007,-0.509396,-3.80493521690369,-4.28709602355957,8.17904663085938,0.63915854692459,0.61012655496597,1.04231524467468
334,2725177675,0.805923,-0.083080,0.290053,-0.509374,-3.79904222488403,-4.30348253250122,8.13066005706787,0.63726323843002,0.78958195447922,1.02519321441650
335,2725194342,0.805929,-0.083007,0.290038,-0.509385,-3.78738141059875,-4.28101587295532,8.15602779388428,1.46843361854553,0.80030077695847,1.03919041156769
336,2725211009,0.805926,-0.082992,0.290058,-0.509382,-3.81227183341980,-4.27482891082764,8.14721870422363,0.97141927480698,0.77213966846466,1.03888309001923
337,2725227676,0.805928,-0.082959,0.290060,-0.509382,-3.79637646675110,-4.26230049133301,8.17788600921631,1.16184973716736,0.75180321931839,1.01940464973450
338,2725244343,0.805919,-0.083006,0.290105,-0.509362,-3.80303096771240,-4.26070642471313,8.12870883941650,0.51226037740707,0.70639187097549,0.98134410381317
339,2725261010,0.805908,-0.083040,0.290141,-0.509354,-3.79923009872437,-4.29837465286255,8.16199111938477,0.59591156244278,0.66144162416458,1.02446317672729
340,2725277677,0.805902,-0.082999,0.290126,-0.509379,-3.80898070335388,-4.28559017181396,8.17741107940674,1.32085323333740,0.71771258115768,0.85111641883850
341,2725294344,0.805895,-0.083017,0.290150,-0.509374,-3.79854822158813,-4.26642942428589,8.16188526153564,0.79325729608536,0.71644479036331,0.91459757089615
342,2725311011,0.805899,-0.082987,0.290153,-0.509371,-3.79961109161377,-4.28195047378540,8.15064430236816,1.14553451538086,0.74629646539688,1.02153062820435
343,2725327678,0.805888,-0.082990,0.290176,-0.509374,-3.80055284500122,-4.28382873535156,8.13234138488770,0.87699812650681,0.75812953710556,0.92456090450287
344,2725344345,0.805894,-0.082991,0.290182,-0.509360,-3.79485535621643,-4.26322364807129,8.16606712341309,0.93876308202744,0.63468909263611,1.05124127864838
345,2725361012,0.805897,-0.083003,0.290201,-0.509343,-3.78443980216980,-4.28017520904541,8.14327526092529,0.81478476524353,0.67134082317352,1.04535019397736
346,2725377679,0.805897,-0.082953,0.290173,-0.509367,-3.80428814888000,-4.27524566650391,8.13704872131348,1.38415527343750,0.63438177108765,0.94744586944580
347,2725394346,0.805885,-0.082969,0.290206,-0.509365,-3.80599617958069,-4.26873111724854,8.17940330505371,0.77160167694092,0.77791523933411,0.89943474531174
348,2725411013,0.805871,-0.082988,0.290244,-0.509362,-3.78835034370422,-4.30166673660278,8.14012718200684,0.73413032293320,0.79672783613205,0.91010242700577
349,2725427680,0.805882,-0.082915,0.290219,-0.509371,-3.80160808563232,-4.27381563186646,8.16350078582764,1.50434267520905,0.73040372133255,1.06633996963501
350,2725444347,0.805884,-0.082926,0.290245,-0.509352,-3.80206918716431,-4.28166961669922,8.14877796173096,0.79666382074356,0.71072041988373,1.05715775489807
351,2725461014,0.805872,-0.082891,0.290234,-0.509382,-3.80609774589539,-4.27612066268921,8.15709018707275,1.22639381885529,0.68033087253571,0.89435058832169
352,2725477681,0.805852,-0.082910,0.290262,-0.509395,-3.80151081085205,-4.26772785186768,8.15966987609863,0.79767549037933,0.76294469833374,0.78840374946594
353,2725494348,0.805846,-0.082941,0.290309,-0.509373,-3.77981472015381,-4.29727554321289,8.13322544097900,0.61216276884079,0.78759694099426,0.99148678779602
354,2725511015,0.805842,-0.082867,0.290296,-0.509399,-3.79870557785034,-4.28727483749390,8.15503883361816,1.48298180103302,0.83620977401733,0.93907034397125
355,2725527682,0.805839,-0.082842,0.290305,-0.509402,-3.80884814262390,-4.28350210189819,8.16344547271729,1.08064460754395,0.75455653667450,1.00658547878265
356,2725544349,0.805826,-0.082887,0.290349,-0.509390,-3.81923937797546,-4.28170347213745,8.15570354461670,0.55700582265854,0.73486036062241,0.90795105695724
357,2725561016,0.805825,-0.082883,0.290369,-0.509381,-3.80894637107849,-4.28112173080444,8.14284896850586,0.92433023452759,0.75221300125122,0.99477797746658
358,2725577683,0.805809,-0.082909,0.290402,-0.509383,-3.79940676689148,-4.26599407196045,8.15132808685303,0.72265595197678,0.75342959165573,0.84665983915329
359,2725594350,0.805796,-0.082998,0.290465,-0.509354,-3.79934954643250,-4.28387022018433,8.14679718017578,0.20378103852272,0.67552852630615,0.93168115615845
360,2725611017,0.805785,-0.082983,0.290475,-0.509368,-3.81655693054199,-4.28390073776245,8.15797901153564,1.04421055316925,0.75072741508484,0.88757604360580
361,2725627684,0.805771,-0.083028,0.290524,-0.509355,-3.81704664230347,-4.27112245559692,8.16232013702393,0.53284025192261,0.76183056831360,0.91076850891113
362,2725644351,0.805752,-0.083064,0.290566,-0.509355,-3.80363082885742,-4.32034873962402,8.12318420410156,0.61171454191208,0.74709039926529,0.86937832832336
363,2725661018,0.805765,-0.082908,0.290482,-0.509407,-3.79585075378418,-4.25032663345337,8.15651702880859,2.25378298759460,0.71079719066620,0.97681063413620
364,2725677685,0.805755,-0.083025,0.290582,-0.509347,-3.82095646858215,-4.27085876464844,8.14260768890381,-0.13855190575123,0.75869303941727,1.06586623191833
365,2725694352,0.805772,-0.082971,0.290592,-0.509324,-3.77266144752502,-4.29642105102539,8.13307952880859,1.19544053077698,0.80509036779404,1.28430402278900
366,2725711019,0.805778,-0.082927,0.290607,-0.509313,-3.80837774276733,-4.28609371185303,8.13560199737549,1.11309587955475,0.80261862277985,1.21183264255524
367,2725727686,0.805757,-0.082977,0.290666,-0.509304,-3.82416486740112,-4.29133415222168,8.16659450531006,0.47245821356773,0.81340169906616,0.86066991090775
368,2725744353,0.805728,-0.082992,0.290674,-0.509343,-3.83453822135925,-4.28167629241943,8.17531108856201,0.91705632209778,0.66959917545319,0.65598607063293
369,2725761020,0.805706,-0.083012,0.290690,-0.509366,-3.82040882110596,-4.25807094573975,8.16297721862793,0.84149891138077,0.69810616970062,0.72854685783386
370,2725777687,0.805686,-0.083086,0.290757,-0.509347,-3.78593373298645,-4.31525087356567,8.14442348480225,0.30195450782776,0.78270494937897,0.84843993186951
371,2725794354,0.805700,-0.082962,0.290711,-0.509371,-3.78996920585632,-4.29806423187256,8.12868309020996,1.89254152774811,0.78682857751846,1.09444987773895
372,2725811021,0.805701,-0.082918,0.290708,-0.509379,-3.80636358261108,-4.24928379058838,8.15793609619141,1.24306750297546,0.74664229154587,1.02451443672180
373,2725827688,0.805702,-0.082963,0.290764,-0.509338,-3.80977249145508,-4.25647735595703,8.15051651000977,0.45601493120193,0.75230258703232,1.12427592277527
374,2725844355,0.805694,-0.082981,0.290785,-0.509335,-3.79733443260193,-4.27453517913818,8.15495586395264,0.78657239675522,0.68239271640778,0.94094020128250
375,2725861022,0.805695,-0.083013,0.290803,-0.509318,-3.80473113059998,-4.29184198379517,8.12303066253662,0.72519159317017,0.62025636434555,0.96145588159561
376,2725877689,0.805705,-0.083099,0.290847,-0.509264,-3.81122589111328,-4.30411386489868,8.14684486389160,0.25937342643738,0.51957285404205,1.13204932212830
377,2725894356,0.805705,-0.083078,0.290834,-0.509274,-3.79654192924500,-4.29460239410400,8.15810585021973,1.16799676418304,0.62947690486908,0.93269288539886
378,2725911023,0.805706,-0.083042,0.290820,-0.509287,-3.81487202644348,-4.26516151428223,8.14435577392578,1.26027929782867,0.68124026060104,0.94402647018433
379,2725927690,0.805692,-0.083066,0.290846,-0.509290,-3.79292368888855,-4.28086709976196,8.14053535461426,0.75965344905853,0.72264313697815,0.84951567649841
380,2725944357,0.805676,-0.083061,0.290846,-0.509316,-3.79561901092529,-4.28357887268066,8.15437507629395,1.01412844657898,0.64730340242386,0.83508288860321
381,2725961024,0.805672,-0.083081,0.290862,-0.509310,-3.81625485420227,-4.27743434906006,8.15162563323975,0.80597400665283,0.65146541595459,0.93721359968185
382,2725977691,0.805668,-0.083071,0.290868,-0.509314,-3.80341219902039,-4.28088951110840,8.14477443695068,1.04057347774506,0.71008002758026,0.92365151643753
383,2725994358,0.805670,-0.082991,0.290840,-0.509340,-3.78853750228882,-4.25777626037598,8.12701129913330,1.56950116157532,0.75454360246658,0.96901154518127
384,2726011025,0.805670,-0.083028,0.290889,-0.509306,-3.80369305610657,-4.27106523513794,8.14756870269775,0.52628332376480,0.73552626371384,1.12998747825623
385,2726027692,0.805671,-0.083045,0.290907,-0.509291,-3.81380200386047,-4.29282760620117,8.14483070373535,0.79864877462387,0.65091466903687,1.00763559341431
386,2726044359,0.805670,-0.083073,0.290947,-0.509266,-3.81731438636780,-4.29613971710205,8.14268779754639,0.64123302698135,0.74086648225784,1.05606913566589
387,2726061026,0.805662,-0.083109,0.290972,-0.509258,-3.81181240081787,-4.33780384063721,8.15311050415039,0.67400455474854,0.65336072444916,0.91326564550400
388,2726077693,0.805664,-0.082977,0.290878,-0.509331,-3.81888794898987,-4.28424882888794,8.16630935668945,2.17776465415955,0.58838135004044,0.79243773221970
389,2726094360,0.805651,-0.083035,0.290912,-0.509322,-3.80855846405029,-4.22509717941284,8.17402267456055,0.51931673288345,0.62721019983292,0.85778856277466
390,2726111027,0.805645,-0.083133,0.290974,-0.509281,-3.77825403213501,-4.30140924453735,8.12527561187744,0.13525427877903,0.61025464534760,1.00253868103027
391,2726127694,0.805648,-0.083103,0.290976,-0.509279,-3.78645491600037,-4.33031177520752,8.12406635284424,1.13044846057892,0.71918541193008,1.05209934711456
392,2726144361,0.805654,-0.083017,0.290937,-0.509306,-3.80129790306091,-4.27177143096924,8.14737606048584,1.65225589275360,0.71250039339066,0.98727345466614
393,2726161028,0.805636,-0.083087,0.290999,-0.509287,-3.81018042564392,-4.27030515670776,8.15161037445068,0.32494190335274,0.74376082420349,0.89184063673019
394,2726177695,0.805620,-0.083153,0.291044,-0.509277,-3.81736826896667,-4.32210254669189,8.14584255218506,0.44204309582710,0.67816656827927,0.83521085977554
395,2726194362,0.805604,-0.083099,0.291022,-0.509323,-3.80135917663574,-4.28153467178345,8.13930416107178,1.42621111869812,0.73118501901627,0.76626151800156
396,2726211029,0.805586,-0.083136,0.291058,-0.509325,-3.81722378730774,-4.29851245880127,8.17184066772461,0.62869578599930,0.71714925765991,0.85817277431488
397,2726227696,0.805585,-0.083076,0.291000,-0.509369,-3.82074904441833,-4.29551601409912,8.15574836730957,1.62669444084167,0.56308877468109,0.75570905208588
398,2726244363,0.805582,-0.083049,0.290961,-0.509401,-3.81036543846130,-4.24323558807373,8.14931297302246,1.33057332038879,0.52607846260071,0.79791885614395
399,2726261030,0.805573,-0.083161,0.291013,-0.509367,-3.80755209922791,-4.28006124496460,8.12280273437500,0.11462321877480,0.52363240718842,0.90066421031952
400,2726277697,0.805579,-0.083167,0.291015,-0.509356,-3.78987312316895,-4.29347085952759,8.13422870635986,0.92782646417618,0.59895938634872,1.02320814132690
401,2726294364,0.805590,-0.083166,0.290998,-0.509347,-3.81295657157898,-4.27167654037476,8.15300369262695,1.02432215213776,0.50045293569565,1.05322623252869
402,2726311031,0.805621,-0.083165,0.290999,-0.509298,-3.79345011711121,-4.30034542083740,8.15041542053223,0.91472560167313,0.54641497135162,1.32340180873871
403,2726327698,0.805646,-0.083088,0.290945,-0.509301,-3.80023622512817,-4.29947519302368,8.14455509185791,1.60957252979279,0.54161250591278,1.15699601173401
404,2726344365,0.805650,-0.083096,0.290947,-0.509294,-3.82347917556763,-4.26566839218140,8.16934585571289,0.92518842220306,0.60145664215088,0.98434096574783
405,2726361032,0.805633,-0.083149,0.290984,-0.509291,-3.81884264945984,-4.29503297805786,8.14406204223633,0.52560460567474,0.64954453706741,0.86328250169754
406,2726377699,0.805620,-0.083173,0.290991,-0.509303,-3.80954813957214,-4.30931234359741,8.14096927642822,0.84625005722046,0.61991065740585,0.79537034034729
407,2726394366,0.805597,-0.083160,0.290987,-0.509345,-3.81768321990967,-4.28490829467773,8.15052127838135,1.13455927371979,0.70959341526031,0.66921502351761
408,2726411033,0.805571,-0.083209,0.291005,-0.509368,-3.82331180572510,-4.29379749298096,8.14378643035889,0.66395157575607,0.60607969760895,0.68316107988358
409,2726427700,0.805553,-0.083225,0.291010,-0.509391,-3.81525421142578,-4.29477262496948,8.15097332000732,0.92261427640915,0.65370655059814,0.71804559230804
410,2726444367,0.805532,-0.083229,0.291006,-0.509426,-3.79528474807739,-4.26322984695435,8.15452671051025,1.03458023071289,0.65076112747192,0.67063653469086
411,2726461034,0.805514,-0.083284,0.291048,-0.509421,-3.79913830757141,-4.30468082427979,8.13780975341797,0.50636947154999,0.68791234493256,0.84998953342438
412,2726477701,0.805510,-0.083233,0.291033,-0.509443,-3.79458665847778,-4.28143072128296,8.13536834716797,1.34819495677948,0.73177409172058,0.93487000465393
413,2726494368,0.805517,-0.083235,0.291048,-0.509424,-3.80880594253540,-4.27060651779175,8.14196014404297,0.89091849327087,0.68097126483917,1.07406222820282
414,2726511035,0.805502,-0.083316,0.291116,-0.509395,-3.81034088134766,-4.32597017288208,8.13907051086426,0.23176291584969,0.73429691791534,0.94004374742508
415,2726527702,0.805502,-0.083272,0.291079,-0.509423,-3.80429458618164,-4.29934597015381,8.15960407257080,1.41445505619049,0.59107071161270,0.86261653900146
416,2726544369,0.805501,-0.083280,0.291101,-0.509411,-3.81648850440979,-4.28525590896606,8.15821170806885,0.81058436632156,0.68386554718018,1.06417572498322
417,2726561036,0.805498,-0.083284,0.291117,-0.509405,-3.80523252487183,-4.30963420867920,8.14475250244141,0.88133931159973,0.68809163570404,0.99831265211105
418,2726577703,0.805496,-0.083230,0.291083,-0.509438,-3.80772542953491,-4.28787279129028,8.15581226348877,1.47253191471100,0.65044099092484,0.85128295421600
419,2726594370,0.805479,-0.083223,0.291087,-0.509464,-3.80757498741150,-4.27427291870117,8.16419696807861,1.02559018135071,0.70055222511292,0.81151920557022
420,2726611037,0.805474,-0.083311,0.291137,-0.509428,-3.79190611839294,-4.31942129135132,8.13901424407959,0.24707929790020,0.58597368001938,0.98252230882645
421,2726627704,0.805460,-0.083269,0.291103,-0.509476,-3.80650448799133,-4.28501510620117,8.14559078216553,1.39860081672668,0.60828238725662,0.75036883354187
422,2726644371,0.805456,-0.083285,0.291116,-0.509473,-3.80906653404236,-4.27841377258301,8.17621803283691,0.83960348367691,0.64246255159378,0.94077360630035
423,2726661038,0.805462,-0.083297,0.291123,-0.509457,-3.79692435264587,-4.29360723495483,8.12910556793213,0.85503518581390,0.58789473772049,1.06299746036530
424,2726677705,0.805462,-0.083329,0.291135,-0.509446,-3.80969023704529,-4.28612327575684,8.14334011077881,0.74951088428497,0.58471876382828,0.94612675905228
425,2726694372,0.805469,-0.083365,0.291148,-0.509421,-3.82650971412659,-4.32318305969238,8.13718128204346,0.68608099222183,0.53084242343903,1.06528985500336
426,2726711039,0.805478,-0.083299,0.291104,-0.509443,-3.79863214492798,-4.26245498657227,8.16538619995117,1.55002295970917,0.61373794078827,0.96788465976715
427,2726727706,0.805465,-0.083463,0.291208,-0.509377,-3.81257200241089,-4.30626392364502,8.13369464874268,-0.42883345484734,0.61656814813614,0.99586665630341
428,2726744373,0.805487,-0.083354,0.291153,-0.509392,-3.78876209259033,-4.30128002166748,8.12712001800537,1.81984007358551,0.66560363769531,1.14184617996216
429,2726761040,0.805489,-0.083390,0.291207,-0.509351,-3.78776264190674,-4.25088405609131,8.13978290557861,0.49389606714249,0.74629646539688,1.19308435916901
430,2726777707,0.805478,-0.083545,0.291323,-0.509278,-3.80609846115112,-4.33704519271851,8.12772846221924,-0.44435474276543,0.69453322887421,1.09692156314850
431,2726794374,0.805473,-0.083504,0.291284,-0.509314,-3.82970094680786,-4.32807302474976,8.13658428192139,1.39879286289215,0.56389564275742,0.82437682151794
432,2726811041,0.805441,-0.083584,0.291323,-0.509328,-3.82731485366821,-4.26668977737427,8.16442775726318,0.41500893235207,0.63334447145462,0.62138330936432
433,2726827708,0.805399,-0.083724,0.291403,-0.509326,-3.81152701377869,-4.29527473449707,8.12780857086182,-0.09927482157946,0.66269648075104,0.57853317260742
434,2726844375,0.805390,-0.083758,0.291448,-0.509309,-3.78978967666626,-4.30723714828491,8.12640190124512,0.60629737377167,0.76759344339371,0.96654009819031
435,2726861042,0.805387,-0.083821,0.291515,-0.509266,-3.78352499008179,-4.31781244277954,8.14668464660645,0.28439700603485,0.72989147901535,1.15200150012970
436,2726877709,0.805402,-0.083736,0.291490,-0.509271,-3.78593945503235,-4.31065511703491,8.14029979705811,1.55025339126587,0.73994439840317,1.15494704246521
437,2726894376,0.805409,-0.083716,0.291476,-0.509272,-3.80733275413513,-4.27513170242310,8.14172554016113,1.14981174468994,0.60624623298645,0.99795407056808
438,2726911043,0.805387,-0.083814,0.291536,-0.509254,-3.80068278312683,-4.28666830062866,8.12940502166748,0.17691332101822,0.64256507158279,0.82761675119400
439,2726927710,0.805392,-0.083856,0.291552,-0.509231,-3.81206464767456,-4.32589912414551,8.15478897094727,0.65325832366943,0.55155038833618,1.01197707653046
440,2726944377,0.805395,-0.083868,0.291552,-0.509225,-3.80413842201233,-4.31230306625366,8.14400291442871,0.90458291769028,0.56771183013916,0.98011463880539
441,2726961044,0.805402,-0.083891,0.291567,-0.509202,-3.82112669944763,-4.32538509368896,8.14169788360596,0.76843857765198,0.61120223999023,1.05702972412109
442,2726977711,0.805405,-0.083786,0.291507,-0.509247,-3.80118465423584,-4.29558658599854,8.14336585998535,1.85126686096191,0.65415477752686,0.92712217569351
443,2726994378,0.805385,-0.083872,0.291555,-0.509237,-3.80776619911194,-4.26935482025146,8.16290569305420,0.30701300501823,0.63307547569275,0.78591924905777
444,2727011045,0.805367,-0.083955,0.291578,-0.509239,-3.81556558609009,-4.33712100982666,8.14858913421631,0.42293611168861,0.48009085655212,0.76448154449463
445,2727027712,0.805365,-0.083896,0.291548,-0.509270,-3.79657936096191,-4.30675268173218,8.11664581298828,1.47303104400635,0.68376296758652,0.87558925151825
446,2727044379,0.805371,-0.083946,0.291579,-0.509234,-3.80523562431335,-4.29875516891479,8.11875438690186,0.52744871377945,0.59090417623520,1.09019815921783
447,2727061046,0.805390,-0.083883,0.291552,-0.509230,-3.80328917503357,-4.31156921386719,8.12587642669678,1.43201220035553,0.65359115600586,1.15845584869385
448,2727077713,0.805405,-0.083855,0.291545,-0.509215,-3.81740546226501,-4.29687356948853,8.13321495056152,1.14431786537170,0.64723932743073,1.13475155830383
449,2727094380,0.805412,-0.083837,0.291528,-0.509216,-3.81755304336548,-4.28829526901245,8.11771297454834,1.14471471309662,0.57417905330658,1.00830161571503
450,2727111047,0.805419,-0.083818,0.291517,-0.509214,-3.80795478820801,-4.32121181488037,8.14633846282959,1.12255990505219,0.61551803350449,1.02290093898773
451,2727127714,0.805414,-0.083757,0.291477,-0.509256,-3.80994987487793,-4.28131914138794,8.15994644165039,1.52388513088226,0.63048857450485,0.84308683872223
452,2727144381,0.805416,-0.083803,0.291510,-0.509226,-3.80292963981628,-4.26422214508057,8.14925193786621,0.55704420804977,0.62959212064743,1.04976856708527
453,2727161048,0.805414,-0.083798,0.291532,-0.509218,-3.79969787597656,-4.30136585235596,8.13636970520020,0.90040814876556,0.74812775850296,1.03966426849365
454,2727177715,0.805441,-0.083711,0.291510,-0.509201,-3.79708790779114,-4.31239795684814,8.10086631774902,1.51343536376953,0.72721499204636,1.33814191818237
455,2727194382,0.805463,-0.083668,0.291521,-0.509167,-3.80006146430969,-4.29502916336060,8.12419795989990,1.13963043689728,0.78997880220413,1.27886116504669
456,2727211049,0.805468,-0.083587,0.291510,-0.509179,-3.81965947151184,-4.29693460464478,8.15130329132080,1.50185823440552,0.84662133455276,1.05017828941345
457,2727227716,0.805455,-0.083605,0.291542,-0.509178,-3.83124804496765,-4.30444860458374,8.16731739044189,0.76220190525055,0.76573646068573,0.89619469642639
458,2727244383,0.805431,-0.083587,0.291546,-0.509218,-3.81708168983459,-4.30767154693604,8.15779972076416,1.11887168884277,0.76549321413040,0.71863472461700
459,2727261050,0.805405,-0.083592,0.291562,-0.509248,-3.80920243263245,-4.31690359115601,8.12621974945068,0.93994128704071,0.75788623094559,0.70826166868210
460,2727277717,0.805391,-0.083567,0.291562,-0.509275,-3.80145525932312,-4.31300401687622,8.12593269348145,1.16628062725067,0.75414669513702,0.81532263755798
461,2727294384,0.805380,-0.083596,0.291583,-0.509275,-3.79903554916382,-4.29930543899536,8.10667896270752,0.71412694454193,0.63256329298019,0.91870838403702
462,2727311051,0.805374,-0.083627,0.291607,-0.509266,-3.81466484069824,-4.29813003540039,8.12940311431885,0.71484398841858,0.65649825334549,0.92466324567795
463,2727327718,0.805369,-0.083623,0.291617,-0.509269,-3.82050681114197,-4.30726814270020,8.14671611785889,0.96195542812347,0.70126938819885,0.94967412948608
464,2727344385,0.805371,-0.083648,0.291635,-0.509250,-3.81335449218750,-4.30048704147339,8.13704204559326,0.73971390724182,0.61214983463287,1.03945922851562
465,2727361052,0.805384,-0.083653,0.291646,-0.509224,-3.79889869689941,-4.30542516708374,8.13770866394043,0.87576866149902,0.63536787033081,1.12891185283661
466,2727377719,0.805401,-0.083627,0.291619,-0.509216,-3.82580685615540,-4.31099939346313,8.14045429229736,1.22025954723358,0.53280180692673,1.09305393695831
467,2727394386,0.805421,-0.083672,0.291619,-0.509177,-3.81466197967529,-4.30118894577026,8.13355922698975,0.67168670892715,0.40462306141853,1.14107775688171
468,2727411053,0.805423,-0.083714,0.291619,-0.509167,-3.80795264244080,-4.31766700744629,8.12263488769531,0.72424393892288,0.45883232355118,0.94435936212540
469,2727427720,0.805431,-0.083716,0.291581,-0.509176,-3.81285166740417,-4.32026720046997,8.12350559234619,1.11739873886108,0.39095860719681,0.92859476804733
470,2727444387,0.805436,-0.083739,0.291554,-0.509180,-3.80896162986755,-4.32332181930542,8.11177158355713,0.95642310380936,0.37327310442924,0.90688806772232
471,2727461054,0.805445,-0.083671,0.291483,-0.509218,-3.81024646759033,-4.31240367889404,8.12653827667236,1.69760322570801,0.48425289988518,0.85079622268677
472,2727477721,0.805449,-0.083716,0.291477,-0.509207,-3.82003378868103,-4.30694007873535,8.15997123718262,0.73981636762619,0.42490831017494,0.92135936021805
473,2727494388,0.805460,-0.083665,0.291423,-0.509229,-3.81207752227783,-4.30987310409546,8.14189720153809,1.52490961551666,0.52273589372635,0.89783394336700
474,2727511055,0.805449,-0.083620,0.291377,-0.509280,-3.79989385604858,-4.27870559692383,8.14090061187744,1.45890581607819,0.54044723510742,0.76790076494217
475,2727527722,0.805448,-0.083689,0.291403,-0.509255,-3.79696464538574,-4.32634449005127,8.11807441711426,0.45563071966171,0.51498818397522,0.97376286983490
476,2727544389,0.805464,-0.083525,0.291290,-0.509321,-3.81325078010559,-4.28974151611328,8.13770675659180,2.45449662208557,0.60239148139954,0.86087483167648
477,2727561056,0.805450,-0.083550,0.291298,-0.509335,-3.80593609809875,-4.27095985412598,8.16323471069336,0.81863951683044,0.59922832250595,0.80820238590240
478,2727577723,0.805443,-0.083550,0.291299,-0.509345,-3.82626628875732,-4.31517457962036,8.15086746215820,0.98857969045639,0.64275711774826,0.90084338188171
479,2727594390,0.805459,-0.083483,0.291239,-0.509365,-3.79871392250061,-4.29093217849731,8.11134147644043,1.61889553070068,0.51094132661819,0.98209977149963
480,2727611057,0.805470,-0.083494,0.291228,-0.509352,-3.81299948692322,-4.29560518264771,8.14393520355225,0.94697201251984,0.50479423999786,1.02439904212952
481,2727627724,0.805475,-0.083455,0.291194,-0.509370,-3.78929543495178,-4.29505491256714,8.13762664794922,1.37341046333313,0.58875268697739,0.90351992845535
482,2727644391,0.805495,-0.083426,0.291153,-0.509368,-3.81594276428223,-4.29328823089600,8.13181495666504,1.29267930984497,0.45771813392639,1.06667280197144
483,2727661058,0.805501,-0.083400,0.291110,-0.509387,-3.80807924270630,-4.27803182601929,8.16485023498535,1.32335042953491,0.48047500848770,0.89219909906387
484,2727677725,0.805500,-0.083430,0.291129,-0.509373,-3.79798293113708,-4.27592372894287,8.12227058410645,0.70626378059387,0.60715538263321,1.00139892101288
485,2727694392,0.805509,-0.083455,0.291153,-0.509340,-3.80760765075684,-4.32183551788330,8.10446453094482,0.71542036533356,0.65082508325577,1.10367047786713
486,2727711059,0.805533,-0.083311,0.291082,-0.509367,-3.79330182075500,-4.30389690399170,8.14247131347656,2.09680294990540,0.70166629552841,1.13409841060638
487,2727727726,0.805535,-0.083334,0.291125,-0.509335,-3.80448627471924,-4.29081869125366,8.14511299133301,0.63754492998123,0.75528645515442,1.12065172195435
488,2727744393,0.805554,-0.083216,0.291091,-0.509343,-3.80150127410889,-4.28716182708740,8.14969062805176,1.78285527229309,0.81712836027145,1.19910347461700
489,2727761060,0.805556,-0.083192,0.291120,-0.509328,-3.79784488677979,-4.24309396743774,8.13552188873291,0.97655463218689,0.84622442722321,1.12798976898193
490,2727777727,0.805538,-0.083303,0.291214,-0.509283,-3.80698394775391,-4.31616878509521,8.14279651641846,-0.06031790748239,0.76626157760620,0.97877007722855
491,2727794394,0.805523,-0.083290,0.291188,-0.509325,-3.84113359451294,-4.33258247375488,8.15819931030273,1.22265434265137,0.57831561565399,0.67114883661270
492,2727811061,0.805500,-0.083254,0.291134,-0.509399,-3.83499836921692,-4.27920579910278,8.15365219116211,1.50914514064789,0.54728579521179,0.50120854377747
493,2727827728,0.805473,-0.083308,0.291164,-0.509415,-3.79749178886414,-4.28332185745239,8.14425945281982,0.60102111101151,0.66418212652206,0.67598950862885
494,2727844395,0.805464,-0.083269,0.291144,-0.509447,-3.78893852233887,-4.28725528717041,8.12452983856201,1.32514333724976,0.68969231843948,0.81200575828552
495,2727861062,0.805478,-0.083197,0.291107,-0.509458,-3.79224085807800,-4.25399255752563,8.14930629730225,1.55456888675690,0.66021203994751,1.03929269313812
496,2727877729,0.805493,-0.083244,0.291161,-0.509395,-3.79235839843750,-4.28318166732788,8.13634777069092,0.40509685873985,0.68380141258240,1.31260597705841
497,2727894396,0.805524,-0.083193,0.291140,-0.509366,-3.79924273490906,-4.30428028106689,8.16003608703613,1.30771386623383,0.61796391010284,1.29454898834229
498,2727911063,0.805545,-0.083117,0.291079,-0.509380,-3.81086683273315,-4.29355382919312,8.15937042236328,1.64827299118042,0.50183594226837,1.09637069702148
499,2727927730,0.805548,-0.083146,0.291071,-0.509375,-3.82359099388123,-4.27336359024048,8.14566135406494,0.83865588903427,0.46850115060806,0.92863327264786
500,2727944397,0.805544,-0.083209,0.291090,-0.509361,-3.81525325775146,-4.31728124618530,8.13804149627686,0.53191810846329,0.51016014814377,0.91462308168411
501,2727961064,0.805542,-0.083212,0.291068,-0.509376,-3.79571294784546,-4.29079675674438,8.15356254577637,1.03940820693970,0.47075504064560,0.91067886352539
502,2727977731,0.805531,-0.083261,0.291063,-0.509389,-3.78848934173584,-4.26910734176636,8.13896656036377,0.75066339969635,0.45140466094017,0.74812781810760
503,2727994398,0.805526,-0.083303,0.291060,-0.509392,-3.80551099777222,-4.29197931289673,8.14705657958984,0.75354474782944,0.46615752577782,0.84829896688461
504,2728011065,0.805526,-0.083300,0.291038,-0.509405,-3.80861234664917,-4.30003690719604,8.15186882019043,1.09913694858551,0.51151770353317,0.88730710744858
505,2728027732,0.805530,-0.083256,0.291035,-0.509407,-3.80591154098511,-4.26871538162231,8.13504505157471,1.24243986606598,0.75291728973389,1.05078005790710
506,2728044399,0.805529,-0.083347,0.291118,-0.509346,-3.81120228767395,-4.29111862182617,8.13321304321289,0.07234947383404,0.74109709262848,1.14248645305634
507,2728061066,0.805530,-0.083321,0.291132,-0.509341,-3.80580782890320,-4.33326911926270,8.14684867858887,1.05063939094543,0.77744156122208,1.06654477119446
508,2728077733,0.805525,-0.083250,0.291086,-0.509387,-3.83822035789490,-4.27186155319214,8.11667728424072,1.63468551635742,0.65676718950272,0.79292422533035
509,2728094400,0.805502,-0.083340,0.291149,-0.509372,-3.79050755500793,-4.28867959976196,8.13492488861084,0.22439925372601,0.69968134164810,0.81040501594543
510,2728111067,0.805484,-0.083377,0.291191,-0.509370,-3.80373501777649,-4.32511138916016,8.13213062286377,0.59667986631393,0.74208307266235,0.89408165216446
511,2728127734,0.805478,-0.083275,0.291156,-0.509418,-3.81349658966064,-4.27851104736328,8.15528678894043,1.75674295425415,0.81986892223358,0.86068284511566
512,2728144401,0.805450,-0.083338,0.291230,-0.509408,-3.81931424140930,-4.25888586044312,8.16719532012939,0.32728549838066,0.84861922264099,0.85413873195648
513,2728161068,0.805440,-0.083350,0.291270,-0.509399,-3.79051876068115,-4.32494068145752,8.11569213867188,0.76213783025742,0.82833385467529,0.95769083499908
514,2728177735,0.805441,-0.083283,0.291280,-0.509402,-3.79556441307068,-4.28403568267822,8.11111736297607,1.33838534355164,0.92853069305420,1.05587708950043
515,2728194402,0.805423,-0.083309,0.291364,-0.509378,-3.79578781127930,-4.26078844070435,8.13494491577148,0.48353576660156,1.02710139751434,1.00988960266113
516,2728211069,0.805412,-0.083302,0.291435,-0.509357,-3.80170392990112,-4.32235050201416,8.14479637145996,0.75112450122833,1.07629060745239,1.03689813613892
517,2728227736,0.805401,-0.083255,0.291447,-0.509375,-3.81586885452271,-4.29769992828369,8.13926124572754,1.23234879970551,0.89132839441299,0.92005306482315
518,2728244403,0.805387,-0.083229,0.291461,-0.509393,-3.82912158966064,-4.30166482925415,8.15707302093506,1.11565721035004,0.84671109914780,0.83795154094696
519,2728261070,0.805362,-0.083248,0.291497,-0.509410,-3.81719446182251,-4.27338457107544,8.15093803405762,0.77660912275314,0.82122647762299,0.74130207300186
520,2728277737,0.805321,-0.083311,0.291570,-0.509422,-3.81079506874084,-4.30154180526733,8.14556217193604,0.36402690410614,0.87765127420425,0.70010387897491
521,2728294404,0.805314,-0.083255,0.291563,-0.509447,-3.80576729774475,-4.30442047119141,8.10451889038086,1.35021817684174,0.80183756351471,0.91826003789902
522,2728311071,0.805306,-0.083260,0.291592,-0.509442,-3.80817317962646,-4.26115369796753,8.15903377532959,0.83547979593277,0.77263909578323,0.96728277206421
523,2728327738,0.805314,-0.083249,0.291598,-0.509428,-3.79397034645081,-4.27475738525391,8.12566566467285,1.00904428958893,0.68084311485291,1.07498419284821
524,2728344405,0.805325,-0.083271,0.291616,-0.509397,-3.79987692832947,-4.28806591033936,8.14794635772705,0.72584468126297,0.59597551822662,1.16292536258698
525,2728361072,0.805347,-0.083320,0.291642,-0.509338,-3.81252074241638,-4.32530879974365,8.14246177673340,0.54402011632919,0.54257297515869,1.21850490570068
526,2728377739,0.805378,-0.083231,0.291600,-0.509328,-3.80291056632996,-4.31515264511108,8.13774204254150,1.60693430900574,0.63394635915756,1.28413760662079
527,2728394406,0.805379,-0.083214,0.291634,-0.509311,-3.82646632194519,-4.27814865112305,8.13870620727539,0.91268938779831,0.84093540906906,1.13514852523804
528,2728411073,0.805386,-0.083219,0.291660,-0.509283,-3.81769275665283,-4.30232095718384,8.12239646911621,0.81723093986511,0.72465378046036,1.12693965435028
529,2728427740,0.805367,-0.083241,0.291687,-0.509294,-3.82067179679871,-4.30754470825195,8.14850044250488,0.77395814657211,0.73797231912613,0.81705158948898
530,2728444407,0.805367,-0.083193,0.291666,-0.509314,-3.81850457191467,-4.29426956176758,8.12872695922852,1.35808134078979,0.68938499689102,0.92403560876846
531,2728461074,0.805348,-0.083234,0.291688,-0.509325,-3.81157898902893,-4.29032945632935,8.14921379089355,0.70047527551651,0.65980237722397,0.74314612150192
532,2728477741,0.805332,-0.083302,0.291740,-0.509309,-3.81566667556763,-4.30391931533813,8.14155006408691,0.40690255165100,0.71976172924042,0.83932173252106
533,2728494408,0.805323,-0.083272,0.291733,-0.509332,-3.81146121025085,-4.29253101348877,8.12279319763184,1.22565102577209,0.74227529764175,0.81107097864151
534,2728511075,0.805313,-0.083304,0.291769,-0.509322,-3.82858681678772,-4.29426383972168,8.15300273895264,0.65969991683960,0.72795784473419,0.93045181035995
535,2728527742,0.805306,-0.083365,0.291811,-0.509299,-3.82620596885681,-4.31188583374023,8.13532638549805,0.45972877740860,0.65310466289520,0.93508768081665
536,2728544409,0.805305,-0.083338,0.291820,-0.509300,-3.80509114265442,-4.30382966995239,8.14014434814453,1.07991468906403,0.75462067127228,1.04654133319855
537,2728561076,0.805301,-0.083329,0.291814,-0.509311,-3.81248450279236,-4.27503442764282,8.14813137054443,1.07470238208771,0.64090013504028,0.88751202821732
538,2728577743,0.805303,-0.083371,0.291834,-0.509290,-3.82913422584534,-4.29356622695923,8.14346504211426,0.64659899473190,0.57893025875092,0.99732649326324
539,2728594410,0.805306,-0.083390,0.291852,-0.509271,-3.80396270751953,-4.30514240264893,8.12148571014404,0.77586632966995,0.63655883073807,1.04278910160065
540,2728611077,0.805292,-0.083409,0.291874,-0.509278,-3.79184174537659,-4.30233097076416,8.15767383575439,0.78675174713135,0.69102424383163,0.88459229469299
541,2728627744,0.805296,-0.083404,0.291889,-0.509264,-3.81464886665344,-4.32501029968262,8.14733409881592,0.93106651306152,0.71069478988647,1.06571245193481
542,2728644411,0.805294,-0.083368,0.291869,-0.509284,-3.83046841621399,-4.29577589035034,8.17410564422607,1.28974664211273,0.65374487638474,0.89788514375687
543,2728661078,0.805272,-0.083359,0.291874,-0.509318,-3.81447362899780,-4.28158712387085,8.13752365112305,1.02322101593018,0.69832384586334,0.81214666366577
544,2728677745,0.805275,-0.083412,0.291920,-0.509279,-3.80796813964844,-4.31830644607544,8.13165760040283,0.46346819400787,0.67328739166260,1.08102881908417
545,2728694412,0.805281,-0.083369,0.291942,-0.509263,-3.79619717597961,-4.29207563400269,8.11369895935059,1.11047065258026,0.87653696537018,1.16779184341431
546,2728711079,0.805281,-0.083380,0.291986,-0.509235,-3.81019902229309,-4.29824495315552,8.13294887542725,0.70652002096176,0.80532097816467,1.12366127967834
547,2728727746,0.805269,-0.083439,0.292039,-0.509215,-3.82520723342896,-4.31640386581421,8.13938999176025,0.42072057723999,0.72271996736526,0.94743293523788
548,2728744413,0.805250,-0.083436,0.292042,-0.509243,-3.85770869255066,-4.33694648742676,8.13099670410156,1.03167319297791,0.70258837938309,0.74555373191833
549,2728761080,0.805232,-0.083452,0.292036,-0.509272,-3.84861302375793,-4.29175710678101,8.12487220764160,0.95675605535507,0.58044141530991,0.70289576053619
550,2728777747,0.805222,-0.083517,0.292079,-0.509254,-3.79635071754456,-4.31422853469849,8.12551593780518,0.45008558034897,0.66003280878067,0.88287621736526
551,2728794414,0.805234,-0.083447,0.292036,-0.509270,-3.79518485069275,-4.30585813522339,8.12475490570068,1.55983257293701,0.62283039093018,1.02252948284149
552,2728811081,0.805238,-0.083449,0.292035,-0.509265,-3.83139061927795,-4.28026533126831,8.14051151275635,0.96084123849869,0.58859914541245,1.00639343261719
553,2728827748,0.805237,-0.083485,0.292048,-0.509253,-3.79941225051880,-4.32058334350586,8.15237331390381,0.71294867992401,0.56972253322601,0.94458985328674
554,2728844415,0.805263,-0.083489,0.292039,-0.509216,-3.80701375007629,-4.31735801696777,8.15284347534180,0.93250077962875,0.48435536026955,1.24109530448914
555,2728861082,0.805284,-0.083454,0.291996,-0.509213,-3.83617615699768,-4.29032516479492,8.14074230194092,1.34381520748138,0.48003962635994,1.07290959358215
556,2728877749,0.805297,-0.083509,0.292013,-0.509175,-3.82867503166199,-4.29863643646240,8.14966869354248,0.54094660282135,0.46958959102631,1.12737488746643
557,2728894416,0.805298,-0.083534,0.292019,-0.509165,-3.82172846794128,-4.31949186325073,8.12123107910156,0.80223447084427,0.55859375000000,0.96703940629959
558,2728911083,0.805310,-0.083531,0.291990,-0.509164,-3.80599069595337,-4.30783319473267,8.10765171051025,1.09753620624542,0.44183829426765,1.00347352027893
559,2728927750,0.805313,-0.083560,0.291991,-0.509152,-3.81755542755127,-4.30068397521973,8.11716747283936,0.77585351467133,0.49886494874954,1.01581895351410
560,2728944417,0.805312,-0.083678,0.292031,-0.509113,-3.83040928840637,-4.29277038574219,8.14999008178711,0.11682593077421,0.42097675800323,0.94143968820572
561,2728961084,0.805304,-0.083787,0.292068,-0.509085,-3.82966852188110,-4.31278514862061,8.14599990844727,0.19459891319275,0.44575703144073,0.88340127468109
562,2728977751,0.805303,-0.083820,0.292086,-0.509072,-3.80838441848755,-4.31229400634766,8.13671684265137,0.68884718418121,0.58505171537399,1.00275635719299
563,2728994418,0.805309,-0.083895,0.292135,-0.509021,-3.79805541038513,-4.32993364334106,8.11363601684570,0.30438771843910,0.59434908628464,1.12550520896912
564,2729011085,0.805313,-0.083907,0.292166,-0.508996,-3.83375024795532,-4.32625293731689,8.12403583526611,0.75716906785965,0.73149228096008,1.10133969783783
565,2729027752,0.805303,-0.083953,0.292174,-0.508999,-3.83914518356323,-4.27354431152344,8.14314746856689,0.70936286449432,0.54458355903625,0.79706072807312
566,2729044419,0.805277,-0.084111,0.292252,-0.508970,-3.82153129577637,-4.31595706939697,8.13300228118896,-0.25891876220703,0.51964968442917,0.79268097877502
567,2729061086,0.805273,-0.084112,0.292226,-0.508992,-3.82366085052490,-4.35925102233887,8.13317966461182,1.07334494590759,0.45163515210152,0.88527089357376
568,2729077753,0.805270,-0.084044,0.292172,-0.509038,-3.82188391685486,-4.27433919906616,8.15390205383301,1.63692677021027,0.59825497865677,0.79145157337189
569,2729094420,0.805242,-0.084241,0.292296,-0.508979,-3.81705737113953,-4.30413341522217,8.12763690948486,-0.67814743518829,0.64079773426056,0.86612552404404
570,2729111087,0.805244,-0.084269,0.292311,-0.508962,-3.80003976821899,-4.33216762542725,8.09332275390625,0.73468106985092,0.58492356538773,1.02888131141663
571,2729127754,0.805262,-0.084257,0.292303,-0.508940,-3.82236957550049,-4.30093574523926,8.10434722900391,1.04116272926331,0.57581835985184,1.15616369247437
572,2729144421,0.805265,-0.084351,0.292377,-0.508878,-3.81067252159119,-4.30598258972168,8.13325119018555,0.07416797429323,0.65827840566635,1.17628252506256
573,2729161088,0.805266,-0.084415,0.292408,-0.508847,-3.82611346244812,-4.30912208557129,8.12535667419434,0.46529954671860,0.55495679378510,1.01210510730743
574,2729177755,0.805258,-0.084509,0.292457,-0.508816,-3.81968140602112,-4.30188465118408,8.13829994201660,0.23989492654800,0.58237504959106,0.90551775693893
575,2729194422,0.805245,-0.084658,0.292543,-0.508762,-3.82317352294922,-4.32204294204712,8.13107109069824,-0.25279733538628,0.58839404582977,0.94184935092926
576,2729211089,0.805232,-0.084755,0.292595,-0.508737,-3.81842207908630,-4.34776878356934,8.12188148498535,0.18979650735855,0.56449753046036,0.91304796934128
577,2729227756,0.805225,-0.084824,0.292625,-0.508719,-3.81016683578491,-4.33800888061523,8.11691474914551,0.44699922204018,0.54619723558426,0.92941439151764
578,2729244423,0.805231,-0.084811,0.292593,-0.508730,-3.81837010383606,-4.31434106826782,8.12160205841064,1.17235100269318,0.46188017725945,0.96693706512451
579,2729261090,0.805233,-0.084934,0.292643,-0.508679,-3.79101181030273,-4.31261968612671,8.14148235321045,0.03211192041636,0.44530877470970,1.01761174201965
580,2729277757,0.805240,-0.084981,0.292645,-0.508657,-3.79949355125427,-4.34490489959717,8.10413074493408,0.67195558547974,0.44532158970833,1.00333261489868
581,2729294424,0.805248,-0.085022,0.292676,-0.508620,-3.81263875961304,-4.32217741012573,8.13172817230225,0.57771366834641,0.61632478237152,1.12270069122314
582,2729311091,0.805257,-0.085121,0.292736,-0.508555,-3.81469893455505,-4.35900735855103,8.11820602416992,0.10167600959539,0.54815655946732,1.19111216068268
583,2729327758,0.805278,-0.085077,0.292693,-0.508554,-3.82205891609192,-4.32018423080444,8.10760211944580,1.38022327423096,0.50207924842834,1.09565353393555
584,2729344425,0.805288,-0.085236,0.292773,-0.508466,-3.81940841674805,-4.31185197830200,8.13476848602295,-0.34230095148087,0.44384890794754,1.19468510150909
585,2729361092,0.805289,-0.085310,0.292827,-0.508420,-3.79343891143799,-4.35850238800049,8.10305309295654,0.30059704184532,0.64694476127625,1.08225822448730
586,2729377759,0.805292,-0.085251,0.292794,-0.508445,-3.81727242469788,-4.33589553833008,8.10285758972168,1.45256626605988,0.63288331031799,0.96525919437408
587,2729394426,0.805281,-0.085283,0.292845,-0.508428,-3.81147575378418,-4.32487392425537,8.12491416931152,0.58630675077438,0.79990386962891,0.98705583810806
588,2729411093,0.805270,-0.085311,0.292873,-0.508424,-3.81340575218201,-4.34637212753296,8.10736751556396,0.71769982576370,0.70498323440552,0.89944767951965
589,2729427760,0.805270,-0.085265,0.292844,-0.508448,-3.81966280937195,-4.34524536132812,8.11408233642578,1.38142728805542,0.63408726453781,0.90389132499695
590,2729444427,0.805260,-0.085274,0.292859,-0.508453,-3.80444955825806,-4.31748199462891,8.12530326843262,0.88787072896957,0.70926052331924,0.86927580833435
591,2729461094,0.805252,-0.085351,0.292908,-0.508426,-3.81446766853333,-4.34007644653320,8.10381793975830,0.35175842046738,0.64908337593079,0.90204727649689
592,2729477761,0.805245,-0.085346,0.292916,-0.508432,-3.80689811706543,-4.32861948013306,8.09842491149902,0.98262482881546,0.70151269435883,0.92322897911072
593,2729494428,0.805243,-0.085324,0.292920,-0.508437,-3.81358218193054,-4.34537887573242,8.08990383148193,1.10372161865234,0.73608982563019,0.95653820037842
594,2729511095,0.805234,-0.085280,0.292906,-0.508467,-3.81946992874146,-4.33933973312378,8.12102794647217,1.32948470115662,0.73616653680801,0.84527671337128
595,2729527762,0.805232,-0.085288,0.292918,-0.508462,-3.82099986076355,-4.32994174957275,8.11522674560547,0.87169629335403,0.65050500631332,0.99203741550446
596,2729544429,0.805237,-0.085296,0.292919,-0.508453,-3.82308030128479,-4.33136510848999,8.14568996429443,0.92253744602203,0.58690863847733,1.00279486179352
597,2729561096,0.805239,-0.085299,0.292912,-0.508452,-3.81591486930847,-4.34194326400757,8.10129070281982,0.98434084653854,0.56905657052994,0.96533614397049
598,2729577763,0.805237,-0.085260,0.292882,-0.508479,-3.81473922729492,-4.36157321929932,8.10529804229736,1.36220514774323,0.61480087041855,0.85727632045746
599,2729594430,0.805258,-0.085189,0.292820,-0.508494,-3.82424855232239,-4.31481456756592,8.12069416046143,1.64963054656982,0.51610225439072,1.01834166049957
600,2729611097,0.805252,-0.085228,0.292860,-0.508473,-3.79800367355347,-4.31165218353271,8.11070537567139,0.58436012268066,0.71561235189438,0.98385417461395
601,2729627764,0.805255,-0.085292,0.292902,-0.508434,-3.80361914634705,-4.36213493347168,8.09714698791504,0.39679831266403,0.59008455276489,1.09847104549408
602,2729644431,0.805283,-0.085208,0.292877,-0.508417,-3.79616975784302,-4.33031034469604,8.10751152038574,1.50641739368439,0.70841526985168,1.31373310089111
603,2729661098,0.805289,-0.085238,0.292895,-0.508393,-3.84263300895691,-4.32008743286133,8.12673568725586,0.70338231325150,0.58680611848831,1.08009386062622
604,2729677765,0.805277,-0.085310,0.292930,-0.508380,-3.83727383613586,-4.35585069656372,8.14584636688232,0.43496125936508,0.58941859006882,0.84354782104492
605,2729694432,0.805262,-0.085292,0.292888,-0.508432,-3.83298802375793,-4.34562873840332,8.12903594970703,1.31533372402191,0.50424355268478,0.64794367551804
606,2729711099,0.805242,-0.085373,0.292902,-0.508440,-3.82438087463379,-4.33189344406128,8.10564517974854,0.50387215614319,0.47987309098244,0.65944373607635
607,2729727766,0.805246,-0.085339,0.292881,-0.508452,-3.80019688606262,-4.34473562240601,8.10530090332031,1.27959120273590,0.64142513275146,0.93132257461548
608,2729744433,0.805252,-0.085275,0.292855,-0.508469,-3.80027532577515,-4.31909227371216,8.11262416839600,1.45035111904144,0.68652915954590,1.02231168746948
609,2729761100,0.805274,-0.085275,0.292859,-0.508432,-3.82841062545776,-4.31573867797852,8.11905765533447,0.89490115642548,0.56623911857605,1.26464617252350
610,2729777767,0.805277,-0.085309,0.292877,-0.508410,-3.80838251113892,-4.33936786651611,8.12447547912598,0.67360764741898,0.56922304630280,1.06952881813049
611,2729794434,0.805283,-0.085309,0.292874,-0.508403,-3.83153820037842,-4.33097982406616,8.11514568328857,0.98494285345078,0.58708792924881,1.01843130588531
612,2729811101,0.805288,-0.085342,0.292866,-0.508395,-3.83521437644958,-4.32798719406128,8.10708045959473,0.81413161754608,0.45842251181602,0.93129694461823
613,2729827768,0.805280,-0.085368,0.292866,-0.508402,-3.81882953643799,-4.33521032333374,8.09273529052734,0.85170555114746,0.55769735574722,0.82972985506058
614,2729844435,0.805272,-0.085447,0.292910,-0.508376,-3.80872321128845,-4.34846878051758,8.11172771453857,0.35086193680763,0.60660481452942,0.90746426582336
615,2729861102,0.805269,-0.085474,0.292903,-0.508381,-3.79762387275696,-4.33111429214478,8.10531902313232,0.86998021602631,0.50918686389923,0.84639090299606
616,2729877769,0.805266,-0.085447,0.292864,-0.508413,-3.81410408020020,-4.31243419647217,8.12620925903320,1.32230043411255,0.51400208473206,0.82943534851074
617,2729894436,0.805252,-0.085493,0.292865,-0.508426,-3.83901214599609,-4.33203887939453,8.13073253631592,0.73784422874451,0.50658714771271,0.74210864305496
618,2729911103,0.805243,-0.085494,0.292875,-0.508434,-3.80696654319763,-4.33585214614868,8.09728050231934,0.95068573951721,0.69361102581024,0.89292919635773
619,2729927770,0.805241,-0.085533,0.292912,-0.508410,-3.79766440391541,-4.33585882186890,8.10247421264648,0.55578917264938,0.65086352825165,1.09582018852234
620,2729944437,0.805263,-0.085536,0.292915,-0.508373,-3.82136702537537,-4.34799098968506,8.12343025207520,0.90291815996170,0.57741910219193,1.20361125469208
621,2729961104,0.805264,-0.085505,0.292913,-0.508377,-3.82336807250977,-4.32786321640015,8.14056205749512,1.16129922866821,0.70635354518890,1.02652502059937
622,2729977771,0.805270,-0.085513,0.292909,-0.508369,-3.82484102249146,-4.33688926696777,8.11709499359131,0.95282453298569,0.57839238643646,0.97499233484268
623,2729994438,0.805260,-0.085530,0.292901,-0.508386,-3.82410693168640,-4.34247827529907,8.11547470092773,0.95046812295914,0.55549466609955,0.77245980501175
624,2730011105,0.805247,-0.085610,0.292936,-0.508374,-3.82340979576111,-4.34219074249268,8.11719608306885,0.37432318925858,0.54413533210754,0.85997837781906
625,2730027772,0.805230,-0.085668,0.292978,-0.508367,-3.81653904914856,-4.34724521636963,8.10472869873047,0.47676125168800,0.67629694938660,0.86348742246628
626,2730044439,0.805235,-0.085573,0.292946,-0.508393,-3.80480813980103,-4.35059452056885,8.11153125762939,1.68205654621124,0.79128521680832,0.99235767126083
627,2730061106,0.805255,-0.085505,0.292920,-0.508387,-3.80068278312683,-4.33880090713501,8.09399986267090,1.43042433261871,0.64841741323471,1.22074604034424
628,2730077773,0.805275,-0.085411,0.292870,-0.508401,-3.83490777015686,-4.30762720108032,8.12080764770508,1.73257756233215,0.66147994995117,1.07133448123932
629,2730094440,0.805250,-0.085576,0.292991,-0.508343,-3.81439089775085,-4.32056427001953,8.13335800170898,-0.49756509065628,0.72215640544891,0.96117413043976
630,2730111107,0.805226,-0.085616,0.293016,-0.508360,-3.82389807701111,-4.37579917907715,8.09535312652588,0.67566937208176,0.65966147184372,0.75584995746613
631,2730127774,0.805222,-0.085556,0.292976,-0.508399,-3.81609487533569,-4.35912275314331,8.11795997619629,1.53728044033051,0.65323269367218,0.80346387624741
632,2730144441,0.805219,-0.085514,0.292964,-0.508418,-3.81807446479797,-4.34261274337769,8.12257862091064,1.28705751895905,0.71748220920563,0.93170684576035
633,2730161108,0.805218,-0.085498,0.292934,-0.508440,-3.82823181152344,-4.32429218292236,8.12626647949219,1.22201383113861,0.53675895929337,0.83802831172943
634,2730177775,0.805216,-0.085557,0.292963,-0.508417,-3.80351305007935,-4.32756900787354,8.11480236053467,0.50319349765778,0.55678808689117,0.98772168159485
635,2730194442,0.805219,-0.085543,0.292950,-0.508422,-3.80549287796021,-4.36223840713501,8.11539268493652,1.12011373043060,0.60734754800797,0.94529426097870
636,2730211109,0.805227,-0.085518,0.292926,-0.508426,-3.82241535186768,-4.32789659500122,8.11901855468750,1.20751714706421,0.55584043264389,1.02368199825287
637,2730227776,0.805227,-0.085552,0.292956,-0.508403,-3.82873439788818,-4.34133720397949,8.11858177185059,0.62936168909073,0.64159172773361,1.05435323715210
638,2730244443,0.805233,-0.085610,0.292992,-0.508363,-3.81550431251526,-4.34139823913574,8.12658500671387,0.46182900667191,0.58795875310898,1.10360634326935
639,2730261110,0.805243,-0.085594,0.292988,-0.508352,-3.81320118904114,-4.37004995346069,8.09811019897461,1.05001187324524,0.61341774463654,1.11394107341766
640,2730277777,0.805263,-0.085496,0.292901,-0.508387,-3.81508398056030,-4.32770347595215,8.10351085662842,1.90432357788086,0.45994648337364,0.99529039859772
641,2730294444,0.805266,-0.085480,0.292892,-0.508390,-3.82528686523438,-4.30062150955200,8.12597370147705,1.10194158554077,0.62003862857819,0.99009090662003
642,2730311111,0.805263,-0.085545,0.292932,-0.508362,-3.83517384529114,-4.35049247741699,8.10708618164062,0.44684556126595,0.63005316257477,0.94469231367111
643,2730327778,0.805256,-0.085582,0.292951,-0.508355,-3.81636691093445,-4.37870597839355,8.11875629425049,0.65506410598755,0.56839066743851,0.98617219924927
644,2730344445,0.805255,-0.085552,0.292928,-0.508375,-3.82997179031372,-4.31842517852783,8.10515117645264,1.27229166030884,0.62365007400513,0.87382215261459
645,2730361112,0.805244,-0.085625,0.292970,-0.508357,-3.81160712242126,-4.33431673049927,8.11820411682129,0.38134104013443,0.60324943065643,0.91938704252243
646,2730377779,0.805242,-0.085599,0.292954,-0.508373,-3.82466840744019,-4.33880376815796,8.11591815948486,1.23893105983734,0.66854906082153,0.85220491886139
647,2730394446,0.805227,-0.085664,0.293000,-0.508359,-3.82482504844666,-4.33275699615479,8.12922382354736,0.42983868718147,0.68468511104584,0.86431974172592
648,2730411113,0.805218,-0.085676,0.293011,-0.508364,-3.81417202949524,-4.36015558242798,8.09785842895508,0.86807197332382,0.64848154783249,0.90787422657013
649,2730427780,0.805212,-0.085647,0.292991,-0.508392,-3.80605196952820,-4.33450460433960,8.09955596923828,1.26227712631226,0.63754492998123,0.82891023159027
650,2730444447,0.805218,-0.085660,0.292987,-0.508382,-3.82475471496582,-4.33093833923340,8.14276695251465,0.90043365955353,0.53593933582306,1.01250207424164
651,2730461114,0.805219,-0.085707,0.292998,-0.508367,-3.82594823837280,-4.32155513763428,8.13022708892822,0.66319608688354,0.51722919940948,0.94926416873932
652,2730477781,0.805210,-0.085814,0.293052,-0.508331,-3.81441068649292,-4.34832477569580,8.09251785278320,0.10442937165499,0.52652662992477,0.97588860988617
653,2730494448,0.805218,-0.085790,0.293047,-0.508324,-3.80850052833557,-4.36247777938843,8.09709358215332,1.13457238674164,0.67373573780060,1.04463326931000
654,2730511115,0.805237,-0.085692,0.292990,-0.508345,-3.80230093002319,-4.35248517990112,8.10727882385254,1.77565813064575,0.63016849756241,1.06522595882416
655,2730527782,0.805242,-0.085637,0.292955,-0.508366,-3.81609439849854,-4.30937099456787,8.12595748901367,1.45409047603607,0.62143445014954,0.95884341001511
656,2730544449,0.805235,-0.085772,0.293012,-0.508321,-3.82583427429199,-4.36227226257324,8.10061359405518,-0.06062525883317,0.44533443450928,0.95013511180878
657,2730561116,0.805260,-0.085697,0.292934,-0.508339,-3.81586384773254,-4.33266639709473,8.13500785827637,1.71802914142609,0.41774949431419,1.04670774936676
658,2730577783,0.805252,-0.085837,0.293003,-0.508288,-3.82622599601746,-4.32837104797363,8.11875057220459,-0.12724389135838,0.51724201440811,0.94283550977707
659,2730594450,0.805271,-0.085878,0.293026,-0.508238,-3.79993438720703,-4.35231018066406,8.08737373352051,0.59136527776718,0.54784923791885,1.21475279331207
660,2730611117,0.805292,-0.085805,0.293009,-0.508227,-3.78347778320312,-4.32966470718384,8.11905479431152,1.43859469890594,0.74479800462723,1.22445976734161
661,2730627784,0.805287,-0.085853,0.293064,-0.508197,-3.81015348434448,-4.36469888687134,8.11535453796387,0.44183829426765,0.72981476783752,1.07745587825775
662,2730644451,0.805279,-0.085734,0.292987,-0.508273,-3.84998846054077,-4.36374568939209,8.13899612426758,2.04219675064087,0.66246610879898,0.72945612668991
663,2730661118,0.805253,-0.085702,0.292946,-0.508343,-3.83642888069153,-4.30225706100464,8.12824058532715,1.44602251052856,0.62343227863312,0.48023167252541
664,2730677785,0.805221,-0.085757,0.292997,-0.508355,-3.81227874755859,-4.34213113784790,8.09329128265381,0.51227319240570,0.79200237989426,0.69353425502777
665,2730694452,0.805218,-0.085586,0.292933,-0.508425,-3.79476499557495,-4.36193275451660,8.08952713012695,2.29381561279297,0.91083240509033,0.86029851436615
666,2730711119,0.805241,-0.085399,0.292861,-0.508461,-3.81020450592041,-4.32383298873901,8.09344768524170,2.35432577133179,0.85203844308853,1.17940723896027
667,2730727786,0.805246,-0.085344,0.292873,-0.508456,-3.81791305541992,-4.33303928375244,8.10782241821289,1.22417807579041,0.86361539363861,1.13317608833313
668,2730744453,0.805271,-0.085206,0.292801,-0.508481,-3.82856011390686,-4.33485031127930,8.13639926910400,2.05232644081116,0.66237646341324,1.16724121570587
669,2730761120,0.805271,-0.085192,0.292787,-0.508491,-3.82155513763428,-4.29052400588989,8.12919902801514,1.13567352294922,0.60937094688416,0.91180568933487
670,2730777787,0.805268,-0.085272,0.292819,-0.508464,-3.83003687858582,-4.34050655364990,8.10855865478516,0.38150754570961,0.52144259214401,0.92357468605042
671,2730794454,0.805253,-0.085309,0.292818,-0.508483,-3.84235835075378,-4.35880517959595,8.11946010589600,0.78717428445816,0.51241409778595,0.77256226539612
672,2730811121,0.805247,-0.085324,0.292785,-0.508508,-3.82199621200562,-4.34139871597290,8.09583568572998,1.06874752044678,0.42310261726379,0.72658747434616
673,2730827788,0.805245,-0.085287,0.292725,-0.508553,-3.79643654823303,-4.32140541076660,8.12589168548584,1.48597824573517,0.44973978400230,0.74790996313095
674,2730844455,0.805238,-0.085363,0.292741,-0.508541,-3.81192088127136,-4.34433650970459,8.12371635437012,0.48803079128265,0.46656727790833,0.82871806621552
675,2730861122,0.805243,-0.085292,0.292670,-0.508586,-3.82350778579712,-4.34264230728149,8.13539981842041,1.71877205371857,0.49179583787918,0.83011394739151
676,2730877789,0.805246,-0.085260,0.292646,-0.508601,-3.79866814613342,-4.28971052169800,8.12664985656738,1.26333999633789,0.59586024284363,0.95502704381943
677,2730894456,0.805254,-0.085305,0.292697,-0.508552,-3.80448389053345,-4.35556221008301,8.12263298034668,0.45166072249413,0.69964289665222,1.20705616474152
678,2730911123,0.805268,-0.085215,0.292668,-0.508561,-3.81225919723511,-4.34190130233765,8.12217044830322,1.61329925060272,0.75842404365540,1.10543775558472
679,2730927790,0.805265,-0.085126,0.292620,-0.508607,-3.81632184982300,-4.31913232803345,8.11520862579346,1.73147606849670,0.70717298984528,0.84470051527023
680,2730944457,0.805243,-0.085159,0.292645,-0.508623,-3.81952238082886,-4.33213043212891,8.11291885375977,0.73865109682083,0.70959341526031,0.72156733274460
681,2730961124,0.805227,-0.085148,0.292645,-0.508649,-3.82108020782471,-4.35337686538696,8.10514068603516,1.09128654003143,0.71357613801956,0.77822256088257
682,2730977791,0.805226,-0.085070,0.292590,-0.508696,-3.83224940299988,-4.32142019271851,8.12179374694824,1.70145773887634,0.62489217519760,0.80868887901306
683,2730994458,0.805212,-0.085051,0.292588,-0.508723,-3.80588507652283,-4.30452919006348,8.11694526672363,1.14225602149963,0.73142832517624,0.78238481283188
684,2731011125,0.805214,-0.085002,0.292599,-0.508722,-3.79798197746277,-4.33175325393677,8.11550140380859,1.21829998493195,0.85297328233719,1.06657028198242
685,2731027792,0.805217,-0.084870,0.292554,-0.508766,-3.80430126190186,-4.32469081878662,8.10254287719727,1.96538412570953,0.86324411630630,0.95751166343689
686,2731044459,0.805210,-0.084826,0.292550,-0.508786,-3.81689763069153,-4.29661464691162,8.11628818511963,1.28393268585205,0.78749454021454,0.89456838369370
687,2731061126,0.805202,-0.084768,0.292525,-0.508823,-3.81865286827087,-4.32872343063354,8.12343788146973,1.45834207534790,0.73012197017670,0.81976640224457
688,2731077793,0.805192,-0.084708,0.292496,-0.508865,-3.82863616943359,-4.32055854797363,8.14310073852539,1.49683809280396,0.71549713611603,0.79165649414062
689,2731094460,0.805178,-0.084710,0.292469,-0.508903,-3.83393478393555,-4.31791830062866,8.14326858520508,1.13020527362823,0.51897096633911,0.68312269449234
690,2731111127,0.805162,-0.084742,0.292466,-0.508924,-3.80848360061646,-4.32784366607666,8.12061119079590,0.87964892387390,0.57110559940338,0.66188973188400
691,2731127794,0.805143,-0.084773,0.292470,-0.508947,-3.81476330757141,-4.34551429748535,8.09393882751465,0.78804516792297,0.54247057437897,0.78882634639740
692,2731144461,0.805155,-0.084693,0.292403,-0.508979,-3.80632543563843,-4.32660722732544,8.10123729705811,1.72001409530640,0.52215963602066,0.95510375499725
693,2731161128,0.805153,-0.084702,0.292397,-0.508985,-3.79817152023315,-4.28145837783813,8.13404941558838,0.93452411890030,0.53802675008774,0.96377384662628
694,2731177795,0.805154,-0.084680,0.292405,-0.508982,-3.80045580863953,-4.33466100692749,8.11906623840332,1.05522406101227,0.71805834770203,1.06183195114136
695,2731194462,0.805155,-0.084657,0.292415,-0.508978,-3.79810881614685,-4.33285045623779,8.10873126983643,1.05974447727203,0.75664395093918,1.04558074474335
696,2731211129,0.805167,-0.084557,0.292377,-0.508998,-3.82868647575378,-4.33092308044434,8.12838077545166,1.72794151306152,0.76697868108749,1.03162193298340
697,2731227796,0.805182,-0.084537,0.292388,-0.508971,-3.82472515106201,-4.31780195236206,8.14669513702393,1.01628005504608,0.71179622411728,1.18916571140289
698,2731244463,0.805188,-0.084445,0.292349,-0.508999,-3.81352639198303,-4.31702232360840,8.11083984375000,1.69680285453796,0.74832618236542,0.97132313251495
699,2731261130,0.805187,-0.084415,0.292353,-0.509004,-3.80090999603271,-4.30701112747192,8.11225414276123,1.14313971996307,0.75949984788895,0.98586493730545
700,2731277797,0.805173,-0.084439,0.292389,-0.509001,-3.80946207046509,-4.32111597061157,8.09095478057861,0.69847762584686,0.74938285350800,0.91608309745789
701,2731294464,0.805169,-0.084380,0.292380,-0.509023,-3.82476925849915,-4.30768537521362,8.11908245086670,1.42589068412781,0.85931235551834,0.83545410633087
702,2731311131,0.805164,-0.084381,0.292411,-0.509012,-3.80412650108337,-4.30921697616577,8.12172508239746,0.86750859022141,0.81749969720840,0.97911584377289
703,2731327798,0.805156,-0.084331,0.292424,-0.509026,-3.81944584846497,-4.33027553558350,8.12402439117432,1.23607540130615,0.89107227325439,0.96004724502563
704,2731344465,0.805147,-0.084280,0.292427,-0.509047,-3.83035898208618,-4.31563472747803,8.12577342987061,1.30396175384521,0.87079983949661,0.88037896156311
705,2731361132,0.805134,-0.084295,0.292468,-0.509041,-3.81708574295044,-4.31203985214233,8.10502624511719,0.73979079723358,0.82974267005920,0.92306250333786
706,2731377799,0.805122,-0.084304,0.292504,-0.509038,-3.80819725990295,-4.31049633026123,8.13420391082764,0.83743923902512,0.85549616813660,0.85621333122253
707,2731394466,0.805102,-0.084324,0.292535,-0.509049,-3.81812357902527,-4.30169248580933,8.14161300659180,0.76229155063629,0.76271420717239,0.81958711147308
708,2731411133,0.805090,-0.084374,0.292582,-0.509032,-3.82604789733887,-4.31741762161255,8.12352466583252,0.52085340023041,0.74737215042114,0.89169967174530
709,2731427800,0.805079,-0.084438,0.292621,-0.509017,-3.82980012893677,-4.32358884811401,8.10399246215820,0.45350483059883,0.62788891792297,0.88916414976120
710,2731444467,0.805077,-0.084386,0.292584,-0.509050,-3.82010602951050,-4.31828594207764,8.11261844635010,1.45680558681488,0.61855316162109,0.86417895555496
711,2731461134,0.805078,-0.084420,0.292592,-0.509038,-3.82479214668274,-4.30876922607422,8.13432216644287,0.74423462152481,0.54232972860336,0.96012407541275
712,2731477801,0.805073,-0.084473,0.292639,-0.509009,-3.82774019241333,-4.33037757873535,8.07719326019287,0.45342797040939,0.68400633335114,1.04552948474884
713,2731494468,0.805082,-0.084417,0.292620,-0.509015,-3.80870437622070,-4.32137203216553,8.12583732604980,1.37113106250763,0.69724810123444,1.06380426883698
714,2731511135,0.805083,-0.084446,0.292666,-0.508983,-3.81928610801697,-4.31394672393799,8.10436248779297,0.59837025403976,0.76359778642654,1.09010839462280
715,2731527802,0.805102,-0.084398,0.292668,-0.508959,-3.80545210838318,-4.33224058151245,8.11313819885254,1.21426606178284,0.75860333442688,1.23797047138214
716,2731544469,0.805120,-0.084355,0.292677,-0.508934,-3.82866191864014,-4.32895946502686,8.11316108703613,1.16240036487579,0.78524047136307,1.23186194896698
717,2731561136,0.805107,-0.084408,0.292723,-0.508919,-3.84017229080200,-4.32808923721313,8.14620113372803,0.46724608540535,0.68496686220169,0.96154558658600
718,2731577803,0.805081,-0.084468,0.292774,-0.508920,-3.85018539428711,-4.35610198974609,8.11078929901123,0.45712909102440,0.74917787313461,0.77051323652267
719,2731594470,0.805059,-0.084392,0.292734,-0.508991,-3.83108854293823,-4.31806373596191,8.12471008300781,1.68008422851562,0.76569807529449,0.59301722049713
720,2731611137,0.805033,-0.084414,0.292775,-0.509004,-3.81973767280579,-4.29997777938843,8.12845706939697,0.74182707071304,0.85645669698715,0.73986762762070
721,2731627804,0.805020,-0.084452,0.292830,-0.508988,-3.81744050979614,-4.33658123016357,8.12790870666504,0.51154327392578,0.77969545125961,1.01876437664032
722,2731644471,0.805012,-0.084417,0.292849,-0.508995,-3.81197381019592,-4.32375431060791,8.11689472198486,1.11089313030243,0.86378186941147,0.98770886659622
723,2731661138,0.805007,-0.084383,0.292873,-0.508994,-3.82845091819763,-4.33185100555420,8.09996986389160,1.08492195606232,0.88626986742020,1.01845693588257
724,2731677805,0.805006,-0.084370,0.292889,-0.508988,-3.82620716094971,-4.33185291290283,8.12400817871094,0.96409410238266,0.73801076412201,1.05807983875275
725,2731694472,0.805015,-0.084335,0.292874,-0.508990,-3.84438014030457,-4.32635450363159,8.13838863372803,1.24647414684296,0.65485912561417,1.02297770977020
726,2731711139,0.805007,-0.084354,0.292879,-0.508996,-3.83402562141418,-4.30658578872681,8.11394214630127,0.86292380094528,0.60474783182144,0.86907088756561
727,2731727806,0.804988,-0.084458,0.292946,-0.508971,-3.81326031684875,-4.32300758361816,8.11233997344971,0.11495620757341,0.66498887538910,0.83851498365402
728,2731744473,0.804982,-0.084438,0.292942,-0.508985,-3.82165193557739,-4.36229133605957,8.10584068298340,1.12268793582916,0.67491388320923,0.92616170644760
729,2731761140,0.804977,-0.084422,0.292920,-0.509009,-3.82315683364868,-4.30045366287231,8.11673164367676,1.18105924129486,0.57106709480286,0.84110176563263
730,2731777807,0.804961,-0.084514,0.292983,-0.508982,-3.83327865600586,-4.31397676467896,8.12186050415039,0.19408664107323,0.67317217588425,0.89778280258179
731,2731794474,0.804962,-0.084524,0.293001,-0.508969,-3.81499218940735,-4.31403398513794,8.12824058532715,0.83590239286423,0.68203413486481,1.02255499362946
732,2731811141,0.804965,-0.084542,0.293040,-0.508938,-3.82036304473877,-4.32982492446899,8.09415245056152,0.67999798059464,0.74306923151016,1.14019417762756
733,2731827808,0.804974,-0.084502,0.293067,-0.508915,-3.82680225372314,-4.36779451370239,8.09059906005859,1.04678452014923,0.85769879817963,1.24891996383667
734,2731844475,0.804983,-0.084372,0.293028,-0.508946,-3.84351754188538,-4.31977319717407,8.11981964111328,1.89584577083588,0.85175669193268,1.08348762989044
735,2731861142,0.804961,-0.084440,0.293107,-0.508923,-3.83198237419128,-4.31181812286377,8.13310050964355,0.27408787608147,0.86146390438080,0.90734905004501
736,2731877809,0.804940,-0.084509,0.293174,-0.508906,-3.83158063888550,-4.36632204055786,8.10762596130371,0.30185207724571,0.76636391878128,0.91161364316940
737,2731894476,0.804940,-0.084475,0.293178,-0.508910,-3.81328892707825,-4.34002399444580,8.10880184173584,1.16637039184570,0.77739024162292,0.99322849512100
738,2731911143,0.804948,-0.084529,0.293218,-0.508865,-3.83352494239807,-4.30429267883301,8.11803245544434,0.46195706725121,0.62304812669754,1.12979531288147
739,2731927810,0.804945,-0.084557,0.293257,-0.508842,-3.81754589080811,-4.33827972412109,8.10901546478271,0.65450048446655,0.74908822774887,1.01908445358276
740,2731944477,0.804933,-0.084502,0.293259,-0.508869,-3.82435321807861,-4.29553222656250,8.11937618255615,1.31493687629700,0.84827351570129,0.90261077880859
741,2731961144,0.804920,-0.084590,0.293326,-0.508837,-3.83071327209473,-4.33697605133057,8.10600471496582,0.19192235171795,0.70173031091690,0.94461548328400
742,2731977811,0.804914,-0.084558,0.293334,-0.508846,-3.83137989044189,-4.34878110885620,8.07570552825928,1.13206219673157,0.78171885013580,0.98755526542664
743,2731994478,0.804907,-0.084576,0.293372,-0.508834,-3.84630846977234,-4.31816434860229,8.10558223724365,0.73240154981613,0.79160535335541,0.96027773618698
744,2732011145,0.804893,-0.084610,0.293424,-0.508821,-3.83205270767212,-4.33074665069580,8.11064243316650,0.54704242944717,0.77996432781219,1.00073301792145
745,2732027812,0.804876,-0.084602,0.293450,-0.508833,-3.81852197647095,-4.32454586029053,8.09897327423096,0.96076428890228,0.84758180379868,0.84058958292007
746,2732044479,0.804855,-0.084605,0.293499,-0.508838,-3.83882951736450,-4.32061386108398,8.10655498504639,0.79437154531479,0.93785381317139,0.86271899938583
747,2732061146,0.804824,-0.084680,0.293578,-0.508829,-3.83943462371826,-4.33602428436279,8.10864448547363,0.23554080724716,0.83779782056808,0.83541584014893
748,2732077813,0.804796,-0.084716,0.293618,-0.508843,-3.83800768852234,-4.34810924530029,8.09239101409912,0.64437073469162,0.76952719688416,0.75752764940262
749,2732094480,0.804788,-0.084705,0.293631,-0.508850,-3.81901788711548,-4.30070638656616,8.09891796112061,1.01137518882751,0.75705385208130,0.91478967666626
750,2732111147,0.804785,-0.084756,0.293699,-0.508807,-3.82029962539673,-4.33819389343262,8.08328628540039,0.37050691246986,0.80989283323288,1.10998392105103
751,2732127814,0.804806,-0.084661,0.293666,-0.508809,-3.82579445838928,-4.35152101516724,8.11173057556152,1.64353501796722,0.73747289180756,1.18081593513489
752,2732144481,0.804814,-0.084655,0.293682,-0.508788,-3.83992815017700,-4.28710794448853,8.11655521392822,0.95055764913559,0.73389983177185,1.06960558891296
753,2732161148,0.804795,-0.084788,0.293828,-0.508712,-3.82327699661255,-4.32372283935547,8.13599586486816,-0.42587518692017,0.96040582656860,1.13089668750763
754,2732177815,0.804790,-0.084794,0.293848,-0.508708,-3.87270379066467,-4.37091159820557,8.08872127532959,0.84528946876526,0.70203763246536,1.00279474258423
755,2732194482,0.804786,-0.084708,0.293820,-0.508744,-3.81623005867004,-4.33774471282959,8.11281490325928,1.59853327274323,0.76750373840332,0.95103150606155
756,2732211149,0.804796,-0.084704,0.293837,-0.508719,-3.84736919403076,-4.34386539459229,8.10735511779785,0.89066237211227,0.69085776805878,1.16163206100464
757,2732227816,0.804790,-0.084651,0.293830,-0.508741,-3.82876968383789,-4.33589982986450,8.09535217285156,1.33095753192902,0.78101450204849,0.94092738628387
758,2732244483,0.804794,-0.084643,0.293846,-0.508727,-3.83961129188538,-4.32050418853760,8.11218643188477,0.94666463136673,0.72561419010162,1.07271742820740
759,2732261150,0.804796,-0.084672,0.293899,-0.508689,-3.82906723022461,-4.34060287475586,8.11362266540527,0.54249614477158,0.77810740470886,1.17095506191254
760,2732277817,0.804797,-0.084631,0.293889,-0.508700,-3.83519196510315,-4.35060453414917,8.08987712860107,1.26750218868256,0.72087591886520,0.97942328453064
761,2732294484,0.804797,-0.084545,0.293854,-0.508734,-3.83841753005981,-4.31798267364502,8.12184143066406,1.64984822273254,0.74966448545456,0.92073172330856
762,2732311151,0.804781,-0.084609,0.293900,-0.508722,-3.84747052192688,-4.31681680679321,8.10143566131592,0.43514052033424,0.68491560220718,0.85380572080612
