sep=,
DeviceTag:,B
FirmwareVersion:,3.0.0
AppVersion:,2023.6.0
StartTime: ,2024-03-14_11:40:57_000 EDT
© Movella Technologies B. V. 2005-2024

PacketCounter,SampleTimeFine,Quat_W,Quat_X,Quat_Y,Quat_Z,Acc_X,Acc_Y,Acc_Z,Gyr_X,Gyr_Y,Gyr_Z
0,2719594230,0.046739,-0.676416,0.153705,-0.718791,0.00000000000000,0.00000000000000,0.00000000000000,0.00000000000000,0.00000000000000,0.00000000000000
1,2719610897,0.046751,-0.676368,0.153691,-0.718839,9.70811557769775,-2.81842041015625,0.36409270763397,3.10272264480591,3.89450144767761,1.27182435989380
2,2719627564,0.046851,-0.676356,0.153653,-0.718851,9.68965530395508,-2.84407711029053,0.34462556242943,2.36462879180908,3.82715225219727,1.52749037742615
3,2719644231,0.046790,-0.676314,0.153812,-0.718861,9.68941783905029,-2.88024735450745,0.32558694481850,2.25443005561829,3.71184372901917,1.73902571201324
4,2719660898,0.046771,-0.676307,0.153918,-0.718846,9.69315338134766,-2.89622664451599,0.36704856157303,2.80453968048096,3.30839300155640,1.67727351188660
5,2719677565,0.046762,-0.676329,0.153996,-0.718809,9.70473098754883,-2.86945724487305,0.36198434233665,2.65868806838989,3.14572644233704,1.56251573562622
6,2719694232,0.046796,-0.676362,0.154021,-0.718770,9.72519588470459,-2.88051772117615,0.36955252289772,2.55260014533997,3.19213652610779,1.48861014842987
7,2719710899,0.046779,-0.676369,0.154132,-0.718741,9.64402198791504,-2.88117527961731,0.37902534008026,2.56098818778992,3.24177408218384,1.69527912139893
8,2719727566,0.046838,-0.676358,0.154206,-0.718732,9.64294242858887,-2.89251065254211,0.35563197731972,2.84881091117859,3.42137026786804,1.89636445045471
9,2719744233,0.046935,-0.676334,0.154248,-0.718739,9.68668174743652,-2.91931605339050,0.36744111776352,3.35676240921021,3.46734523773193,1.95043289661407
10,2719760900,0.046999,-0.676312,0.154261,-0.718753,9.70574951171875,-2.88205695152283,0.33873638510704,3.37625336647034,3.49676132202148,1.64853584766388
11,2719777567,0.046972,-0.676296,0.154364,-0.718748,9.70695400238037,-2.85202288627625,0.35802087187767,2.77403473854065,3.42265105247498,1.62971067428589
12,2719794234,0.046906,-0.676312,0.154522,-0.718703,9.68836688995361,-2.85733366012573,0.32987070083618,1.77566432952881,3.28747963905334,1.65108430385590
13,2719810901,0.046815,-0.676332,0.154689,-0.718654,9.67944622039795,-2.90371131896973,0.36929288506508,1.71972656250000,3.25003433227539,1.57482266426086
14,2719827568,0.046815,-0.676367,0.154759,-0.718606,9.66791057586670,-2.92892074584961,0.34056514501572,2.11308598518372,3.20412278175354,1.52597904205322
15,2719844235,0.046829,-0.676352,0.154823,-0.718606,9.66738510131836,-2.91920900344849,0.32803854346275,2.91669774055481,3.45645976066589,1.64286279678345
16,2719860902,0.046828,-0.676342,0.154895,-0.718599,9.69186305999756,-2.87646245956421,0.35490441322327,3.05975723266602,3.34202194213867,1.60781168937683
17,2719877569,0.046814,-0.676318,0.155022,-0.718595,9.71647357940674,-2.87878155708313,0.39230811595917,2.74961328506470,3.45406532287598,1.80809020996094
18,2719894236,0.046811,-0.676288,0.155160,-0.718594,9.72859477996826,-2.87942624092102,0.35863673686981,2.31568288803101,3.61352944374084,1.91397333145142
19,2719910903,0.046780,-0.676243,0.155357,-0.718596,9.75878143310547,-2.89080643653870,0.36146062612534,2.13778996467590,3.68486142158508,2.06127190589905
20,2719927570,0.046790,-0.676202,0.155541,-0.718594,9.75876998901367,-2.90362334251404,0.38149955868721,2.06332087516785,3.69978022575378,2.19832539558411
21,2719944237,0.046811,-0.676132,0.155762,-0.718611,9.78088569641113,-2.92954039573669,0.37193748354912,2.12471461296082,3.88174605369568,2.45282602310181
22,2719960904,0.046882,-0.676059,0.155955,-0.718633,9.76984786987305,-2.91854000091553,0.37082347273827,2.30916452407837,3.91463255882263,2.56535530090332
23,2719977571,0.046935,-0.675946,0.156161,-0.718691,9.73776721954346,-2.95629000663757,0.38533085584641,2.45410656929016,4.22586536407471,2.57270622253418
24,2719994238,0.047012,-0.675807,0.156348,-0.718776,9.71220207214355,-2.94299387931824,0.37760290503502,2.57163023948669,4.49300575256348,2.62297105789185
25,2720010905,0.047087,-0.675634,0.156566,-0.718886,9.71661949157715,-2.93378567695618,0.32570040225983,2.31994748115540,4.82218027114868,2.77999019622803
26,2720027572,0.047151,-0.675396,0.156823,-0.719049,9.71215438842773,-2.93911004066467,0.37208220362663,2.26285696029663,5.38567304611206,2.96029067039490
27,2720044239,0.047251,-0.675165,0.157038,-0.719213,9.69992446899414,-2.92145991325378,0.36348953843117,2.12349796295166,5.46265172958374,2.91336822509766
28,2720060906,0.047247,-0.674921,0.157324,-0.719380,9.65811157226562,-2.93436145782471,0.38269239664078,1.92199003696442,5.47533035278320,2.77042388916016
29,2720077573,0.047242,-0.674692,0.157607,-0.719533,9.62064647674561,-2.95609712600708,0.37398162484169,1.91959524154663,5.33699560165405,2.73888158798218
30,2720094240,0.047194,-0.674506,0.157881,-0.719650,9.61097145080566,-2.95432782173157,0.35528835654259,2.11335539817810,4.87895107269287,2.46659302711487
31,2720110907,0.047165,-0.674379,0.158081,-0.719727,9.60176849365234,-2.98453259468079,0.36359736323357,2.28271937370300,4.42714309692383,2.15333676338196
32,2720127574,0.047191,-0.674314,0.158167,-0.719768,9.58537006378174,-2.98448467254639,0.36146584153175,2.82939672470093,3.91541409492493,1.83499646186829
33,2720144241,0.047298,-0.674326,0.158116,-0.719760,9.59165859222412,-2.96643209457397,0.33865821361542,3.49094676971436,3.27993679046631,1.52440404891968
34,2720160908,0.047338,-0.674388,0.158047,-0.719715,9.61631488800049,-2.94890856742859,0.32223892211914,3.71621155738831,2.77025723457336,1.08190619945526
35,2720177575,0.047369,-0.674518,0.157907,-0.719622,9.57352924346924,-2.94066786766052,0.31846722960472,3.87178254127502,2.21478152275085,0.64803975820541
36,2720194242,0.047410,-0.674697,0.157701,-0.719497,9.50736331939697,-2.94165802001953,0.34333363175392,3.70481300354004,1.94938254356384,0.33295226097107
37,2720210909,0.047292,-0.674923,0.157593,-0.719317,9.46905231475830,-2.95751738548279,0.34881556034088,3.03240251541138,1.47735333442688,-0.01108389534056
38,2720227576,0.047161,-0.675252,0.157385,-0.719061,9.50858402252197,-2.99030017852783,0.30782321095467,2.83436536788940,0.74940198659897,-0.64433228969574
39,2720244243,0.046907,-0.675612,0.157194,-0.718781,9.62500953674316,-2.98127126693726,0.27444481849670,2.17276358604431,0.62027549743652,-1.20020461082458
40,2720260910,0.046540,-0.676036,0.156985,-0.718452,9.70483016967773,-2.92987132072449,0.25703069567680,1.93268275260925,0.10850819200277,-1.87903070449829
41,2720277577,0.046133,-0.676493,0.156743,-0.718102,9.79927349090576,-2.88712215423584,0.28508639335632,1.87468338012695,-0.12413835525513,-2.26785731315613
42,2720294244,0.045696,-0.676997,0.156524,-0.717702,9.79879379272461,-2.87381005287170,0.32808178663254,1.55319237709045,-0.54314929246902,-2.34155774116516
43,2720310911,0.045300,-0.677560,0.156272,-0.717250,9.78791522979736,-2.80739712715149,0.38016226887703,1.83786475658417,-1.13653147220612,-2.33770275115967
44,2720327578,0.044934,-0.678104,0.156099,-0.716797,9.76885032653809,-2.82443642616272,0.39812275767326,1.58281350135803,-1.05217599868774,-1.80119395256042
45,2720344245,0.044717,-0.678605,0.155970,-0.716364,9.72501182556152,-2.82868790626526,0.45597988367081,2.10135555267334,-0.89515751600266,-0.82399260997772
46,2720360912,0.044639,-0.679051,0.155899,-0.715962,9.76620101928711,-2.83282065391541,0.45087727904320,2.51993107795715,-0.60323673486710,0.18347656726837
47,2720377579,0.044639,-0.679411,0.155895,-0.715621,9.82898807525635,-2.81935620307922,0.41071298718452,2.63543152809143,0.03418014198542,0.95066642761230
48,2720394246,0.044683,-0.679642,0.156031,-0.715369,9.82292747497559,-2.82775545120239,0.39810153841972,2.29128670692444,1.07770562171936,1.93228590488434
49,2720410913,0.044687,-0.679780,0.156348,-0.715169,9.74623489379883,-2.83284235000610,0.42047488689423,1.29624593257904,1.88599109649658,2.66708874702454
50,2720427580,0.044734,-0.679828,0.156750,-0.715033,9.72556114196777,-2.92453169822693,0.36737468838692,1.18102717399597,2.59698724746704,3.35480284690857
51,2720444247,0.044938,-0.679803,0.157069,-0.714973,9.70994377136230,-2.98313760757446,0.31152802705765,2.42469000816345,3.11999797821045,3.79201126098633
52,2720460914,0.045271,-0.679720,0.157310,-0.714978,9.73335170745850,-2.92206931114197,0.28605973720551,3.49340605735779,3.55068922042847,4.10476827621460
53,2720477581,0.045625,-0.679582,0.157561,-0.715031,9.72092723846436,-2.89086341857910,0.28692808747292,3.61644983291626,4.01768541336060,4.29915666580200
54,2720494248,0.045967,-0.679398,0.157855,-0.715120,9.70690155029297,-2.91024613380432,0.25308653712273,3.40204548835754,4.44621133804321,4.47967386245728
55,2720510915,0.046253,-0.679240,0.158197,-0.715176,9.69570922851562,-2.89199376106262,0.21156816184521,2.86110496520996,4.23293399810791,4.40688276290894
56,2720527582,0.046476,-0.679107,0.158600,-0.715199,9.68991184234619,-2.88465976715088,0.20706640183926,2.22404074668884,4.04671764373779,4.37108993530273
57,2720544249,0.046646,-0.678945,0.159098,-0.715230,9.69621658325195,-2.90138912200928,0.18759392201900,1.52900147438049,4.31690597534180,4.57934617996216
58,2720560916,0.046797,-0.678799,0.159674,-0.715231,9.68579006195068,-2.94938921928406,0.18576619029045,1.01353299617767,4.14136934280396,4.84190177917480
59,2720577583,0.046966,-0.678689,0.160164,-0.715215,9.69473648071289,-2.96821975708008,0.20464909076691,1.49055671691895,3.83933043479919,4.49493932723999
60,2720594250,0.047158,-0.678607,0.160591,-0.715184,9.69508647918701,-2.99727106094360,0.23141051828861,1.88544070720673,3.58352398872375,4.29522418975830
61,2720610917,0.047345,-0.678548,0.161004,-0.715135,9.63432502746582,-2.96974873542786,0.24140860140324,1.89782416820526,3.39051985740662,4.17616367340088
62,2720627584,0.047607,-0.678503,0.161341,-0.715084,9.63210487365723,-2.96683859825134,0.22731664776802,2.61920619010925,3.20445632934570,4.18159341812134
63,2720644251,0.047917,-0.678455,0.161650,-0.715039,9.69757270812988,-3.01485562324524,0.20883700251579,2.99071836471558,3.18469595909119,4.28709220886230
64,2720660918,0.048198,-0.678419,0.161973,-0.714982,9.64461803436279,-3.00559949874878,0.25760671496391,2.77197337150574,3.10335016250610,4.20035505294800
65,2720677585,0.048456,-0.678389,0.162308,-0.714916,9.64704132080078,-2.99222898483276,0.24691380560398,2.58763861656189,3.06591701507568,4.13593912124634
66,2720694252,0.048686,-0.678378,0.162678,-0.714827,9.60695171356201,-3.01933550834656,0.24244429171085,2.25142025947571,2.90217518806458,4.15343236923218
67,2720710919,0.048895,-0.678384,0.163064,-0.714719,9.57112789154053,-3.02835249900818,0.24607808887959,2.05042505264282,2.76606965065002,4.10690736770630
68,2720727586,0.049133,-0.678375,0.163404,-0.714634,9.57537555694580,-3.04833483695984,0.22034358978271,2.44126176834106,2.89668107032776,4.04710102081299
69,2720744253,0.049416,-0.678331,0.163653,-0.714599,9.58801269531250,-3.07564401626587,0.20466895401478,3.17000746726990,3.22458815574646,3.86546921730042
70,2720760920,0.049752,-0.678279,0.163829,-0.714585,9.63419532775879,-3.06552958488464,0.17863579094410,3.80162906646729,3.27147221565247,3.78697919845581
71,2720777587,0.050023,-0.678223,0.164059,-0.714566,9.61769104003906,-3.02791547775269,0.18818315863609,3.22536945343018,3.35220336914062,3.72776269912720
72,2720794254,0.050192,-0.678211,0.164333,-0.714503,9.62761592864990,-3.02029967308044,0.22042815387249,2.47539067268372,3.06954169273376,3.39561700820923
73,2720810921,0.050270,-0.678239,0.164675,-0.714392,9.65597152709961,-3.04726862907410,0.20391899347305,1.63900792598724,2.78386998176575,3.23639559745789
74,2720827588,0.050293,-0.678323,0.165002,-0.714235,9.65050125122070,-3.06196212768555,0.21297562122345,1.39368963241577,2.33982276916504,2.85338330268860
75,2720844255,0.050279,-0.678439,0.165350,-0.714045,9.65559577941895,-3.06873154640198,0.24225313961506,1.06282460689545,2.07975125312805,2.73570561408997
76,2720860922,0.050277,-0.678598,0.165709,-0.713811,9.63226509094238,-3.08100152015686,0.25696721673012,1.00632297992706,1.65720558166504,2.81551432609558
77,2720877589,0.050366,-0.678751,0.165951,-0.713603,9.61381244659424,-3.08786988258362,0.24641530215740,2.03194522857666,1.66439020633698,2.72116994857788
78,2720894256,0.050481,-0.678814,0.166233,-0.713470,9.57552623748779,-3.11377668380737,0.26727226376534,2.07841944694519,2.43385934829712,3.10728120803833
79,2720910923,0.050638,-0.678911,0.166488,-0.713307,9.58351993560791,-3.11379051208496,0.25442880392075,2.35170698165894,2.07279753684998,3.15608692169189
80,2720927590,0.050840,-0.678994,0.166693,-0.713166,9.59901618957520,-3.10926127433777,0.28971305489540,2.84640383720398,2.17809152603149,3.15201497077942
81,2720944257,0.051065,-0.679073,0.166927,-0.713020,9.61200332641602,-3.10466003417969,0.27705937623978,2.80274629592896,2.15213274955750,3.41212415695190
82,2720960924,0.051251,-0.679142,0.167216,-0.712873,9.59423637390137,-3.11056780815125,0.26572445034981,2.35773897171021,2.26286959648132,3.48760533332825
83,2720977591,0.051454,-0.679190,0.167484,-0.712749,9.56452465057373,-3.11980557441711,0.25382444262505,2.59350371360779,2.43849563598633,3.48601675033569
84,2720994258,0.051632,-0.679218,0.167746,-0.712648,9.54383945465088,-3.13884305953979,0.24295805394650,2.54213714599609,2.67281293869019,3.35140895843506
85,2721010925,0.051814,-0.679234,0.167959,-0.712570,9.54398632049561,-3.17684936523438,0.22341068089008,2.86826395988464,2.80193948745728,3.15435767173767
86,2721027592,0.051949,-0.679232,0.168174,-0.712511,9.52547073364258,-3.17429065704346,0.21971487998962,2.83366131782532,2.98306012153625,2.93892979621887
87,2721044259,0.052131,-0.679255,0.168314,-0.712443,9.53988552093506,-3.17817831039429,0.19239665567875,3.20668482780457,2.79296278953552,2.79423069953918
88,2721060926,0.052312,-0.679288,0.168375,-0.712383,9.52679824829102,-3.17470312118530,0.18625204265118,3.61063575744629,2.75399303436279,2.41258859634399
89,2721077593,0.052497,-0.679347,0.168375,-0.712314,9.53801536560059,-3.16338872909546,0.15960697829723,3.85606861114502,2.57686805725098,2.11181807518005
90,2721094260,0.052665,-0.679389,0.168346,-0.712268,9.52772331237793,-3.14786863327026,0.17113219201565,4.03757333755493,2.74852442741394,1.91169357299805
91,2721110927,0.052839,-0.679409,0.168276,-0.712252,9.51444625854492,-3.15634489059448,0.14662595093250,4.25462818145752,2.99065423011780,1.76105248928070
92,2721127594,0.053027,-0.679422,0.168161,-0.712253,9.55145931243896,-3.14031028747559,0.12908843159676,4.58258628845215,3.06744098663330,1.62118148803711
93,2721144261,0.053241,-0.679459,0.168000,-0.712240,9.58851814270020,-3.14768218994141,0.16816638410091,4.89219236373901,2.84066605567932,1.51182806491852
94,2721160928,0.053446,-0.679508,0.167860,-0.712211,9.62879657745361,-3.13859987258911,0.17829936742783,4.63732051849365,2.75864171981812,1.55721390247345
95,2721177595,0.053612,-0.679592,0.167736,-0.712148,9.65054607391357,-3.12338042259216,0.15253706276417,4.32722806930542,2.47459697723389,1.40666258335114
96,2721194262,0.053720,-0.679689,0.167669,-0.712063,9.62704181671143,-3.08653163909912,0.13752815127373,3.86417531967163,2.35799503326416,1.39032149314880
97,2721210929,0.053715,-0.679766,0.167721,-0.711977,9.61133384704590,-3.11167192459106,0.15345713496208,2.67969059944153,2.65229797363281,1.41341137886047
98,2721227596,0.053618,-0.679829,0.167855,-0.711893,9.54779720306396,-3.16449499130249,0.17470635473728,1.72465682029724,2.90988445281982,1.36441421508789
99,2721244263,0.053436,-0.679876,0.168025,-0.711821,9.50988101959229,-3.17719745635986,0.16576340794563,1.35711443424225,3.08927559852600,1.12296319007874
100,2721260930,0.053247,-0.679905,0.168164,-0.711775,9.57087421417236,-3.23955726623535,0.18518565595150,1.49263143539429,3.30770111083984,0.96107816696167
101,2721277597,0.053066,-0.679914,0.168198,-0.711772,9.57174301147461,-3.25781607627869,0.18916520476341,2.19604563713074,3.51958179473877,0.51960486173630
102,2721294264,0.052919,-0.679962,0.168105,-0.711759,9.56241893768311,-3.19431567192078,0.21631391346455,2.78481769561768,3.25662922859192,0.04982950910926
103,2721310931,0.052805,-0.680019,0.167938,-0.711752,9.55848598480225,-3.19811511039734,0.21655112504959,3.31564092636108,3.17420744895935,-0.15528340637684
104,2721327598,0.052756,-0.680076,0.167650,-0.711769,9.55377864837646,-3.22785854339600,0.19110427796841,4.24009323120117,3.16466712951660,-0.40102446079254
105,2721344265,0.052780,-0.680135,0.167255,-0.711804,9.57978630065918,-3.18467783927917,0.23379640281200,5.20368146896362,3.09144020080566,-0.55564826726913
106,2721360932,0.052871,-0.680200,0.166786,-0.711846,9.62695789337158,-3.09422707557678,0.22072057425976,5.85712528228760,2.99692940711975,-0.59128838777542
107,2721377599,0.052946,-0.680239,0.166388,-0.711895,9.65273380279541,-3.04248285293579,0.23558422923088,5.42515468597412,3.21408677101135,-0.30040499567986
108,2721394266,0.052922,-0.680312,0.166195,-0.711873,9.64105796813965,-3.04967021942139,0.25124683976173,3.83186602592468,2.90830969810486,0.15228033065796
109,2721410933,0.052796,-0.680383,0.166171,-0.711820,9.65561294555664,-3.03745102882385,0.27065536379814,2.67011141777039,2.89939665794373,0.46931436657906
110,2721427600,0.052664,-0.680462,0.166215,-0.711744,9.66502666473389,-3.08670854568481,0.23919299244881,2.02130317687988,2.86780285835266,0.74179506301880
111,2721444267,0.052545,-0.680539,0.166288,-0.711662,9.65021705627441,-3.13693952560425,0.22739195823669,2.01206994056702,2.81977891921997,0.95571231842041
112,2721460934,0.052493,-0.680623,0.166335,-0.711574,9.64712047576904,-3.18219971656799,0.20204384624958,2.41016793251038,2.67988228797913,1.15089392662048
113,2721477601,0.052476,-0.680682,0.166332,-0.711520,9.64630794525146,-3.21663427352905,0.17734362185001,2.99484205245972,2.85841608047485,1.10740351676941
114,2721494268,0.052506,-0.680725,0.166211,-0.711505,9.65566158294678,-3.19606423377991,0.16455590724945,3.85227799415588,3.02336144447327,0.78873032331467
115,2721510935,0.052517,-0.680785,0.166016,-0.711493,9.57352447509766,-3.14474558830261,0.19033414125443,4.18584585189819,2.92737841606140,0.33124911785126
116,2721527602,0.052506,-0.680826,0.165831,-0.711497,9.59819316864014,-3.12568402290344,0.13930013775826,3.98993349075317,3.15004181861877,0.28623476624489
117,2721544269,0.052484,-0.680834,0.165649,-0.711533,9.62116622924805,-3.13600397109985,0.15842789411545,3.83119988441467,3.51778984069824,0.26749911904335
118,2721560936,0.052455,-0.680830,0.165454,-0.711585,9.60037136077881,-3.11557960510254,0.19153106212616,3.85994958877563,3.65862107276917,0.18007010221481
119,2721577603,0.052429,-0.680832,0.165237,-0.711636,9.61360168457031,-3.08389520645142,0.17954464256763,4.03214359283447,3.60473132133484,0.09288447350264
120,2721594270,0.052432,-0.680855,0.165043,-0.711658,9.62715244293213,-3.07489657402039,0.15662430226803,4.06074047088623,3.32007217407227,0.32594725489616
121,2721610937,0.052417,-0.680913,0.164859,-0.711647,9.62150001525879,-3.06697845458984,0.18194697797298,3.92240619659424,3.00840377807617,0.25156792998314
122,2721627604,0.052373,-0.680972,0.164720,-0.711625,9.59945487976074,-3.05407118797302,0.14783152937889,3.63623571395874,2.96826887130737,0.32964828610420
123,2721644271,0.052325,-0.681005,0.164597,-0.711625,9.59493732452393,-3.07120490074158,0.16370056569576,3.47011160850525,3.24876642227173,0.40270853042603
124,2721660938,0.052201,-0.681022,0.164502,-0.711640,9.58866119384766,-3.07645082473755,0.12831485271454,2.96688532829285,3.49914336204529,0.17995485663414
125,2721677605,0.052044,-0.681049,0.164435,-0.711642,9.61884117126465,-3.08020114898682,0.13365462422371,2.62658262252808,3.44658613204956,0.13746336102486
126,2721694272,0.051857,-0.681074,0.164360,-0.711649,9.62037849426270,-3.10394096374512,0.14130891859531,2.57334661483765,3.49735045433044,-0.04791496321559
127,2721710939,0.051699,-0.681150,0.164212,-0.711621,9.62330341339111,-3.11990118026733,0.14124438166618,2.99987435340881,3.03356814384460,-0.28639477491379
128,2721727606,0.051576,-0.681261,0.163991,-0.711575,9.63265419006348,-3.11692881584167,0.18389326334000,3.41570949554443,2.73077487945557,-0.49509987235069
129,2721744273,0.051453,-0.681376,0.163725,-0.711535,9.63875770568848,-3.11387515068054,0.15338751673698,3.93993782997131,2.62918210029602,-0.71013134717941
130,2721760940,0.051352,-0.681484,0.163422,-0.711509,9.64550018310547,-3.09369397163391,0.15312980115414,4.22364902496338,2.69660758972168,-0.76975768804550
131,2721777607,0.051233,-0.681575,0.163095,-0.711505,9.64775466918945,-3.07443571090698,0.14826920628548,4.13565731048584,2.94893097877502,-0.96264696121216
132,2721794274,0.051114,-0.681650,0.162758,-0.711519,9.64282894134521,-3.03954720497131,0.16241222620010,4.15936183929443,3.12074136734009,-1.00006723403931
133,2721810941,0.051036,-0.681699,0.162397,-0.711560,9.61100196838379,-3.03441262245178,0.18670216202736,4.52293443679810,3.30932736396790,-0.88706392049789
134,2721827608,0.051051,-0.681734,0.161982,-0.711620,9.58755397796631,-3.00593018531799,0.17857415974140,4.93103361129761,3.44657325744629,-0.68581205606461
135,2721844275,0.051100,-0.681745,0.161583,-0.711697,9.58441448211670,-2.98960590362549,0.18033672869205,5.28345251083374,3.54021358489990,-0.42306420207024
136,2721860942,0.051144,-0.681737,0.161190,-0.711790,9.61481094360352,-2.93884396553040,0.13312634825706,5.29993438720703,3.69842314720154,-0.39664471149445
137,2721877609,0.051105,-0.681725,0.160955,-0.711858,9.63265705108643,-2.89222192764282,0.12938617169857,4.20951128005981,3.71589064598083,-0.04708254709840
138,2721894276,0.051006,-0.681720,0.160852,-0.711893,9.63207626342773,-2.89661574363708,0.12647022306919,3.18683457374573,3.65057778358459,0.27805146574974
139,2721910943,0.050901,-0.681747,0.160823,-0.711881,9.61567878723145,-2.90154695510864,0.10266350209713,2.60023975372314,3.36521434783936,0.56978017091751
140,2721927610,0.050795,-0.681822,0.160877,-0.711805,9.64289760589600,-2.91842555999756,0.10665442794561,2.28303909301758,2.79138731956482,0.93479955196381
141,2721944277,0.050714,-0.681934,0.160966,-0.711683,9.66214179992676,-2.93066072463989,0.09149815887213,2.03973102569580,2.42320442199707,1.19184851646423
142,2721960944,0.050618,-0.682090,0.161129,-0.711504,9.67400741577148,-2.92822074890137,0.10841192305088,1.51701474189758,1.98629033565521,1.43606567382812
143,2721977611,0.050480,-0.682285,0.161366,-0.711273,9.69328975677490,-2.93198657035828,0.10901864618063,0.95646780729294,1.59943628311157,1.55178380012512
144,2721994278,0.050264,-0.682514,0.161660,-0.711002,9.69645881652832,-2.98912858963013,0.14950704574585,0.21323852241039,1.37193131446838,1.41432034969330
145,2722010945,0.050009,-0.682737,0.162002,-0.710727,9.67152500152588,-3.04983592033386,0.17069117724895,-0.14237459003925,1.41606211662292,1.45934748649597
146,2722027612,0.049792,-0.682937,0.162319,-0.710479,9.66811561584473,-3.10552573204041,0.18420711159706,0.15540507435799,1.61795425415039,1.54016864299774
147,2722044279,0.049660,-0.683113,0.162524,-0.710272,9.65397644042969,-3.15971517562866,0.20442548394203,1.08125293254852,1.81733620166779,1.44678461551666
148,2722060946,0.049616,-0.683250,0.162596,-0.710127,9.64589691162109,-3.15123224258423,0.20745572447777,2.27059149742126,2.14360356330872,1.26835370063782
149,2722077613,0.049608,-0.683318,0.162561,-0.710069,9.64908790588379,-3.13541722297668,0.22243544459343,3.43924784660339,2.69866943359375,0.99947160482407
150,2722094280,0.049710,-0.683350,0.162351,-0.710080,9.62581539154053,-3.13415622711182,0.19893161952496,4.54298830032349,3.12723374366760,0.72166341543198
151,2722110947,0.049824,-0.683324,0.162113,-0.710151,9.61050987243652,-3.08211278915405,0.20458312332630,5.15348100662231,3.56719660758972,0.69550025463104
152,2722127614,0.050017,-0.683251,0.161817,-0.710275,9.66915035247803,-3.07545447349548,0.14044931530952,5.60496950149536,4.02565145492554,0.84652560949326
153,2722144281,0.050245,-0.683145,0.161476,-0.710439,9.74019527435303,-3.06933045387268,0.13742548227310,6.07254266738892,4.30614852905273,0.82647085189819
154,2722160948,0.050425,-0.683052,0.161179,-0.710582,9.73117446899414,-2.98790001869202,0.15877805650234,5.46801710128784,4.26331090927124,0.78461951017380
155,2722177615,0.050428,-0.682953,0.161063,-0.710704,9.69033241271973,-2.94875526428223,0.12918399274349,4.14294433593750,4.31525373458862,0.79515916109085
156,2722194282,0.050400,-0.682857,0.160988,-0.710815,9.67232322692871,-2.96529173851013,0.07934874296188,3.24369525909424,4.48367023468018,0.82913446426392
157,2722210949,0.050313,-0.682797,0.160996,-0.710877,9.68446922302246,-2.96921706199646,0.08867652714252,2.47710633277893,4.15795278549194,0.90526807308197
158,2722227616,0.050216,-0.682760,0.161051,-0.710907,9.65902137756348,-2.98217439651489,0.09749765694141,2.42422938346863,3.84830880165100,1.06424629688263
159,2722244283,0.050265,-0.682759,0.160985,-0.710919,9.66486358642578,-2.99266433715820,0.11682102084160,3.30385923385620,3.50114059448242,1.17662191390991
160,2722260950,0.050387,-0.682790,0.160839,-0.710914,9.64563083648682,-2.99689245223999,0.13619962334633,4.29462289810181,3.06490564346313,1.13422012329102
161,2722277617,0.050561,-0.682860,0.160690,-0.710868,9.61998367309570,-2.94148707389832,0.13328599929810,4.21466016769409,2.71626543998718,1.33180928230286
162,2722294284,0.050599,-0.682951,0.160703,-0.710775,9.61968803405762,-2.92863941192627,0.14684185385704,3.22089958190918,2.43196415901184,1.43388867378235
163,2722310951,0.050458,-0.683039,0.160870,-0.710662,9.60891723632812,-2.95810127258301,0.14745968580246,1.51146936416626,2.63917088508606,1.29095673561096
164,2722327618,0.050190,-0.683112,0.161146,-0.710549,9.63381195068359,-3.04133439064026,0.15927863121033,0.43435305356979,2.87319469451904,1.19788050651550
165,2722344285,0.049949,-0.683177,0.161341,-0.710459,9.66099929809570,-3.13498973846436,0.18378709256649,0.76429569721222,3.03073787689209,0.94956511259079
166,2722360952,0.049829,-0.683244,0.161375,-0.710396,9.64908695220947,-3.17537760734558,0.21436654031277,2.57903289794922,2.82997345924377,0.77819079160690
167,2722377619,0.049875,-0.683307,0.161169,-0.710378,9.63521099090576,-3.14763140678406,0.22531026601791,4.68269348144531,2.75700259208679,0.44858089089394
168,2722394286,0.050058,-0.683346,0.160786,-0.710415,9.68147182464600,-3.08194613456726,0.16737306118011,6.14911079406738,2.95772957801819,0.29402104020119
169,2722410953,0.050281,-0.683356,0.160372,-0.710483,9.70257854461670,-3.00095462799072,0.16965843737125,6.38367128372192,3.23131108283997,0.36183062195778
170,2722427620,0.050415,-0.683376,0.160064,-0.710524,9.69863128662109,-2.93653821945190,0.19059473276138,5.19179677963257,3.26711773872375,0.42496594786644
171,2722444287,0.050405,-0.683381,0.159940,-0.710548,9.69835472106934,-2.93360447883606,0.16723458468914,3.84424853324890,3.40515732765198,0.61058121919632
172,2722460954,0.050371,-0.683377,0.159885,-0.710567,9.67948818206787,-2.97217440605164,0.14953373372555,3.46961164474487,3.45169568061829,0.82777690887451
173,2722477621,0.050342,-0.683382,0.159857,-0.710569,9.64208412170410,-2.99704504013062,0.16411443054676,3.23566555976868,3.36251258850098,0.97674041986465
174,2722494288,0.050379,-0.683379,0.159769,-0.710590,9.61273765563965,-2.99236297607422,0.14503695070744,3.41681075096130,3.53760027885437,1.00524735450745
175,2722510955,0.050456,-0.683355,0.159628,-0.710639,9.60909461975098,-2.98888182640076,0.12800580263138,3.70084381103516,3.77947402000427,0.97204041481018
176,2722527622,0.050448,-0.683313,0.159575,-0.710692,9.61477470397949,-2.95394206047058,0.10259753465652,3.53250360488892,3.80598378181458,0.99368315935135
177,2722544289,0.050486,-0.683304,0.159500,-0.710715,9.64260959625244,-2.95405507087708,0.09195195138454,3.32981753349304,3.58680248260498,1.08412158489227
178,2722560956,0.050531,-0.683304,0.159407,-0.710732,9.61525344848633,-2.97014856338501,0.12058724462986,3.81907129287720,3.38838100433350,1.03182041645050
179,2722577623,0.050576,-0.683322,0.159323,-0.710731,9.60784053802490,-2.95883703231812,0.08677005022764,4.44190835952759,2.99269032478333,1.06620550155640
180,2722594290,0.050740,-0.683390,0.159133,-0.710697,9.64146709442139,-2.92016172409058,0.10058999061584,4.72569704055786,2.66464304924011,1.09796535968781
181,2722610957,0.050865,-0.683460,0.159024,-0.710644,9.69670486450195,-2.90427398681641,0.08255430310965,4.26963758468628,2.59597539901733,1.29239118099213
182,2722627624,0.050877,-0.683532,0.159054,-0.710568,9.72734832763672,-2.92275786399841,0.10660114884377,3.12001132965088,2.61378908157349,1.40580439567566
183,2722644291,0.050839,-0.683598,0.159207,-0.710472,9.71860504150391,-2.96348547935486,0.13643318414688,2.31153368949890,2.64173245429993,1.75026953220367
184,2722660958,0.050800,-0.683662,0.159341,-0.710384,9.67213058471680,-3.02018260955811,0.13847927749157,2.01085329055786,2.79829025268555,1.64776778221130
185,2722677625,0.050806,-0.683741,0.159418,-0.710290,9.65252780914307,-3.06877374649048,0.14994423091412,2.34085988998413,2.68663167953491,1.59159874916077
186,2722694292,0.050968,-0.683825,0.159301,-0.710223,9.67502212524414,-3.06897115707397,0.19242867827415,3.03326106071472,2.86577939987183,1.41026103496552
187,2722710959,0.050983,-0.683847,0.159290,-0.710204,9.68784904479980,-3.05760121345520,0.17631581425667,3.38281059265137,3.12092089653015,1.26023471355438
188,2722727626,0.050976,-0.683842,0.159275,-0.710212,9.69986438751221,-3.03635549545288,0.17703628540039,3.43956804275513,3.37075924873352,1.15022802352905
189,2722744293,0.050983,-0.683847,0.159242,-0.710214,9.68774795532227,-3.03132891654968,0.17861089110374,3.08221983909607,3.43572616577148,1.11996650695801
190,2722760960,0.050958,-0.683819,0.159206,-0.710251,9.65487384796143,-3.05085873603821,0.18896314501762,3.25682115554810,3.70678544044495,0.98224705457687
191,2722777627,0.050874,-0.683759,0.159194,-0.710318,9.64883136749268,-3.05576586723328,0.17868666350842,3.59592080116272,3.86496925354004,0.83774024248123
192,2722794294,0.050901,-0.683700,0.159062,-0.710402,9.62963581085205,-3.03055286407471,0.16385926306248,4.29110050201416,3.90801143646240,0.80177998542786
193,2722810961,0.050967,-0.683639,0.158876,-0.710499,9.65466785430908,-3.00863289833069,0.16426818072796,4.75494670867920,3.91549062728882,0.73685175180435
194,2722827628,0.051086,-0.683561,0.158647,-0.710616,9.65829944610596,-2.96577072143555,0.15529084205627,4.90023517608643,4.12852430343628,0.80496889352798
195,2722844295,0.051130,-0.683480,0.158512,-0.710720,9.67278003692627,-2.93781352043152,0.14859256148338,4.56473398208618,4.04762649536133,0.88718557357788
196,2722860962,0.051170,-0.683421,0.158383,-0.710804,9.66756725311279,-2.95586657524109,0.15031917393208,4.01742887496948,3.99509429931641,0.88028281927109
197,2722877629,0.051120,-0.683371,0.158324,-0.710868,9.66210556030273,-2.96826601028442,0.12660717964172,3.45757412910461,3.90962553024292,0.76183706521988
198,2722894296,0.051030,-0.683340,0.158273,-0.710915,9.64572238922119,-3.00498604774475,0.14715519547462,3.35901618003845,3.73002862930298,0.59813338518143
199,2722910963,0.050969,-0.683317,0.158172,-0.710965,9.62884807586670,-3.00966143608093,0.16309526562691,3.83016180992126,3.63225245475769,0.49639973044395
200,2722927630,0.051044,-0.683286,0.157935,-0.711041,9.61744499206543,-3.00987172126770,0.15030217170715,4.79866790771484,3.71207427978516,0.50691378116608
201,2722944297,0.051283,-0.683237,0.157537,-0.711160,9.63913059234619,-3.02876543998718,0.16770541667938,6.33370208740234,3.79069304466248,0.56760311126709
202,2722960964,0.051714,-0.683169,0.156963,-0.711321,9.72561073303223,-3.02392411231995,0.17720900475979,7.99793910980225,3.85690188407898,0.67499727010727
203,2722977631,0.052204,-0.683079,0.156360,-0.711504,9.82986831665039,-2.99323511123657,0.16264243423939,8.84402847290039,3.87727689743042,0.85246777534485
204,2722994298,0.052707,-0.683009,0.155763,-0.711665,9.87428283691406,-2.94944834709167,0.21040436625481,8.42328929901123,3.78617286682129,0.92780745029449
205,2723010965,0.053058,-0.682991,0.155344,-0.711748,9.79848957061768,-2.91064953804016,0.23622526228428,6.39170026779175,3.51151394844055,0.97781610488892
206,2723027632,0.053137,-0.682965,0.155262,-0.711785,9.75115013122559,-2.93411374092102,0.22996528446674,3.93925905227661,3.58120608329773,1.27339947223663
207,2723044299,0.053120,-0.682881,0.155251,-0.711869,9.72257709503174,-3.02530288696289,0.19121293723583,2.55167841911316,4.42241716384888,1.16494262218475
208,2723060966,0.053063,-0.682707,0.155228,-0.712045,9.63849544525146,-3.07717347145081,0.20964285731316,2.57922482490540,5.31983518600464,0.97287297248840
209,2723077633,0.052998,-0.682482,0.155141,-0.712285,9.58303451538086,-3.06111454963684,0.21006444096565,3.58219265937805,5.65981864929199,0.67940258979797
210,2723094300,0.053071,-0.682244,0.154879,-0.712564,9.58377647399902,-3.04134774208069,0.18776498734951,5.00428724288940,5.72929286956787,0.53228324651718
211,2723110967,0.053242,-0.682013,0.154494,-0.712856,9.57338047027588,-2.97247219085693,0.18549409508705,6.41347217559814,5.50771713256836,0.42381343245506
212,2723127634,0.053446,-0.681820,0.154072,-0.713117,9.57290363311768,-2.85663294792175,0.13967894017696,6.86197757720947,5.07205820083618,0.39538335800171
213,2723144301,0.053636,-0.681674,0.153731,-0.713316,9.59096622467041,-2.77408957481384,0.13498087227345,5.89344453811646,4.73076868057251,0.66400927305222
214,2723160968,0.053683,-0.681573,0.153599,-0.713437,9.62566184997559,-2.74350690841675,0.12825024127960,3.95877647399902,4.41387510299683,0.92300498485565
215,2723177635,0.053526,-0.681540,0.153701,-0.713458,9.66055774688721,-2.79187178611755,0.13371747732162,1.70899462699890,3.92510795593262,0.98298984766006
216,2723194302,0.053209,-0.681556,0.154011,-0.713400,9.69052982330322,-2.85657978057861,0.15170715749264,0.18754900991917,3.44501090049744,1.16006326675415
217,2723210969,0.053011,-0.681667,0.154213,-0.713265,9.63205623626709,-2.94206380844116,0.19403305649757,0.36971935629845,2.70813345909119,1.14528477191925
218,2723227636,0.052903,-0.681793,0.154335,-0.713126,9.54706859588623,-3.00085377693176,0.22706036269665,1.67678678035736,2.32377648353577,1.20722913742065
219,2723244303,0.052939,-0.681884,0.154288,-0.713047,9.59962272644043,-3.04164314270020,0.23339004814625,3.63863039016724,2.44268345832825,1.14399135112762
220,2723260970,0.053033,-0.681947,0.154158,-0.713007,9.66223335266113,-3.01006603240967,0.24744579195976,4.64821910858154,2.59232568740845,1.06545007228851
221,2723277637,0.053136,-0.682005,0.153994,-0.712980,9.70876312255859,-2.93342208862305,0.24413917958736,4.00571155548096,2.91951513290405,0.93073993921280
222,2723294304,0.053051,-0.682037,0.154008,-0.712952,9.71017837524414,-2.93993210792542,0.24568244814873,2.70475268363953,3.16916203498840,0.88275456428528
223,2723310971,0.052921,-0.682081,0.154070,-0.712907,9.67698955535889,-2.97216796875000,0.25492191314697,1.76097559928894,3.24383568763733,0.86693871021271
224,2723327638,0.052677,-0.682085,0.154239,-0.712884,9.66910076141357,-3.00837111473083,0.25508132576942,1.51413333415985,3.46566796302795,0.86255902051926
225,2723344305,0.052530,-0.682046,0.154260,-0.712928,9.64213562011719,-3.01235866546631,0.25765728950500,2.24003577232361,4.00528907775879,0.65304708480835
226,2723360972,0.052420,-0.681975,0.154195,-0.713018,9.62752914428711,-3.00725960731506,0.24998398125172,3.22700834274292,4.19598817825317,0.45439493656158
227,2723377639,0.052423,-0.681922,0.153979,-0.713116,9.58980846405029,-2.98664045333862,0.23848105967045,4.02995347976685,4.11989259719849,0.26683309674263
228,2723394306,0.052426,-0.681859,0.153741,-0.713227,9.57000446319580,-2.94683337211609,0.21328359842300,4.62003135681152,4.07772064208984,0.18190138041973
229,2723410973,0.052505,-0.681795,0.153400,-0.713356,9.56966590881348,-2.93991041183472,0.18348947167397,5.02399587631226,4.19224929809570,0.05951112508774
230,2723427640,0.052667,-0.681741,0.152979,-0.713485,9.63271903991699,-2.89256310462952,0.18004634976387,5.56684446334839,4.10662603378296,0.07149786502123
231,2723444307,0.052822,-0.681731,0.152564,-0.713573,9.68723297119141,-2.86438894271851,0.17361970245838,5.37649059295654,3.72616195678711,0.02936496399343
232,2723460974,0.052911,-0.681772,0.152237,-0.713597,9.75177001953125,-2.84998512268066,0.21185933053493,4.98361730575562,3.14566254615784,0.10248921811581
233,2723477641,0.052972,-0.681875,0.151969,-0.713551,9.78230953216553,-2.85041213035583,0.22211427986622,4.26542377471924,2.62268948554993,0.20245558023453
234,2723494308,0.052909,-0.681999,0.151861,-0.713460,9.79549884796143,-2.89570450782776,0.23897725343704,3.52610015869141,2.29131197929382,0.34537443518639
235,2723510975,0.052848,-0.682118,0.151777,-0.713369,9.75112628936768,-2.94844484329224,0.27259781956673,3.16085100173950,2.39688825607300,0.46764954924583
236,2723527642,0.052835,-0.682229,0.151654,-0.713289,9.72934246063232,-2.96240186691284,0.26609057188034,2.95027613639832,2.62076854705811,0.51103746891022
237,2723544309,0.052831,-0.682298,0.151497,-0.713258,9.69376850128174,-2.96089148521423,0.29659858345985,3.27240681648254,3.02588438987732,0.42268642783165
238,2723560976,0.052783,-0.682315,0.151395,-0.713266,9.68193244934082,-2.93836283683777,0.30526176095009,3.46397662162781,3.33319830894470,0.52535486221313
239,2723577643,0.052728,-0.682252,0.151329,-0.713345,9.68650531768799,-2.91809129714966,0.28985276818275,3.60991811752319,4.01256227493286,0.71324968338013
240,2723594310,0.052643,-0.682139,0.151311,-0.713463,9.66868209838867,-2.89272141456604,0.26447889208794,3.72561049461365,4.34751224517822,0.84460431337357
241,2723610977,0.052644,-0.682045,0.151224,-0.713571,9.65966796875000,-2.86937427520752,0.22090430557728,3.50868439674377,4.39055538177490,0.90850824117661
242,2723627644,0.052618,-0.681954,0.151193,-0.713666,9.65494537353516,-2.87004232406616,0.20653472840786,3.07228207588196,4.35901308059692,1.03448426723480
243,2723644311,0.052510,-0.681892,0.151221,-0.713728,9.64818477630615,-2.85927724838257,0.17058277130127,2.53277564048767,4.12392663955688,0.89338374137878
244,2723660978,0.052365,-0.681852,0.151278,-0.713765,9.64409637451172,-2.89266514778137,0.15427662432194,2.22133827209473,3.93000006675720,0.84033983945847
245,2723677645,0.052146,-0.681837,0.151380,-0.713773,9.58681869506836,-2.92223095893860,0.17135702073574,2.58158063888550,3.47046923637390,0.68702220916748
246,2723694312,0.052137,-0.681908,0.151252,-0.713733,9.56734371185303,-2.87344884872437,0.17399771511555,3.10392665863037,2.98359799385071,0.53784114122391
247,2723710979,0.052100,-0.681988,0.151172,-0.713676,9.60900402069092,-2.86150455474854,0.20348542928696,3.53532099723816,2.65266895294189,0.64162373542786
248,2723727646,0.052321,-0.682132,0.150864,-0.713588,9.64664459228516,-2.84992504119873,0.21606111526489,3.89758777618408,2.43403911590576,0.73818373680115
249,2723744313,0.052500,-0.682298,0.150615,-0.713469,9.72364711761475,-2.83887338638306,0.20385219156742,3.53838157653809,2.19211411476135,0.79809165000916
250,2723760980,0.052490,-0.682414,0.150583,-0.713365,9.80542564392090,-2.84832119941711,0.19367419183254,2.91152429580688,2.37879276275635,0.97205334901810
251,2723777647,0.052393,-0.682548,0.150670,-0.713226,9.77851390838623,-2.86895132064819,0.20327347517014,1.71862506866455,2.32197070121765,1.08659327030182
252,2723794314,0.052122,-0.682674,0.150977,-0.713060,9.69908142089844,-2.87673258781433,0.26852810382843,0.64693838357925,2.22500085830688,1.30547940731049
253,2723810981,0.051946,-0.682799,0.151211,-0.712903,9.67749691009521,-2.94855070114136,0.25867319107056,0.62406623363495,2.40904092788696,1.40531766414642
254,2723827648,0.051810,-0.682837,0.151375,-0.712842,9.65933322906494,-2.98693013191223,0.24198895692825,1.92456424236298,3.02252960205078,1.35049366950989
255,2723844315,0.051869,-0.682856,0.151328,-0.712829,9.63510417938232,-2.95032668113708,0.25580558180809,3.66743135452271,3.14002752304077,1.30286681652069
256,2723860982,0.052029,-0.682878,0.151187,-0.712827,9.68482398986816,-2.90109014511108,0.22735457122326,4.56240320205688,3.05581307411194,1.35530889034271
257,2723877649,0.052097,-0.682873,0.151183,-0.712827,9.71696662902832,-2.86178064346313,0.22198961675167,4.56821727752686,3.00376772880554,1.59354555606842
258,2723894316,0.052247,-0.682905,0.151140,-0.712795,9.70051574707031,-2.81502819061279,0.20828045904636,3.69524669647217,3.00841665267944,1.76198732852936
259,2723910983,0.052275,-0.682961,0.151226,-0.712721,9.71969985961914,-2.82665753364563,0.17714843153954,2.41351032257080,2.86629176139832,1.75642919540405
260,2723927650,0.052216,-0.683008,0.151467,-0.712629,9.71190929412842,-2.84961366653442,0.16859389841557,1.52763128280640,2.88918995857239,2.07985401153564
261,2723944317,0.052134,-0.683062,0.151712,-0.712532,9.68613147735596,-2.90889811515808,0.17786790430546,1.39009094238281,2.85106492042542,1.97975933551788
262,2723960984,0.052088,-0.683136,0.151918,-0.712420,9.70713424682617,-2.94277429580688,0.19691289961338,1.73045790195465,2.63188409805298,1.95884644985199
263,2723977651,0.052100,-0.683220,0.152017,-0.712317,9.64896202087402,-2.93410468101501,0.19699479639530,2.52559208869934,2.53000998497009,1.72148084640503
264,2723994318,0.052159,-0.683285,0.152064,-0.712241,9.63187694549561,-2.93718481063843,0.18459731340408,3.24064707756042,2.61549210548401,1.72956168651581
265,2724010985,0.052290,-0.683299,0.152063,-0.712218,9.72216796875000,-2.94360661506653,0.15343861281872,4.10382080078125,2.95450210571289,1.89007663726807
266,2724027652,0.052465,-0.683312,0.151964,-0.712214,9.74535083770752,-2.93646407127380,0.18288275599480,4.42609262466431,3.09484648704529,1.63044059276581
267,2724044319,0.052529,-0.683335,0.151943,-0.712191,9.76180362701416,-2.90586090087891,0.21667584776878,3.68680715560913,3.03101968765259,1.46116614341736
268,2724060986,0.052551,-0.683379,0.151954,-0.712144,9.79211330413818,-2.92106747627258,0.21546989679337,3.02579474449158,2.96721863746643,1.38070392608643
269,2724077653,0.052499,-0.683417,0.152054,-0.712091,9.78521633148193,-2.94709587097168,0.20877113938332,2.43439745903015,3.01465296745300,1.45086979866028
270,2724094320,0.052494,-0.683435,0.152108,-0.712063,9.76020145416260,-2.97281503677368,0.20973183214664,2.81669259071350,3.18887090682983,1.47009217739105
271,2724110987,0.052620,-0.683400,0.152047,-0.712100,9.72430610656738,-2.99263811111450,0.23326820135117,3.59841823577881,3.72486805915833,1.60111391544342
272,2724127654,0.052785,-0.683278,0.151980,-0.712219,9.70693397521973,-2.96809816360474,0.24425233900547,4.42719411849976,4.34094333648682,1.83513736724854
273,2724144321,0.052991,-0.683109,0.151869,-0.712389,9.68369579315186,-2.95109772682190,0.22070670127869,4.89854526519775,4.75822591781616,1.85407817363739
274,2724160988,0.053170,-0.682942,0.151766,-0.712559,9.69581031799316,-2.92428398132324,0.21099632978439,4.58290672302246,4.81987524032593,1.75340735912323
275,2724177655,0.053301,-0.682763,0.151678,-0.712739,9.72255325317383,-2.95123314857483,0.19448861479759,4.34481143951416,4.97019577026367,1.60254836082458
276,2724194322,0.053422,-0.682590,0.151560,-0.712921,9.69874572753906,-2.96246981620789,0.17678280174732,4.36727333068848,4.97055482864380,1.39920914173126
277,2724210989,0.053509,-0.682404,0.151444,-0.713117,9.67646121978760,-2.95797610282898,0.17364172637463,4.65281677246094,5.00252008438110,1.26464033126831
278,2724227656,0.053676,-0.682224,0.151258,-0.713316,9.65712356567383,-2.89787507057190,0.17944410443306,5.07026481628418,4.97460079193115,1.31644165515900
279,2724244323,0.053881,-0.682077,0.151039,-0.713487,9.64476394653320,-2.87129139900208,0.16093726456165,4.89846849441528,4.77518129348755,1.30814337730408
280,2724260990,0.053942,-0.681929,0.150948,-0.713643,9.62319374084473,-2.84644913673401,0.16368372738361,4.22585248947144,4.70008468627930,1.22517085075378
281,2724277657,0.053901,-0.681799,0.150962,-0.713768,9.61813354492188,-2.83770442008972,0.14640477299690,3.40548992156982,4.55161952972412,1.21602690219879
282,2724294324,0.053866,-0.681707,0.150957,-0.713859,9.61552047729492,-2.85575032234192,0.16451515257359,2.83200907707214,4.39483213424683,1.10883784294128
283,2724310991,0.053799,-0.681632,0.150979,-0.713931,9.60708808898926,-2.88407802581787,0.20120343565941,2.59554004669189,4.23686599731445,1.07727026939392
284,2724327658,0.053787,-0.681596,0.150949,-0.713973,9.60717678070068,-2.90055203437805,0.20872560143471,2.81637239456177,3.91126394271851,1.06301665306091
285,2724344325,0.053781,-0.681578,0.150908,-0.713999,9.62541103363037,-2.90670108795166,0.21090877056122,3.23680472373962,3.61936902999878,1.03990113735199
286,2724360992,0.053768,-0.681577,0.150877,-0.714007,9.64717864990234,-2.87682366371155,0.25107479095459,3.36978602409363,3.38991737365723,1.04503655433655
287,2724377659,0.053770,-0.681577,0.150847,-0.714013,9.64241504669189,-2.88466024398804,0.23064273595810,3.25555324554443,3.41691303253174,1.11978721618652
288,2724394326,0.053780,-0.681599,0.150837,-0.713994,9.67755889892578,-2.88699388504028,0.24695564806461,2.95674300193787,3.25689864158630,1.23428905010223
289,2724410993,0.053714,-0.681615,0.150888,-0.713973,9.67157268524170,-2.89206814765930,0.26216685771942,2.51252913475037,3.30475568771362,1.15472304821014
290,2724427660,0.053617,-0.681644,0.150971,-0.713935,9.67994976043701,-2.90139746665955,0.25014340877533,2.18353414535522,3.20863175392151,1.15686166286469
291,2724444327,0.053506,-0.681694,0.151056,-0.713878,9.68413925170898,-2.92916178703308,0.23938195407391,2.08351659774780,3.03758978843689,1.06894612312317
292,2724460994,0.053395,-0.681742,0.151139,-0.713823,9.68848419189453,-2.94049119949341,0.24802549183369,2.09418416023254,3.04990959167480,1.06945860385895
293,2724477661,0.053319,-0.681767,0.151181,-0.713795,9.65604400634766,-2.96471166610718,0.28981560468674,2.49415206909180,3.24048066139221,1.06370842456818
294,2724494328,0.053268,-0.681792,0.151186,-0.713774,9.63430118560791,-2.92886328697205,0.28033193945885,2.80566644668579,3.23734283447266,1.00765478610992
295,2724510995,0.053222,-0.681792,0.151187,-0.713777,9.61144733428955,-2.91952037811279,0.29317960143089,2.87856030464172,3.45905923843384,1.02991223335266
296,2724527662,0.053160,-0.681806,0.151177,-0.713771,9.61221408843994,-2.91257095336914,0.28281658887863,2.84284329414368,3.36807036399841,0.89069449901581
297,2724544329,0.053108,-0.681830,0.151141,-0.713760,9.66164588928223,-2.92767834663391,0.23861733078957,3.00661110877991,3.27112650871277,0.80608296394348
298,2724560996,0.053078,-0.681816,0.151075,-0.713789,9.74881267547607,-2.93646287918091,0.20344774425030,3.31724143028259,3.60725378990173,0.80078101158142
299,2724577663,0.053040,-0.681812,0.151000,-0.713812,9.73858737945557,-2.93882513046265,0.23550224304199,3.31062054634094,3.53908586502075,0.70875459909439
300,2724594330,0.052934,-0.681836,0.150991,-0.713799,9.69642448425293,-2.86269378662109,0.27184292674065,2.62056326866150,3.32748651504517,0.67395973205566
301,2724610997,0.052812,-0.681879,0.150996,-0.713766,9.65857696533203,-2.91265392303467,0.25011080503464,2.44719147682190,3.16461610794067,0.64428758621216
302,2724627664,0.052748,-0.681905,0.150932,-0.713758,9.61958408355713,-2.93175959587097,0.25787672400475,3.09451341629028,3.27755498886108,0.61446142196655
303,2724644331,0.052769,-0.681940,0.150812,-0.713749,9.65764522552490,-2.90818047523499,0.26314118504524,3.76110982894897,3.12065124511719,0.75442212820053
304,2724660998,0.052843,-0.681958,0.150659,-0.713759,9.66032791137695,-2.88343358039856,0.22481425106525,4.19806289672852,3.22664999961853,0.88336932659149
305,2724677665,0.052912,-0.681967,0.150570,-0.713764,9.66227626800537,-2.84572553634644,0.21630394458771,3.85644102096558,3.27523708343506,1.16451990604401
306,2724694332,0.052905,-0.681994,0.150569,-0.713739,9.67133903503418,-2.83029127120972,0.23720665276051,3.03172421455383,3.15941643714905,1.19243776798248
307,2724710999,0.052801,-0.682035,0.150696,-0.713680,9.68724060058594,-2.84305191040039,0.21275556087494,1.91230845451355,3.07489466667175,1.31446957588196
308,2724727666,0.052649,-0.682081,0.150882,-0.713609,9.69792842864990,-2.89648914337158,0.21697039902210,1.37399315834045,3.06567335128784,1.35927867889404
309,2724744333,0.052518,-0.682141,0.151048,-0.713525,9.69292068481445,-2.92887616157532,0.21662709116936,1.56095325946808,2.90787386894226,1.35688400268555
310,2724761000,0.052432,-0.682228,0.151161,-0.713425,9.69153022766113,-2.92424821853638,0.22195339202881,2.00625514984131,2.63055229187012,1.30362224578857
311,2724777667,0.052406,-0.682323,0.151202,-0.713327,9.69282627105713,-2.94032859802246,0.22782902419567,2.63707113265991,2.51747274398804,1.25591897964478
312,2724794334,0.052394,-0.682426,0.151174,-0.713235,9.69984340667725,-2.92915868759155,0.21767944097519,3.04455637931824,2.46935939788818,0.98795878887177
313,2724811001,0.052390,-0.682527,0.151137,-0.713147,9.64664554595947,-2.90748929977417,0.23087111115456,3.13250994682312,2.47914266586304,0.98891907930374
314,2724827668,0.052397,-0.682593,0.151112,-0.713088,9.66831874847412,-2.92208027839661,0.22573098540306,3.16519188880920,2.78420305252075,1.11800730228424
315,2724844335,0.052384,-0.682623,0.151098,-0.713064,9.71592903137207,-2.93219494819641,0.23759552836418,3.06922149658203,3.15250086784363,1.10536742210388
316,2724861002,0.052321,-0.682673,0.151106,-0.713019,9.71642589569092,-2.91373443603516,0.23490491509438,2.52584719657898,3.05960345268250,0.94183015823364
317,2724877669,0.052264,-0.682722,0.151108,-0.712976,9.70872497558594,-2.90476536750793,0.23089854419231,2.34648227691650,3.14573979377747,0.93978130817413
318,2724894336,0.052179,-0.682773,0.151113,-0.712932,9.70570182800293,-2.91854429244995,0.24322289228439,2.45883226394653,3.07734060287476,0.81851798295975
319,2724911003,0.052157,-0.682844,0.151071,-0.712874,9.68391418457031,-2.92406630516052,0.23539714515209,2.64661169052124,2.93294906616211,0.88466268777847
320,2724927670,0.052106,-0.682883,0.151028,-0.712850,9.66847515106201,-2.92480969429016,0.23740191757679,3.12249541282654,3.10402870178223,0.76939266920090
321,2724944337,0.052131,-0.682906,0.150909,-0.712851,9.67240715026855,-2.90880155563354,0.22623270750046,3.73287177085876,3.24521875381470,0.79008775949478
322,2724961004,0.052161,-0.682922,0.150813,-0.712854,9.69235801696777,-2.89779114723206,0.19985738396645,3.59730362892151,3.29981160163879,0.92793518304825
323,2724977671,0.052105,-0.682942,0.150794,-0.712843,9.71045875549316,-2.87213969230652,0.20832045376301,3.05892491340637,3.25989532470703,0.87638992071152
324,2724994338,0.052017,-0.682973,0.150797,-0.712819,9.71432018280029,-2.86089801788330,0.18963983654976,2.60826921463013,3.23461484909058,0.81555962562561
325,2725011005,0.051859,-0.683003,0.150874,-0.712785,9.72288322448730,-2.86552834510803,0.17864453792572,2.15075016021729,3.21596956253052,0.82426798343658
326,2725027672,0.051780,-0.683036,0.150906,-0.712753,9.70418930053711,-2.88563966751099,0.18074288964272,2.13703441619873,3.29636764526367,0.98446273803711
327,2725044339,0.051678,-0.683062,0.150953,-0.712725,9.69233798980713,-2.93038105964661,0.21457731723785,2.34325456619263,3.26445364952087,0.95811986923218
328,2725061006,0.051612,-0.683076,0.150955,-0.712717,9.71110916137695,-2.90242028236389,0.20483368635178,2.95118546485901,3.31053137779236,0.93147003650665
329,2725077673,0.051581,-0.683109,0.150909,-0.712696,9.71665287017822,-2.89764857292175,0.22331771254539,3.16788101196289,3.14630246162415,0.85998475551605
330,2725094340,0.051537,-0.683143,0.150877,-0.712674,9.70038986206055,-2.87186145782471,0.20712018013000,3.13439273834229,3.12886047363281,0.85751324892044
331,2725111007,0.051472,-0.683173,0.150863,-0.712653,9.70091724395752,-2.86222600936890,0.22392965853214,2.94165730476379,3.17908692359924,0.84893298149109
332,2725127674,0.051456,-0.683205,0.150838,-0.712628,9.68134784698486,-2.87168812751770,0.21685966849327,2.78986358642578,3.22941589355469,1.02449524402618
333,2725144341,0.051371,-0.683212,0.150894,-0.712616,9.68225669860840,-2.86626100540161,0.20723687112331,2.67036724090576,3.33680987358093,1.10589241981506
334,2725161008,0.051395,-0.683215,0.150882,-0.712615,9.70176982879639,-2.88787174224854,0.20694042742252,2.84059000015259,3.47800016403198,1.30225229263306
335,2725177675,0.051292,-0.683194,0.150968,-0.712624,9.72283840179443,-2.90828990936279,0.21116103231907,2.92491936683655,3.46340107917786,1.18571448326111
336,2725194342,0.051303,-0.683196,0.150955,-0.712624,9.70753860473633,-2.87748479843140,0.19750376045704,3.02808761596680,3.43016815185547,1.23755455017090
337,2725211009,0.051292,-0.683198,0.150945,-0.712625,9.68807315826416,-2.87947916984558,0.21180084347725,3.00531816482544,3.43127012252808,1.15349376201630
338,2725227676,0.051257,-0.683207,0.150939,-0.712620,9.68829631805420,-2.88696289062500,0.19587945938110,2.91002559661865,3.37412810325623,1.03936350345612
339,2725244343,0.051187,-0.683199,0.150960,-0.712628,9.70089626312256,-2.89444136619568,0.18783313035965,2.97710537910461,3.46610283851624,1.02457213401794
340,2725261010,0.051220,-0.683216,0.150862,-0.712631,9.68940353393555,-2.88698172569275,0.19946444034576,3.09348964691162,3.45882916450500,0.92136585712433
341,2725277677,0.051164,-0.683210,0.150877,-0.712637,9.70286750793457,-2.86272096633911,0.20095053315163,3.14086031913757,3.40496563911438,1.06099343299866
342,2725294344,0.051127,-0.683206,0.150895,-0.712640,9.69556522369385,-2.86295580863953,0.21585690975189,2.97810435295105,3.43764758110046,1.16177940368652
343,2725311011,0.051105,-0.683206,0.150912,-0.712638,9.69832134246826,-2.87269330024719,0.20979608595371,2.90522289276123,3.41910362243652,1.22811615467072
344,2725327678,0.051074,-0.683207,0.150953,-0.712630,9.70667839050293,-2.85653567314148,0.19593130052090,2.74213409423828,3.40237855911255,1.29469645023346
345,2725344345,0.051030,-0.683219,0.150996,-0.712613,9.68987178802490,-2.87430477142334,0.19435411691666,2.65596008300781,3.32259464263916,1.23001158237457
346,2725361012,0.050989,-0.683222,0.151054,-0.712600,9.70415496826172,-2.88036346435547,0.19785912334919,2.60894823074341,3.38950800895691,1.32453513145447
347,2725377679,0.051015,-0.683235,0.151000,-0.712597,9.68306827545166,-2.87306475639343,0.20182467997074,2.84754347801208,3.46539855003357,1.10251164436340
348,2725394346,0.050978,-0.683237,0.151009,-0.712597,9.67523193359375,-2.87482523918152,0.19357310235500,3.04578566551208,3.38163232803345,1.11842989921570
349,2725411013,0.050887,-0.683228,0.151086,-0.712595,9.68892669677734,-2.87629866600037,0.20555931329727,3.06046199798584,3.32025146484375,1.19004297256470
350,2725427680,0.050888,-0.683238,0.151077,-0.712588,9.69224357604980,-2.87885022163391,0.20425075292587,3.15729093551636,3.30836725234985,1.21032822132111
351,2725444347,0.050899,-0.683261,0.151055,-0.712570,9.69310379028320,-2.88127732276917,0.21130473911762,2.92611026763916,3.27494263648987,1.18166768550873
352,2725461014,0.050886,-0.683280,0.151062,-0.712551,9.68555450439453,-2.86409568786621,0.21912062168121,2.77505946159363,3.29522752761841,1.20007026195526
353,2725477681,0.050964,-0.683325,0.150966,-0.712522,9.68805980682373,-2.87703943252563,0.20310084521770,2.84637784957886,3.24304175376892,1.12745821475983
354,2725494348,0.050956,-0.683370,0.150944,-0.712485,9.67852592468262,-2.87799334526062,0.17381083965302,2.73010897636414,3.12473654747009,1.07225000858307
355,2725511015,0.050877,-0.683389,0.151002,-0.712459,9.69169998168945,-2.87696099281311,0.18825896084309,2.62192106246948,3.22197556495667,1.13565433025360
356,2725527682,0.050814,-0.683403,0.151054,-0.712439,9.68155384063721,-2.88968729972839,0.20086760818958,2.66410517692566,3.27667117118835,1.18421602249146
357,2725544349,0.050821,-0.683429,0.151034,-0.712418,9.69117736816406,-2.87048244476318,0.19156764447689,2.85515022277832,3.26638746261597,1.16408443450928
358,2725561016,0.050802,-0.683440,0.151039,-0.712408,9.71037960052490,-2.88414001464844,0.19594807922840,2.96399164199829,3.31701159477234,1.17799222469330
359,2725577683,0.050827,-0.683472,0.150994,-0.712385,9.71580982208252,-2.86707687377930,0.18991041183472,3.01832842826843,3.21284413337708,1.12779128551483
360,2725594350,0.050796,-0.683481,0.150993,-0.712378,9.71794033050537,-2.86398339271545,0.21258156001568,2.92052650451660,3.35833740234375,1.08948743343353
361,2725611017,0.050747,-0.683500,0.151031,-0.712356,9.69310665130615,-2.88016986846924,0.21857012808323,2.85358786582947,3.20088315010071,1.18260252475739
362,2725627684,0.050686,-0.683516,0.151092,-0.712332,9.68720054626465,-2.88011121749878,0.20167626440525,2.74004697799683,3.22070765495300,1.23907840251923
363,2725644351,0.050675,-0.683543,0.151112,-0.712302,9.65062046051025,-2.86323904991150,0.20533733069897,2.88302922248840,3.15214180946350,1.27653670310974
364,2725661018,0.050631,-0.683558,0.151150,-0.712284,9.67782783508301,-2.87434458732605,0.18595013022423,2.84420084953308,3.25169897079468,1.20708811283112
365,2725677685,0.050582,-0.683568,0.151195,-0.712267,9.62853527069092,-2.84467816352844,0.21410118043423,2.92138481140137,3.24480915069580,1.22889745235443
366,2725694352,0.050555,-0.683580,0.151222,-0.712252,9.67145919799805,-2.84662032127380,0.21015666425228,2.81957435607910,3.31194019317627,1.23824620246887
367,2725711019,0.050595,-0.683574,0.151234,-0.712252,9.76491260528564,-2.88613867759705,0.15858839452267,2.88874149322510,3.49582648277283,1.50483584403992
368,2725727686,0.050593,-0.683570,0.151233,-0.712257,9.77308273315430,-2.91965723037720,0.18601374328136,3.03277468681335,3.46227407455444,1.24020564556122
369,2725744353,0.050502,-0.683620,0.151274,-0.712206,9.70578002929688,-2.84182906150818,0.21172760426998,2.40165209770203,3.02144098281860,0.96443349123001
370,2725761020,0.050381,-0.683649,0.151343,-0.712173,9.68357563018799,-2.89384841918945,0.19766405224800,2.25642800331116,3.21890234947205,0.97072142362595
371,2725777687,0.050332,-0.683665,0.151311,-0.712167,9.65553379058838,-2.91590929031372,0.20520256459713,2.94309163093567,3.35347127914429,0.84596186876297
372,2725794354,0.050389,-0.683681,0.151209,-0.712170,9.66494083404541,-2.87983584403992,0.21389479935169,3.58029699325562,3.32186460494995,1.03160274028778
373,2725811021,0.050473,-0.683659,0.151134,-0.712201,9.70495128631592,-2.86184263229370,0.19443263113499,4.17492151260376,3.46509075164795,1.32663547992706
374,2725827688,0.050544,-0.683635,0.151059,-0.712235,9.71603870391846,-2.83371949195862,0.20470120012760,3.93001317977905,3.54776883125305,1.26503694057465
375,2725844355,0.050542,-0.683634,0.151068,-0.712234,9.72038078308105,-2.79587078094482,0.21184971928596,3.09144067764282,3.38725447654724,1.28671824932098
376,2725861022,0.050453,-0.683646,0.151188,-0.712203,9.71273708343506,-2.82023811340332,0.18408372998238,2.05525255203247,3.33143091201782,1.38056290149689
377,2725877689,0.050330,-0.683647,0.151386,-0.712169,9.70225811004639,-2.86996698379517,0.19523257017136,1.55049061775208,3.41436553001404,1.59076642990112
378,2725894356,0.050259,-0.683654,0.151542,-0.712134,9.67911148071289,-2.90370202064514,0.18603321909904,1.95965325832367,3.33047032356262,1.64441192150116
379,2725911023,0.050252,-0.683671,0.151613,-0.712103,9.70295619964600,-2.91194105148315,0.18473251163960,2.68203401565552,3.20507097244263,1.54513740539551
380,2725927690,0.050284,-0.683697,0.151611,-0.712076,9.70167160034180,-2.90837264060974,0.18157789111137,3.21589231491089,3.10997104644775,1.38542950153351
381,2725944357,0.050321,-0.683732,0.151573,-0.712049,9.71041774749756,-2.88865923881531,0.21682500839233,3.41441655158997,3.04874420166016,1.22728383541107
382,2725961024,0.050362,-0.683771,0.151531,-0.712017,9.66579437255859,-2.88294100761414,0.19439223408699,3.43244862556458,3.00704669952393,1.22326290607452
383,2725977691,0.050405,-0.683784,0.151522,-0.712004,9.64447975158691,-2.84985518455505,0.18358482420444,3.32255625724792,3.22635507583618,1.41747093200684
384,2725994358,0.050448,-0.683772,0.151532,-0.712010,9.70502758026123,-2.87371182441711,0.16423209011555,3.26056051254272,3.44510006904602,1.51848721504211
385,2726011025,0.050462,-0.683761,0.151545,-0.712017,9.71245288848877,-2.87079501152039,0.17284490168095,3.11395382881165,3.47666811943054,1.39477813243866
386,2726027692,0.050397,-0.683758,0.151603,-0.712011,9.72609329223633,-2.86725068092346,0.20361499488354,2.50003004074097,3.47309517860413,1.21382427215576
387,2726044359,0.050311,-0.683767,0.151660,-0.711997,9.72283744812012,-2.88107657432556,0.16989937424660,2.39567112922668,3.40140533447266,1.09198486804962
388,2726061026,0.050231,-0.683796,0.151739,-0.711957,9.70170307159424,-2.89649081230164,0.18395562469959,2.27815961837769,3.17926573753357,1.21936929225922
389,2726077693,0.050205,-0.683829,0.151759,-0.711924,9.69144916534424,-2.89890289306641,0.17849743366241,2.65000510215759,3.17250418663025,1.19181013107300
390,2726094360,0.050249,-0.683829,0.151709,-0.711931,9.67869186401367,-2.90243029594421,0.18537634611130,3.56679964065552,3.36730194091797,1.22798824310303
391,2726111027,0.050280,-0.683820,0.151653,-0.711950,9.68316268920898,-2.87114214897156,0.18952421844006,3.73558664321899,3.42072987556458,1.15246903896332
392,2726127694,0.050299,-0.683807,0.151617,-0.711968,9.70687580108643,-2.85260748863220,0.17466877400875,3.51685476303101,3.47050857543945,1.18804526329041
393,2726144361,0.050295,-0.683795,0.151613,-0.711981,9.70927906036377,-2.84136962890625,0.15876485407352,2.76606965065002,3.62734746932983,1.21126306056976
394,2726161028,0.050198,-0.683798,0.151705,-0.711966,9.72459506988525,-2.87300539016724,0.16200695931911,2.14293789863586,3.45891785621643,1.21635985374451
395,2726177695,0.050072,-0.683809,0.151814,-0.711940,9.72069549560547,-2.88457846641541,0.15513385832310,2.02688646316528,3.36622571945190,1.14324843883514
396,2726194362,0.050001,-0.683823,0.151883,-0.711918,9.71208381652832,-2.89556837081909,0.21285012364388,2.41447067260742,3.31532073020935,1.22401809692383
397,2726211029,0.050026,-0.683834,0.151860,-0.711910,9.72883605957031,-2.91688776016235,0.20228855311871,3.23706150054932,3.30268096923828,1.25833916664124
398,2726227696,0.050098,-0.683837,0.151797,-0.711915,9.71623039245605,-2.88997030258179,0.20059548318386,3.70392918586731,3.32098102569580,1.30359673500061
399,2726244363,0.050115,-0.683828,0.151768,-0.711930,9.71421146392822,-2.86989283561707,0.18368394672871,3.85754179954529,3.32532286643982,1.21798646450043
400,2726261030,0.050145,-0.683817,0.151737,-0.711944,9.68931007385254,-2.84313654899597,0.17719262838364,3.42809343338013,3.46870231628418,1.25803184509277
401,2726277697,0.050053,-0.683778,0.151832,-0.711968,9.67820262908936,-2.84285306930542,0.18213604390621,2.84052515029907,3.65047574043274,1.29335176944733
402,2726294364,0.050041,-0.683735,0.151878,-0.712000,9.69033718109131,-2.86799478530884,0.17327383160591,2.71520233154297,3.83036661148071,1.43843472003937
403,2726311031,0.049992,-0.683682,0.151979,-0.712033,9.67460918426514,-2.87067532539368,0.18039138615131,2.82102131843567,3.78030657768250,1.54045021533966
404,2726327698,0.049978,-0.683638,0.152029,-0.712066,9.67056465148926,-2.87592649459839,0.17544808983803,2.95218396186829,3.76369690895081,1.45950138568878
405,2726344365,0.049951,-0.683605,0.152102,-0.712084,9.68343925476074,-2.89603185653687,0.15369558334351,3.33184099197388,3.49239468574524,1.50647521018982
406,2726361032,0.050010,-0.683609,0.152067,-0.712083,9.68108844757080,-2.87076473236084,0.17256338894367,3.38379621505737,3.35220265388489,1.36862719058990
407,2726377699,0.050011,-0.683624,0.152081,-0.712065,9.70184993743896,-2.87695097923279,0.15331132709980,2.92765998840332,3.26722049713135,1.31508421897888
408,2726394366,0.049985,-0.683636,0.152120,-0.712048,9.69704914093018,-2.87891411781311,0.17718414962292,2.88990688323975,3.25884509086609,1.30093324184418
409,2726411033,0.049964,-0.683666,0.152149,-0.712014,9.69453334808350,-2.87288999557495,0.18311551213264,2.81345272064209,3.12667036056519,1.27217006683350
410,2726427700,0.049955,-0.683700,0.152180,-0.711976,9.67647266387939,-2.87107324600220,0.17851869761944,2.75239181518555,3.10431075096130,1.32668662071228
411,2726444367,0.049916,-0.683714,0.152250,-0.711950,9.67267704010010,-2.86893057823181,0.20368017256260,2.74977946281433,3.21222972869873,1.39035987854004
412,2726461034,0.049836,-0.683700,0.152361,-0.711945,9.68063545227051,-2.89697265625000,0.20956769585609,2.77837657928467,3.37734246253967,1.41389811038971
413,2726477701,0.049846,-0.683711,0.152370,-0.711931,9.68845748901367,-2.88645052909851,0.19620655477047,2.88072466850281,3.33582425117493,1.33087456226349
414,2726494368,0.049779,-0.683692,0.152453,-0.711937,9.70477676391602,-2.88714170455933,0.18677382171154,3.05376386642456,3.42274069786072,1.34750986099243
415,2726511035,0.049776,-0.683675,0.152467,-0.711950,9.70680904388428,-2.88943505287170,0.18318234384060,3.20174098014832,3.49735045433044,1.32178199291229
416,2726527702,0.049745,-0.683659,0.152515,-0.711957,9.70064926147461,-2.88631415367126,0.19093891978264,3.05288028717041,3.46044230461121,1.34542226791382
417,2726544369,0.049690,-0.683652,0.152586,-0.711953,9.71275520324707,-2.87509894371033,0.17185243964195,2.82631063461304,3.39861345291138,1.33374297618866
418,2726561036,0.049701,-0.683661,0.152584,-0.711944,9.68933868408203,-2.89118552207947,0.17292103171349,2.76440453529358,3.41521072387695,1.28785789012909
419,2726577703,0.049636,-0.683670,0.152643,-0.711927,9.67601680755615,-2.87519168853760,0.17840076982975,2.69630002975464,3.29918432235718,1.20829188823700
420,2726594370,0.049638,-0.683685,0.152621,-0.711917,9.70485115051270,-2.89106917381287,0.18877366185188,2.94178557395935,3.34573626518250,1.14634764194489
421,2726611037,0.049625,-0.683693,0.152630,-0.711909,9.71179866790771,-2.87911415100098,0.19517347216606,2.97796344757080,3.34369993209839,1.22198200225830
422,2726627704,0.049621,-0.683692,0.152627,-0.711911,9.70087337493896,-2.88065505027771,0.21235610544682,3.16004371643066,3.39270973205566,1.22237896919250
423,2726644371,0.049622,-0.683699,0.152631,-0.711903,9.69552135467529,-2.87752103805542,0.19099739193916,3.18236589431763,3.29607319831848,1.27797162532806
424,2726661038,0.049624,-0.683708,0.152639,-0.711893,9.70551681518555,-2.88328814506531,0.18105188012123,3.06831192970276,3.30878973007202,1.29431235790253
425,2726677705,0.049600,-0.683712,0.152664,-0.711885,9.70149517059326,-2.90283989906311,0.16951385140419,2.94201588630676,3.34851527214050,1.25385701656342
426,2726694372,0.049582,-0.683711,0.152694,-0.711881,9.68353939056396,-2.88287711143494,0.19978034496307,2.78351163864136,3.43397188186646,1.31057643890381
427,2726711039,0.049618,-0.683700,0.152645,-0.711899,9.68708992004395,-2.89141654968262,0.18914839625359,2.78228235244751,3.71078085899353,1.18530464172363
428,2726727706,0.049625,-0.683696,0.152632,-0.711905,9.64292240142822,-2.86848545074463,0.18272976577282,3.05191993713379,3.48185467720032,1.22862851619720
429,2726744373,0.049631,-0.683673,0.152647,-0.711924,9.66529273986816,-2.86331200599670,0.17538085579872,3.29859542846680,3.53520584106445,1.37978184223175
430,2726761040,0.049690,-0.683652,0.152610,-0.711948,9.76120662689209,-2.89877128601074,0.14002716541290,3.49471259117126,3.56808018684387,1.37796342372894
431,2726777707,0.049762,-0.683644,0.152530,-0.711968,9.76694583892822,-2.87807631492615,0.15375176072121,3.44403743743896,3.55063748359680,1.22371089458466
432,2726794374,0.049638,-0.683660,0.152609,-0.711944,9.70105552673340,-2.82720971107483,0.19788330793381,2.41237044334412,3.26697635650635,1.01401948928833
433,2726811041,0.049516,-0.683689,0.152703,-0.711904,9.68103599548340,-2.88030481338501,0.17133322358131,1.86092948913574,3.27662038803101,1.07875585556030
434,2726827708,0.049420,-0.683692,0.152766,-0.711895,9.64558696746826,-2.94262194633484,0.19653812050819,2.43922567367554,3.42718434333801,1.08375012874603
435,2726844375,0.049464,-0.683710,0.152702,-0.711888,9.64984035491943,-2.91319799423218,0.19468945264816,3.54199242591858,3.23273229598999,1.15284037590027
436,2726861042,0.049580,-0.683698,0.152578,-0.711918,9.67668342590332,-2.88043451309204,0.18654513359070,4.43569707870483,3.39119863510132,1.23749041557312
437,2726877709,0.049780,-0.683685,0.152404,-0.711954,9.72907543182373,-2.81765079498291,0.19856365025043,4.51636505126953,3.48792481422424,1.41442298889160
438,2726894376,0.049859,-0.683689,0.152392,-0.711947,9.73309516906738,-2.79584956169128,0.16586120426655,3.45994257926941,3.27664542198181,1.57817780971527
439,2726911043,0.049830,-0.683705,0.152502,-0.711911,9.70909309387207,-2.80786347389221,0.18800756335258,2.25111269950867,3.25612950325012,1.62246191501617
440,2726927710,0.049799,-0.683722,0.152652,-0.711864,9.68142223358154,-2.85325455665588,0.15791319310665,1.62477993965149,3.34519767761230,1.79214608669281
441,2726944377,0.049721,-0.683724,0.152845,-0.711826,9.68225669860840,-2.91224431991577,0.18910071253777,1.69202601909637,3.37485766410828,1.79188990592957
442,2726961044,0.049707,-0.683740,0.152986,-0.711782,9.69107341766357,-2.92499089241028,0.17715169489384,2.28138732910156,3.18225002288818,1.84866070747375
443,2726977711,0.049744,-0.683764,0.153049,-0.711742,9.68553161621094,-2.93023157119751,0.16720288991928,2.90962862968445,3.07390832901001,1.71451425552368
444,2726994378,0.049826,-0.683796,0.153030,-0.711710,9.72243118286133,-2.92046618461609,0.20587925612926,3.36387014389038,3.05709385871887,1.54349827766418
445,2727011045,0.049941,-0.683849,0.152942,-0.711670,9.66568660736084,-2.91221737861633,0.18523517251015,3.51586818695068,2.94517898559570,1.34827816486359
446,2727027712,0.049985,-0.683855,0.152944,-0.711661,9.64444637298584,-2.88852477073669,0.18753939867020,3.56208610534668,3.19692587852478,1.47854435443878
447,2727044379,0.050059,-0.683842,0.152920,-0.711673,9.69196701049805,-2.92487668991089,0.18773761391640,3.55761742591858,3.44411444664001,1.51609289646149
448,2727061046,0.050091,-0.683827,0.152907,-0.711688,9.72059154510498,-2.90239191055298,0.19928425550461,3.40371036529541,3.48013854026794,1.35683274269104
449,2727077713,0.050052,-0.683830,0.152932,-0.711683,9.70164108276367,-2.87694120407104,0.18686912953854,2.61070227622986,3.46182513237000,1.18022024631500
450,2727094380,0.049961,-0.683818,0.153006,-0.711684,9.70578670501709,-2.89419126510620,0.18372362852097,2.33129382133484,3.57946467399597,1.16808009147644
451,2727111047,0.049929,-0.683843,0.153017,-0.711660,9.68286323547363,-2.90866684913635,0.18784287571907,2.26883697509766,3.38041520118713,1.11693131923676
452,2727127714,0.049984,-0.683871,0.152918,-0.711651,9.66305923461914,-2.91405916213989,0.16967858374119,2.87891888618469,3.41369891166687,1.01540267467499
453,2727144381,0.049988,-0.683847,0.152852,-0.711688,9.64720153808594,-2.93112778663635,0.16630330681801,3.77884697914124,3.57612204551697,0.98400169610977
454,2727161048,0.050079,-0.683825,0.152713,-0.711732,9.65178680419922,-2.86322522163391,0.17476290464401,4.26112127304077,3.56974458694458,1.04873764514923
455,2727177715,0.050126,-0.683805,0.152624,-0.711768,9.67441272735596,-2.84264492988586,0.16525392234325,3.79393267631531,3.58616280555725,1.07514452934265
456,2727194382,0.050100,-0.683793,0.152599,-0.711787,9.70132732391357,-2.85239100456238,0.14747007191181,3.11995959281921,3.56390500068665,1.01519787311554
457,2727211049,0.050009,-0.683799,0.152638,-0.711778,9.71663188934326,-2.85705947875977,0.12926667928696,2.46771979331970,3.43850517272949,0.98884236812592
458,2727227716,0.049891,-0.683816,0.152737,-0.711749,9.73416328430176,-2.88194775581360,0.16819021105766,2.02495312690735,3.33540153503418,1.13227355480194
459,2727244383,0.049952,-0.683872,0.152676,-0.711704,9.71859073638916,-2.90802049636841,0.18051069974899,2.22228574752808,3.25041818618774,1.19809806346893
460,2727261050,0.049940,-0.683899,0.152665,-0.711681,9.70280170440674,-2.91068768501282,0.19233413040638,2.80164504051208,3.25103235244751,1.12012004852295
461,2727277717,0.049951,-0.683912,0.152644,-0.711672,9.70064544677734,-2.91791939735413,0.17735190689564,3.23571705818176,3.27149796485901,1.19475579261780
462,2727294384,0.049966,-0.683926,0.152586,-0.711670,9.70185756683350,-2.89507389068604,0.20761144161224,3.43913221359253,3.28671097755432,1.04159164428711
463,2727311051,0.049973,-0.683926,0.152544,-0.711679,9.68999290466309,-2.88299083709717,0.18023164570332,3.34609436988831,3.41909074783325,1.08512043952942
464,2727327718,0.049956,-0.683917,0.152541,-0.711690,9.69518280029297,-2.86333012580872,0.19397789239883,3.04572153091431,3.51298689842224,1.16311109066010
465,2727344385,0.049938,-0.683886,0.152554,-0.711718,9.70180892944336,-2.88846731185913,0.18666985630989,2.98569798469543,3.70610642433167,1.25338304042816
466,2727361052,0.049944,-0.683844,0.152587,-0.711750,9.72146034240723,-2.87614345550537,0.17630767822266,3.01261687278748,3.76021289825439,1.46781241893768
467,2727377719,0.049989,-0.683797,0.152600,-0.711790,9.73538875579834,-2.89308428764343,0.16560481488705,3.29880070686340,3.77104783058167,1.56661355495453
468,2727394386,0.050043,-0.683755,0.152594,-0.711828,9.73647689819336,-2.89702439308167,0.17100761830807,3.43895339965820,3.73027205467224,1.52179145812988
469,2727411053,0.050102,-0.683718,0.152591,-0.711860,9.70975112915039,-2.88193321228027,0.17303203046322,3.43064212799072,3.66501116752625,1.55635583400726
470,2727427720,0.050132,-0.683689,0.152607,-0.711882,9.70705699920654,-2.88432741165161,0.16843192279339,3.19481301307678,3.62112379074097,1.49713921546936
471,2727444387,0.050141,-0.683649,0.152650,-0.711911,9.68966865539551,-2.89574527740479,0.17825213074684,2.97099637985229,3.73718762397766,1.53413677215576
472,2727461054,0.050145,-0.683609,0.152682,-0.711942,9.69081115722656,-2.90706872940063,0.15210564434528,3.00048923492432,3.74863672256470,1.45489108562469
473,2727477721,0.050158,-0.683570,0.152698,-0.711975,9.69004058837891,-2.90187215805054,0.17883422970772,3.13324046134949,3.72872281074524,1.42204284667969
474,2727494388,0.050179,-0.683528,0.152695,-0.712014,9.68418598175049,-2.90554547309875,0.19897367060184,3.18272399902344,3.79199934005737,1.37164986133575
475,2727511055,0.050207,-0.683491,0.152678,-0.712051,9.69046783447266,-2.89213204383850,0.19191811978817,3.25031590461731,3.75397658348083,1.33775150775909
476,2727527722,0.050216,-0.683451,0.152673,-0.712091,9.67626667022705,-2.89618730545044,0.20400770008564,3.18323659896851,3.78487896919250,1.29803907871246
477,2727544389,0.050182,-0.683409,0.152694,-0.712128,9.66527557373047,-2.90393948554993,0.19189795851707,3.08894276618958,3.75811314582825,1.22219955921173
478,2727561056,0.050150,-0.683364,0.152711,-0.712171,9.67729854583740,-2.89293789863586,0.19388337433338,3.16724133491516,3.78414893150330,1.21095573902130
479,2727577723,0.050119,-0.683321,0.152716,-0.712213,9.68731689453125,-2.90878534317017,0.19552661478519,3.06347131729126,3.81928896903992,1.15888500213623
480,2727594390,0.050108,-0.683283,0.152695,-0.712255,9.70030879974365,-2.89341187477112,0.17953269183636,3.04162335395813,3.83546328544617,1.12319362163544
481,2727611057,0.050071,-0.683250,0.152671,-0.712294,9.70066356658936,-2.91141414642334,0.21604460477829,3.02386069297791,3.79850435256958,0.97871243953705
482,2727627724,0.049984,-0.683204,0.152698,-0.712338,9.69349193572998,-2.90364098548889,0.21831661462784,3.23084974288940,3.74443578720093,0.99546325206757
483,2727644391,0.049983,-0.683175,0.152657,-0.712375,9.68940353393555,-2.88477420806885,0.20625169575214,3.41588902473450,3.67738199234009,1.08170127868652
484,2727661058,0.049915,-0.683129,0.152681,-0.712419,9.68287467956543,-2.88141584396362,0.19569498300552,3.34323883056641,3.72547030448914,1.07381260395050
485,2727677725,0.049890,-0.683093,0.152654,-0.712461,9.69212341308594,-2.89934778213501,0.20659843087196,3.16647243499756,3.78612065315247,1.02860617637634
486,2727694392,0.049840,-0.683065,0.152636,-0.712495,9.65622425079346,-2.87873816490173,0.19977736473083,2.99732637405396,3.74448680877686,0.94088250398636
487,2727711059,0.049751,-0.683037,0.152646,-0.712526,9.64558315277100,-2.87106490135193,0.21402949094772,2.66916394233704,3.77773284912109,0.88278025388718
488,2727727726,0.049686,-0.683013,0.152656,-0.712552,9.62267780303955,-2.87019491195679,0.20744426548481,2.77954196929932,3.70770764350891,1.00002229213715
489,2727744393,0.049664,-0.682990,0.152620,-0.712582,9.64608860015869,-2.87887239456177,0.19804039597511,3.15649628639221,3.68237614631653,0.98944413661957
490,2727761060,0.049677,-0.682977,0.152548,-0.712609,9.74629211425781,-2.89204287528992,0.18432456254959,3.65392065048218,3.51739239692688,0.98538470268250
491,2727777727,0.049680,-0.682979,0.152486,-0.712621,9.79525375366211,-2.88407063484192,0.17847365140915,3.63644003868103,3.35636496543884,0.97554934024811
492,2727794394,0.049605,-0.683017,0.152464,-0.712594,9.74790477752686,-2.83740639686584,0.21803510189056,2.94377040863037,3.11896085739136,0.75438368320465
493,2727811061,0.049449,-0.683070,0.152578,-0.712530,9.66797161102295,-2.86400008201599,0.23974686861038,1.69932568073273,3.04378747940063,0.99075043201447
494,2727827728,0.049289,-0.683085,0.152718,-0.712497,9.65569591522217,-2.93416023254395,0.22127948701382,1.69299960136414,3.36532974243164,1.12494838237762
495,2727844395,0.049219,-0.683079,0.152720,-0.712507,9.64240550994873,-2.94523262977600,0.21329380571842,2.87150430679321,3.51896786689758,0.92602735757828
496,2727861062,0.049289,-0.683060,0.152589,-0.712548,9.66294860839844,-2.91411185264587,0.24258226156235,4.01975965499878,3.60355329513550,0.98450094461441
497,2727877729,0.049388,-0.683011,0.152458,-0.712617,9.69841384887695,-2.86236190795898,0.22374913096428,4.41883134841919,3.77404403686523,1.15122687816620
498,2727894396,0.049490,-0.682989,0.152337,-0.712656,9.72500610351562,-2.84150338172913,0.22266866266727,4.11671686172485,3.56920719146729,1.19529366493225
499,2727911063,0.049489,-0.682978,0.152348,-0.712665,9.72090816497803,-2.83508181571960,0.19342860579491,3.39368271827698,3.39450240135193,1.31411063671112
500,2727927730,0.049515,-0.682985,0.152372,-0.712651,9.73063373565674,-2.84510302543640,0.17164191603661,2.68149638175964,3.40286540985107,1.48391032218933
501,2727944397,0.049437,-0.682983,0.152525,-0.712626,9.67940711975098,-2.85475325584412,0.18573655188084,2.16159677505493,3.36630296707153,1.60047364234924
502,2727961064,0.049368,-0.682998,0.152676,-0.712584,9.68307590484619,-2.88652110099792,0.19004783034325,1.97952866554260,3.24976468086243,1.62466466426849
503,2727977731,0.049306,-0.683018,0.152811,-0.712540,9.67002677917480,-2.88822603225708,0.18134012818336,2.09153294563293,3.20521140098572,1.57924056053162
504,2727994398,0.049264,-0.683047,0.152879,-0.712500,9.67378330230713,-2.91387081146240,0.20511303842068,2.51649880409241,3.13966822624207,1.35069835186005
505,2728011065,0.049272,-0.683080,0.152886,-0.712466,9.61620998382568,-2.90011692047119,0.17394946515560,3.05719614028931,3.06915736198425,1.29828226566315
506,2728027732,0.049354,-0.683100,0.152829,-0.712454,9.63309764862061,-2.88871908187866,0.18565684556961,3.73968529701233,3.14082169532776,1.37208521366119
507,2728044399,0.049486,-0.683095,0.152747,-0.712467,9.69745254516602,-2.88707590103149,0.17526641488075,4.13490152359009,3.31470584869385,1.51405632495880
508,2728061066,0.049570,-0.683099,0.152684,-0.712471,9.71081924438477,-2.85277199745178,0.18766264617443,3.87787890434265,3.26678490638733,1.36898612976074
509,2728077733,0.049541,-0.683117,0.152720,-0.712448,9.71742820739746,-2.81702208518982,0.17949867248535,2.74523353576660,3.24786996841431,1.26821303367615
510,2728094400,0.049372,-0.683149,0.152905,-0.712390,9.69470596313477,-2.84794592857361,0.18753327429295,1.77627909183502,3.07489395141602,1.28771686553955
511,2728111067,0.049279,-0.683218,0.153015,-0.712306,9.66071319580078,-2.88913774490356,0.18086230754852,1.58236551284790,2.93433165550232,1.26241159439087
512,2728127734,0.049310,-0.683287,0.152986,-0.712244,9.64347076416016,-2.93042421340942,0.20567600429058,2.10130453109741,3.08505010604858,1.19471728801727
513,2728144401,0.049363,-0.683324,0.152954,-0.712212,9.65091228485107,-2.91631841659546,0.19626559317112,3.00308942794800,3.13984870910645,1.32988846302032
514,2728161068,0.049410,-0.683337,0.152903,-0.712207,9.66458320617676,-2.88928723335266,0.18718437850475,3.68945813179016,3.20510911941528,1.23618423938751
515,2728177735,0.049461,-0.683372,0.152832,-0.712185,9.68260383605957,-2.86732029914856,0.18101131916046,3.59105396270752,3.06170344352722,1.13441205024719
516,2728194402,0.049481,-0.683404,0.152798,-0.712161,9.68627548217773,-2.85683798789978,0.17709903419018,3.17807555198669,3.14453577995300,1.16732454299927
517,2728211069,0.049430,-0.683438,0.152839,-0.712122,9.71172237396240,-2.86592078208923,0.17664438486099,2.64015698432922,3.10456657409668,1.17135834693909
518,2728227736,0.049301,-0.683467,0.152950,-0.712079,9.71882343292236,-2.88508534431458,0.19080129265785,2.18244576454163,3.14170551300049,1.13447630405426
519,2728244403,0.049195,-0.683508,0.153041,-0.712028,9.73067951202393,-2.91462302207947,0.17864842712879,2.24234104156494,3.04958963394165,1.13798522949219
520,2728261070,0.049144,-0.683558,0.153084,-0.711974,9.71530342102051,-2.90670132637024,0.19394847750664,2.45214748382568,3.00434446334839,1.17324113845825
521,2728277737,0.049089,-0.683603,0.153104,-0.711931,9.71506214141846,-2.92089033126831,0.21693985164165,2.69268846511841,3.04234027862549,1.03901755809784
522,2728294404,0.049040,-0.683630,0.153118,-0.711905,9.69131565093994,-2.90567278862000,0.22108109295368,2.95749831199646,3.14376664161682,1.06639754772186
523,2728311071,0.049043,-0.683647,0.153083,-0.711896,9.69139480590820,-2.90542125701904,0.20116540789604,3.26426196098328,3.25810241699219,1.08910334110260
524,2728327738,0.049056,-0.683637,0.153052,-0.711912,9.68113136291504,-2.87244200706482,0.18864746391773,3.44041323661804,3.46521878242493,1.18010520935059
525,2728344405,0.049090,-0.683631,0.152987,-0.711929,9.69095134735107,-2.86904907226562,0.18645168840885,3.39902281761169,3.51153945922852,1.10992622375488
526,2728361072,0.049102,-0.683607,0.152979,-0.711952,9.69036483764648,-2.85943317413330,0.17634707689285,3.24994397163391,3.59968566894531,1.28886938095093
527,2728377739,0.049094,-0.683584,0.152990,-0.711973,9.69339275360107,-2.86358118057251,0.17142760753632,3.06925940513611,3.61087822914124,1.28737103939056
528,2728394406,0.049066,-0.683580,0.153013,-0.711973,9.70793724060059,-2.87384724617004,0.19326895475388,2.85795497894287,3.45334768295288,1.23071610927582
529,2728411073,0.049075,-0.683605,0.153008,-0.711950,9.69723892211914,-2.88826107978821,0.14887937903404,2.90547943115234,3.23174691200256,1.24635255336761
530,2728427740,0.049149,-0.683655,0.152942,-0.711911,9.69333267211914,-2.87294840812683,0.16342385113239,2.93367862701416,3.10913801193237,1.25493240356445
531,2728444407,0.049158,-0.683698,0.152932,-0.711871,9.68839550018311,-2.88086438179016,0.19263392686844,3.09046673774719,2.99680113792419,1.21748685836792
532,2728461074,0.049212,-0.683752,0.152875,-0.711828,9.69497585296631,-2.87495517730713,0.18441338837147,3.14658427238464,2.98222756385803,1.19946837425232
533,2728477741,0.049233,-0.683797,0.152872,-0.711784,9.69773387908936,-2.87651133537292,0.19076359272003,3.02643489837646,2.99432945251465,1.30677270889282
534,2728494408,0.049207,-0.683825,0.152922,-0.711748,9.68585586547852,-2.87518000602722,0.17764759063721,3.00997853279114,3.03272271156311,1.35113382339478
535,2728511075,0.049155,-0.683844,0.153014,-0.711714,9.69324684143066,-2.87053346633911,0.16896674036980,2.81213331222534,3.09845781326294,1.42852258682251
536,2728527742,0.049140,-0.683859,0.153077,-0.711687,9.72047805786133,-2.88028550148010,0.16967129707336,2.67989492416382,3.22903156280518,1.47073245048523
537,2728544409,0.049090,-0.683863,0.153170,-0.711667,9.71798133850098,-2.88500142097473,0.16452880203724,2.63454794883728,3.30323171615601,1.45149743556976
538,2728561076,0.049091,-0.683882,0.153214,-0.711639,9.70022964477539,-2.90103816986084,0.15748068690300,2.83623552322388,3.18733429908752,1.45280361175537
539,2728577743,0.049151,-0.683908,0.153185,-0.711616,9.69003582000732,-2.89258575439453,0.17713211476803,3.17300415039062,3.18413257598877,1.38938665390015
540,2728594410,0.049115,-0.683922,0.153224,-0.711596,9.70715332031250,-2.89181637763977,0.17512023448944,3.17507886886597,3.15195059776306,1.26113116741180
541,2728611077,0.049119,-0.683937,0.153243,-0.711578,9.69594192504883,-2.86990284919739,0.15982304513454,2.93150210380554,3.26312279701233,1.35201776027679
542,2728627744,0.049052,-0.683943,0.153309,-0.711562,9.69620990753174,-2.89153838157654,0.19178909063339,2.75258398056030,3.28696751594543,1.23878383636475
543,2728644411,0.049001,-0.683952,0.153360,-0.711547,9.66874790191650,-2.89346790313721,0.14494873583317,2.76097249984741,3.30606174468994,1.24376547336578
544,2728661078,0.048970,-0.683953,0.153372,-0.711544,9.67234325408936,-2.88367390632629,0.16885527968407,2.83546710014343,3.43228125572205,1.15798866748810
545,2728677745,0.048975,-0.683970,0.153370,-0.711529,9.65032291412354,-2.85694575309753,0.17624625563622,3.10843443870544,3.23931550979614,1.25744283199310
546,2728694412,0.049028,-0.683972,0.153332,-0.711531,9.68016719818115,-2.85927271842957,0.15905581414700,3.29956865310669,3.39765238761902,1.32607185840607
547,2728711079,0.049045,-0.683960,0.153335,-0.711541,9.77033805847168,-2.88541054725647,0.13761806488037,3.21562314033508,3.48310971260071,1.35897147655487
548,2728727746,0.049010,-0.683966,0.153360,-0.711532,9.76506805419922,-2.89714407920837,0.16311448812485,2.83139443397522,3.35801720619202,1.20105648040771
549,2728744413,0.048907,-0.683998,0.153437,-0.711491,9.71914291381836,-2.84610962867737,0.19833379983902,2.02386474609375,3.23214387893677,1.09035825729370
550,2728761080,0.048729,-0.684017,0.153606,-0.711450,9.69690513610840,-2.90765023231506,0.17638984322548,1.68434274196625,3.26997375488281,1.17144823074341
551,2728777747,0.048657,-0.684014,0.153634,-0.711451,9.67150020599365,-2.97116756439209,0.19058631360531,2.63435602188110,3.50011634826660,1.04142522811890
552,2728794414,0.048732,-0.684010,0.153513,-0.711476,9.69178104400635,-2.94110655784607,0.18907588720322,4.06459522247314,3.40979385375977,1.04648387432098
553,2728811081,0.048920,-0.683992,0.153309,-0.711524,9.68593215942383,-2.88014197349548,0.18252293765545,4.60535573959351,3.57801795005798,1.20712673664093
554,2728827748,0.049029,-0.683959,0.153186,-0.711575,9.71508502960205,-2.83481740951538,0.17357735335827,4.22143411636353,3.65995216369629,1.22070133686066
555,2728844415,0.049116,-0.683949,0.153109,-0.711596,9.70204639434814,-2.82306694984436,0.17180033028126,3.19719505310059,3.64347100257874,1.31126797199249
556,2728861082,0.049034,-0.683926,0.153224,-0.711598,9.69571876525879,-2.83774471282959,0.16595996916294,2.22671699523926,3.62920451164246,1.41963505744934
557,2728877749,0.048914,-0.683894,0.153411,-0.711597,9.67871189117432,-2.89440226554871,0.16622419655323,1.93042922019958,3.65121865272522,1.58456814289093
558,2728894416,0.048904,-0.683882,0.153510,-0.711588,9.67877483367920,-2.90864992141724,0.17187480628490,2.29085111618042,3.54067420959473,1.67800319194794
559,2728911083,0.048912,-0.683876,0.153566,-0.711581,9.69699859619141,-2.90943050384521,0.16744162142277,2.85923576354980,3.40286588668823,1.56798410415649
560,2728927750,0.048949,-0.683888,0.153555,-0.711569,9.71714401245117,-2.89436435699463,0.17905367910862,3.30075931549072,3.24087691307068,1.37259733676910
561,2728944417,0.048991,-0.683915,0.153509,-0.711550,9.64442729949951,-2.88548731803894,0.19846595823765,3.49267554283142,3.11811566352844,1.22150790691376
562,2728961084,0.049034,-0.683940,0.153476,-0.711530,9.62981986999512,-2.85878992080688,0.18171960115433,3.42774772644043,3.12571024894714,1.29043197631836
563,2728977751,0.049105,-0.683933,0.153441,-0.711540,9.69540691375732,-2.89707660675049,0.15265268087387,3.61205673217773,3.39113402366638,1.43852460384369
564,2728994418,0.049177,-0.683905,0.153409,-0.711569,9.72158622741699,-2.89961314201355,0.16733169555664,3.61031556129456,3.59218168258667,1.47858309745789
565,2729011085,0.049202,-0.683894,0.153399,-0.711580,9.72987461090088,-2.86046481132507,0.17713288962841,3.09225988388062,3.53592300415039,1.33246243000031
566,2729027752,0.049120,-0.683881,0.153491,-0.711578,9.72839546203613,-2.86862802505493,0.16382984817028,2.47948861122131,3.50124335289001,1.30153489112854
567,2729044419,0.049031,-0.683915,0.153560,-0.711536,9.70615768432617,-2.89460825920105,0.18896995484829,2.09139251708984,3.21413826942444,1.12091434001923
568,2729061086,0.048891,-0.683956,0.153670,-0.711483,9.69066238403320,-2.91801428794861,0.16553144156933,2.09171271324158,3.05469894409180,1.06238937377930
569,2729077753,0.048891,-0.683979,0.153650,-0.711466,9.67224216461182,-2.92826628684998,0.19113528728485,2.91701769828796,3.27594137191772,1.13859987258911
570,2729094420,0.048993,-0.683982,0.153532,-0.711481,9.67654514312744,-2.90815901756287,0.15595115721226,3.74628019332886,3.43306255340576,1.18471539020538
571,2729111087,0.049081,-0.683976,0.153436,-0.711501,9.68208980560303,-2.87042737007141,0.16713601350784,3.84860324859619,3.44913482666016,1.22946095466614
572,2729127754,0.049045,-0.683970,0.153450,-0.711506,9.70405101776123,-2.84917330741882,0.15515197813511,3.12660670280457,3.41264963150024,1.15143179893494
573,2729144421,0.049012,-0.683981,0.153462,-0.711495,9.69821834564209,-2.86405682563782,0.16956156492233,2.39924430847168,3.47620701789856,1.13025009632111
574,2729161088,0.048906,-0.683994,0.153574,-0.711466,9.71014404296875,-2.87253928184509,0.15267705917358,2.01625704765320,3.35195922851562,1.26161754131317
575,2729177755,0.048839,-0.684010,0.153646,-0.711440,9.70301437377930,-2.89165472984314,0.14471316337585,2.27568793296814,3.33305716514587,1.25198698043823
576,2729194422,0.048800,-0.684014,0.153691,-0.711429,9.71493816375732,-2.91203212738037,0.17118810117245,2.91945099830627,3.30256581306458,1.27448797225952
577,2729211089,0.048830,-0.684031,0.153657,-0.711418,9.70980548858643,-2.89180135726929,0.18416066467762,3.38754820823669,3.22682833671570,1.22833371162415
578,2729227756,0.048870,-0.684056,0.153619,-0.711399,9.71929454803467,-2.86556982994080,0.17251208424568,3.44068217277527,3.12801551818848,1.25573956966400
579,2729244423,0.048904,-0.684072,0.153606,-0.711384,9.68907260894775,-2.88399267196655,0.17657874524593,3.29866003990173,3.21060371398926,1.34561467170715
580,2729261090,0.048917,-0.684083,0.153625,-0.711370,9.68373203277588,-2.88803362846375,0.18168765306473,3.04563188552856,3.27407169342041,1.39728808403015
581,2729277757,0.048903,-0.684081,0.153645,-0.711368,9.68270492553711,-2.88386988639832,0.17683921754360,2.92723751068115,3.41916751861572,1.28235113620758
582,2729294424,0.048898,-0.684065,0.153688,-0.711374,9.69421100616455,-2.88509321212769,0.17204023897648,2.87815070152283,3.52999377250671,1.44659268856049
583,2729311091,0.048889,-0.684042,0.153713,-0.711392,9.68894767761230,-2.89490032196045,0.15294606983662,2.95976471900940,3.61100625991821,1.34606254100800
584,2729327758,0.048888,-0.684035,0.153728,-0.711394,9.70384883880615,-2.89752578735352,0.14151388406754,3.01831603050232,3.44939041137695,1.32564949989319
585,2729344425,0.048877,-0.684021,0.153741,-0.711406,9.68995189666748,-2.90484762191772,0.14830873906612,3.21829986572266,3.47338962554932,1.27412939071655
586,2729361092,0.048882,-0.684020,0.153711,-0.711414,9.70322132110596,-2.90163111686707,0.14080114662647,3.27732396125793,3.42509651184082,1.13218367099762
587,2729377759,0.048875,-0.684017,0.153684,-0.711422,9.69496440887451,-2.88793969154358,0.13596108555794,3.20307278633118,3.45092678070068,1.09404635429382
588,2729394426,0.048850,-0.684031,0.153652,-0.711417,9.69367885589600,-2.88944363594055,0.16102014482021,3.12879633903503,3.31955981254578,0.97201478481293
589,2729411093,0.048826,-0.684046,0.153628,-0.711410,9.69368553161621,-2.87366199493408,0.17697913944721,3.08300089836121,3.30881524085999,1.00551629066467
590,2729427760,0.048794,-0.684053,0.153638,-0.711404,9.69485378265381,-2.86513566970825,0.18450260162354,2.89008617401123,3.37858438491821,1.14173734188080
591,2729444427,0.048741,-0.684061,0.153660,-0.711394,9.69644451141357,-2.87108612060547,0.18580330908298,2.72329616546631,3.37342309951782,1.09180545806885
592,2729461094,0.048697,-0.684062,0.153677,-0.711393,9.69301414489746,-2.87359309196472,0.17604416608810,2.80833053588867,3.43935084342957,1.11708521842957
593,2729477761,0.048677,-0.684059,0.153702,-0.711392,9.70093727111816,-2.90108466148376,0.17151032388210,2.88451552391052,3.44503688812256,1.27798426151276
594,2729494428,0.048658,-0.684055,0.153697,-0.711398,9.68655490875244,-2.89728093147278,0.17397922277451,3.03132724761963,3.46352887153625,1.13881766796112
595,2729511095,0.048651,-0.684055,0.153692,-0.711399,9.70250892639160,-2.90143013000488,0.17236894369125,3.09117150306702,3.40614390373230,1.19809818267822
596,2729527762,0.048646,-0.684053,0.153679,-0.711405,9.70682430267334,-2.88978195190430,0.17019675672054,3.14299917221069,3.43609786033630,1.16394376754761
597,2729544429,0.048633,-0.684049,0.153684,-0.711408,9.69865417480469,-2.89321255683899,0.19557201862335,3.01266837120056,3.45502543449402,1.22104716300964
598,2729561096,0.048602,-0.684038,0.153695,-0.711419,9.71364116668701,-2.90153980255127,0.18323057889938,2.91279172897339,3.54040527343750,1.16021704673767
599,2729577763,0.048576,-0.684035,0.153692,-0.711424,9.69903087615967,-2.89516401290894,0.14909437298775,2.99749302864075,3.46168470382690,1.11617600917816
600,2729594430,0.048562,-0.684032,0.153674,-0.711432,9.67657184600830,-2.87686920166016,0.18545915186405,3.12631177902222,3.45864987373352,1.10114133358002
601,2729611097,0.048548,-0.684020,0.153647,-0.711450,9.63999462127686,-2.87691402435303,0.18684953451157,3.18693685531616,3.54793500900269,1.06550109386444
602,2729627764,0.048558,-0.684009,0.153629,-0.711464,9.64013099670410,-2.86003255844116,0.20188751816750,3.24785661697388,3.50050044059753,1.21765327453613
603,2729644431,0.048573,-0.683973,0.153629,-0.711497,9.71782875061035,-2.86708641052246,0.16905552148819,3.21261382102966,3.71377754211426,1.36046969890594
604,2729661098,0.048594,-0.683943,0.153630,-0.711525,9.76947879791260,-2.90296101570129,0.11859603226185,3.23268151283264,3.65484237670898,1.37975621223450
605,2729677765,0.048564,-0.683934,0.153626,-0.711536,9.75510787963867,-2.88020443916321,0.17464995384216,2.99214005470276,3.53045535087585,1.09285557270050
606,2729694432,0.048448,-0.683962,0.153725,-0.711496,9.69791889190674,-2.85212635993958,0.18114757537842,2.01214694976807,3.22502374649048,1.13387441635132
607,2729711099,0.048340,-0.683978,0.153798,-0.711472,9.66192913055420,-2.92643618583679,0.16534495353699,2.20070695877075,3.34436511993408,1.05853438377380
608,2729727766,0.048330,-0.683969,0.153772,-0.711487,9.64873600006104,-2.92804217338562,0.18644614517689,3.19291734695435,3.51914644241333,1.09290671348572
609,2729744433,0.048425,-0.683969,0.153643,-0.711508,9.66551589965820,-2.90032792091370,0.17902906239033,4.19748592376709,3.35422611236572,1.10411214828491
610,2729761100,0.048590,-0.683951,0.153479,-0.711550,9.70015716552734,-2.83823180198669,0.17767554521561,4.72710609436035,3.45257925987244,1.28958678245544
611,2729777767,0.048699,-0.683928,0.153399,-0.711582,9.71426677703857,-2.82147002220154,0.16260693967342,4.04104375839233,3.52031183242798,1.42350268363953
612,2729794434,0.048697,-0.683928,0.153439,-0.711573,9.69691658020020,-2.83674597740173,0.14049015939236,2.88273549079895,3.37807250022888,1.44190561771393
613,2729811101,0.048620,-0.683940,0.153591,-0.711534,9.70082950592041,-2.85565471649170,0.14437067508698,1.94760239124298,3.28193426132202,1.58855080604553
614,2729827768,0.048526,-0.683949,0.153794,-0.711488,9.67298030853271,-2.87847948074341,0.16804949939251,1.60472548007965,3.30556273460388,1.75596857070923
615,2729844435,0.048470,-0.683973,0.153945,-0.711436,9.70956325531006,-2.92324376106262,0.16560760140419,2.03089499473572,3.14806962013245,1.67870748043060
616,2729861102,0.048465,-0.684005,0.154017,-0.711390,9.70586776733398,-2.93760037422180,0.16531810164452,2.66310596466064,3.05946278572083,1.54929924011230
617,2729877769,0.048486,-0.684037,0.154007,-0.711360,9.70957374572754,-2.94518375396729,0.18487226963043,3.19960284233093,3.07220530509949,1.28863906860352
618,2729894436,0.048533,-0.684082,0.153946,-0.711327,9.65466308593750,-2.90914249420166,0.18583601713181,3.56781077384949,2.95017361640930,1.16240680217743
619,2729911103,0.048594,-0.684110,0.153896,-0.711307,9.64809226989746,-2.89100122451782,0.19554342329502,3.59898161888123,3.09065914154053,1.28966355323792
620,2729927770,0.048675,-0.684111,0.153857,-0.711308,9.70747756958008,-2.88498497009277,0.16186161339283,3.66873764991760,3.29958176612854,1.46117901802063
621,2729944437,0.048710,-0.684088,0.153832,-0.711334,9.72575473785400,-2.88880872726440,0.17344893515110,3.41683673858643,3.58931279182434,1.32860755920410
622,2729961104,0.048676,-0.684076,0.153866,-0.711340,9.71334552764893,-2.85123801231384,0.16414812207222,2.78415179252625,3.53112077713013,1.25699460506439
623,2729977771,0.048587,-0.684070,0.153951,-0.711333,9.72443580627441,-2.89814138412476,0.15432840585709,2.37643599510193,3.48144483566284,1.22888457775116
624,2729994438,0.048462,-0.684099,0.154051,-0.711292,9.68970775604248,-2.90412950515747,0.15867656469345,2.32652974128723,3.12102317810059,1.09742748737335
625,2730011105,0.048461,-0.684158,0.154031,-0.711241,9.66940402984619,-2.92144894599915,0.17194715142250,2.60788488388062,3.02007031440735,1.10426580905914
626,2730027772,0.048477,-0.684186,0.153981,-0.711223,9.67766952514648,-2.90481233596802,0.14853538572788,3.38822793960571,3.14653348922729,1.07249355316162
627,2730044439,0.048554,-0.684193,0.153871,-0.711235,9.67073345184326,-2.89377379417419,0.17142938077450,3.89834332466125,3.33668208122253,1.09873366355896
628,2730061106,0.048680,-0.684209,0.153725,-0.711242,9.69292640686035,-2.87626695632935,0.15667858719826,3.67512845993042,3.38895750045776,1.15504336357117
629,2730077773,0.048651,-0.684210,0.153709,-0.711247,9.71351051330566,-2.84592843055725,0.15484239161015,2.98645401000977,3.45984101295471,1.03321647644043
630,2730094440,0.048505,-0.684211,0.153825,-0.711231,9.72408676147461,-2.86502552032471,0.15368001163006,2.24211001396179,3.39021205902100,1.09412324428558
631,2730111107,0.048389,-0.684224,0.153918,-0.711206,9.72302913665771,-2.87806773185730,0.13340499997139,2.06282114982605,3.37403750419617,1.11640644073486
632,2730127774,0.048299,-0.684241,0.153994,-0.711180,9.71578311920166,-2.91431355476379,0.14152149856091,2.26792764663696,3.31215715408325,1.16198408603668
633,2730144441,0.048261,-0.684257,0.154009,-0.711164,9.71018981933594,-2.91984724998474,0.18181963264942,2.79483222961426,3.30065751075745,1.12789380550385
634,2730161108,0.048279,-0.684267,0.153973,-0.711161,9.70720291137695,-2.88779115676880,0.19575214385986,3.34759235382080,3.30635619163513,1.15821897983551
635,2730177775,0.048318,-0.684274,0.153907,-0.711165,9.70307159423828,-2.87817049026489,0.16106222569942,3.52490901947021,3.34099721908569,1.12499940395355
636,2730194442,0.048342,-0.684280,0.153870,-0.711166,9.70063877105713,-2.86383056640625,0.16753235459328,3.32904887199402,3.35536599159241,1.18937695026398
637,2730211109,0.048322,-0.684260,0.153891,-0.711182,9.70486640930176,-2.87265467643738,0.15942345559597,3.14991331100464,3.52914810180664,1.27538430690765
638,2730227776,0.048340,-0.684233,0.153900,-0.711204,9.69567584991455,-2.86219906806946,0.16519230604172,3.17142796516418,3.61981725692749,1.40673899650574
639,2730244443,0.048341,-0.684203,0.153936,-0.711226,9.70450496673584,-2.87673449516296,0.15999627113342,3.19291758537292,3.58988904953003,1.45782351493835
640,2730261110,0.048373,-0.684181,0.153958,-0.711240,9.70200920104980,-2.88117408752441,0.14964064955711,3.16051721572876,3.54687237739563,1.53114008903503
641,2730277777,0.048448,-0.684170,0.153932,-0.711251,9.70461273193359,-2.88543772697449,0.16016888618469,3.31054401397705,3.50847911834717,1.49794614315033
642,2730294444,0.048488,-0.684159,0.153910,-0.711263,9.68164443969727,-2.88743758201599,0.13990670442581,3.37777757644653,3.46354150772095,1.35477101802826
643,2730311111,0.048523,-0.684160,0.153879,-0.711267,9.70703125000000,-2.88965702056885,0.14943911135197,3.37148928642273,3.38085103034973,1.27653694152832
644,2730327778,0.048654,-0.684173,0.153772,-0.711268,9.68606567382812,-2.86675143241882,0.14879120886326,3.23475575447083,3.46863818168640,1.36153268814087
645,2730344445,0.048675,-0.684171,0.153766,-0.711270,9.69117641448975,-2.87759590148926,0.15230683982372,3.12893676757812,3.42291951179504,1.32480406761169
646,2730361112,0.048663,-0.684168,0.153771,-0.711274,9.68017482757568,-2.88353657722473,0.16588838398457,3.04812932014465,3.43812084197998,1.22418475151062
647,2730377779,0.048780,-0.684186,0.153667,-0.711270,9.68515586853027,-2.89160037040710,0.17175036668777,2.97212362289429,3.49030685424805,1.29431235790253
648,2730394446,0.048742,-0.684184,0.153678,-0.711272,9.69234657287598,-2.90406489372253,0.17336764931679,2.99911928176880,3.42605733871460,1.12840592861176
649,2730411113,0.048765,-0.684182,0.153656,-0.711277,9.70606040954590,-2.89964056015015,0.17869731783867,3.12883424758911,3.45736861228943,1.26134860515594
650,2730427780,0.048731,-0.684166,0.153695,-0.711287,9.70069122314453,-2.89179348945618,0.17159214615822,2.96756505966187,3.51182174682617,1.28401625156403
651,2730444447,0.048700,-0.684151,0.153727,-0.711296,9.69357013702393,-2.89647006988525,0.15719184279442,3.07383179664612,3.47801280021667,1.27049243450165
652,2730461114,0.048675,-0.684128,0.153736,-0.711318,9.71108341217041,-2.90008568763733,0.16937786340714,3.29095005989075,3.54481053352356,1.19590818881989
653,2730477781,0.048692,-0.684105,0.153700,-0.711347,9.70776748657227,-2.89315462112427,0.15640074014664,3.38927745819092,3.62285280227661,1.17951607704163
654,2730494448,0.048697,-0.684076,0.153669,-0.711382,9.70752334594727,-2.89780020713806,0.19596269726753,3.32625746726990,3.68251776695251,1.15421080589294
655,2730511115,0.048697,-0.684043,0.153654,-0.711416,9.70620155334473,-2.89467525482178,0.16474685072899,3.21281886100769,3.71745300292969,1.20605087280273
656,2730527782,0.048680,-0.684030,0.153636,-0.711433,9.72664546966553,-2.89737153053284,0.17192363739014,3.03757715225220,3.58130908012390,1.09224092960358
657,2730544449,0.048704,-0.684014,0.153583,-0.711459,9.69707679748535,-2.89419889450073,0.16375982761383,3.14632797241211,3.66292333602905,1.12307846546173
658,2730561116,0.048689,-0.683973,0.153554,-0.711506,9.66653347015381,-2.88651347160339,0.16972891986370,3.26124000549316,3.81899452209473,1.07185316085815
659,2730577783,0.048713,-0.683921,0.153484,-0.711569,9.64558219909668,-2.87533640861511,0.19734074175358,3.66681694984436,3.89309263229370,1.08207261562347
660,2730594450,0.048760,-0.683876,0.153411,-0.711625,9.66099739074707,-2.86063909530640,0.18015207350254,3.83427262306213,3.77499175071716,1.16893804073334
661,2730611117,0.048807,-0.683814,0.153343,-0.711696,9.77382278442383,-2.89662194252014,0.16129656136036,3.89756178855896,3.92369961738586,1.20496237277985
662,2730627784,0.048837,-0.683770,0.153258,-0.711754,9.79758358001709,-2.89773654937744,0.13201816380024,3.73070788383484,3.82532167434692,1.02508437633514
663,2730644451,0.048755,-0.683754,0.153250,-0.711777,9.72842979431152,-2.86241507530212,0.18535251915455,2.90747714042664,3.62317252159119,0.83131146430969
664,2730661118,0.048565,-0.683753,0.153358,-0.711768,9.69082641601562,-2.86006522178650,0.18080377578735,1.95399272441864,3.51465129852295,0.83914881944656
665,2730677785,0.048444,-0.683724,0.153389,-0.711797,9.66661834716797,-2.93134021759033,0.16748905181885,2.42661142349243,3.81018447875977,0.82342272996902
666,2730694452,0.048461,-0.683679,0.153269,-0.711865,9.65138721466064,-2.96330904960632,0.19261601567268,3.64226722717285,3.94461178779602,0.79848873615265
667,2730711119,0.048573,-0.683612,0.153072,-0.711965,9.68864250183105,-2.88895583152771,0.19676388800144,4.83470487594604,3.97413063049316,0.91318255662918
668,2730727786,0.048720,-0.683538,0.152881,-0.712067,9.70797824859619,-2.82189130783081,0.18354678153992,4.85449075698853,4.02355051040649,1.12092709541321
669,2730744453,0.048772,-0.683490,0.152787,-0.712129,9.71961688995361,-2.79525399208069,0.18032209575176,3.87889003753662,3.84207201004028,1.09566020965576
670,2730761120,0.048718,-0.683463,0.152815,-0.712152,9.71830081939697,-2.79997062683105,0.18894784152508,2.78790426254272,3.68571949005127,1.14222407341003
671,2730777787,0.048608,-0.683432,0.152934,-0.712165,9.70612812042236,-2.84692406654358,0.17841394245625,2.18197107315063,3.71916866302490,1.30501818656921
672,2730794454,0.048519,-0.683405,0.153066,-0.712168,9.69429874420166,-2.89191508293152,0.18583606183529,2.05335736274719,3.67666482925415,1.46546924114227
673,2730811121,0.048455,-0.683384,0.153165,-0.712171,9.69044303894043,-2.90737915039062,0.18080279231071,2.53427457809448,3.55652880668640,1.43167328834534
674,2730827788,0.048459,-0.683362,0.153178,-0.712189,9.70286273956299,-2.92292642593384,0.17929401993752,2.98058819770813,3.61857485771179,1.35065996646881
675,2730844455,0.048439,-0.683343,0.153147,-0.712215,9.67411804199219,-2.91721320152283,0.21248993277550,3.43977284431458,3.54720497131348,1.02098631858826
676,2730861122,0.048479,-0.683338,0.153075,-0.712233,9.63558769226074,-2.87880396842957,0.22130221128464,3.65036082267761,3.44590735435486,1.11270534992218
677,2730877789,0.048521,-0.683300,0.153025,-0.712277,9.66267108917236,-2.88238930702209,0.19561649858952,3.93737649917603,3.62285280227661,1.25595712661743
678,2730894456,0.048635,-0.683251,0.152912,-0.712341,9.70872116088867,-2.87813687324524,0.18312843143940,4.08990001678467,3.83852362632751,1.30323815345764
679,2730911123,0.048659,-0.683210,0.152856,-0.712391,9.69555187225342,-2.83692622184753,0.18449908494949,3.58562469482422,3.78034543991089,1.13601303100586
680,2730927790,0.048562,-0.683170,0.152916,-0.712423,9.72373104095459,-2.83040285110474,0.18284606933594,2.58021068572998,3.80881357192993,1.09503269195557
681,2730944457,0.048479,-0.683164,0.152970,-0.712423,9.69778823852539,-2.86465597152710,0.18699587881565,2.00112009048462,3.66821193695068,1.10505986213684
682,2730961124,0.048395,-0.683201,0.153018,-0.712382,9.68248653411865,-2.90374255180359,0.19107817113400,2.11420059204102,3.21785187721252,1.03155171871185
683,2730977791,0.048364,-0.683219,0.152995,-0.712372,9.67468261718750,-2.92212438583374,0.18230140209198,2.84861898422241,3.35000038146973,0.97700929641724
684,2730994458,0.048415,-0.683197,0.152915,-0.712407,9.66447830200195,-2.89762353897095,0.20184257626534,3.85458350181580,3.56015276908875,1.13924026489258
685,2731011125,0.048483,-0.683173,0.152781,-0.712454,9.68599891662598,-2.85046529769897,0.19348502159119,4.13204574584961,3.62356948852539,0.96739172935486
686,2731027792,0.048531,-0.683163,0.152684,-0.712481,9.70146560668945,-2.83809542655945,0.19795040786266,3.54665470123291,3.58468961715698,1.02790188789368
687,2731044459,0.048464,-0.683138,0.152714,-0.712503,9.70110034942627,-2.84492278099060,0.18781703710556,2.70508575439453,3.69577217102051,1.08240556716919
688,2731061126,0.048317,-0.683118,0.152829,-0.712508,9.71387672424316,-2.86685228347778,0.17920978367329,2.28252696990967,3.58343434333801,1.10736513137817
689,2731077793,0.048202,-0.683090,0.152910,-0.712525,9.71452140808105,-2.89737987518311,0.19668811559677,2.24915385246277,3.74051737785339,1.09218966960907
690,2731094460,0.048160,-0.683083,0.152899,-0.712537,9.71651554107666,-2.89180612564087,0.19877716898918,2.62283039093018,3.63737535476685,0.99639815092087
691,2731111127,0.048148,-0.683065,0.152862,-0.712563,9.70193386077881,-2.90445160865784,0.21728800237179,2.93953084945679,3.69960069656372,1.02352190017700
692,2731127794,0.048124,-0.683047,0.152835,-0.712588,9.69483089447021,-2.88877654075623,0.22262617945671,3.26611852645874,3.59189915657043,1.02409803867340
693,2731144461,0.048133,-0.683026,0.152760,-0.712623,9.69949626922607,-2.86861658096313,0.21129056811333,3.56209969520569,3.62952446937561,0.95105081796646
694,2731161128,0.048148,-0.682996,0.152677,-0.712668,9.69148159027100,-2.87210631370544,0.21304452419281,3.51209068298340,3.74517941474915,0.95193445682526
695,2731177795,0.048137,-0.682952,0.152640,-0.712720,9.68346118927002,-2.84472537040710,0.19054643809795,3.39644908905029,3.82720398902893,1.05908524990082
696,2731194462,0.048110,-0.682905,0.152608,-0.712773,9.69448089599609,-2.85812592506409,0.22560985386372,3.25163507461548,3.88204002380371,1.00022733211517
697,2731211129,0.048067,-0.682861,0.152614,-0.712817,9.67690849304199,-2.83888363838196,0.18765199184418,3.00658535957336,3.83885669708252,1.10727536678314
698,2731227796,0.048038,-0.682829,0.152632,-0.712846,9.68543910980225,-2.84530949592590,0.18959505856037,2.91181802749634,3.73234629631042,1.22196900844574
699,2731244463,0.047986,-0.682802,0.152680,-0.712865,9.69998741149902,-2.85675692558289,0.17072714865208,2.80220937728882,3.63750362396240,1.24772298336029
700,2731261130,0.047951,-0.682790,0.152711,-0.712872,9.68133831024170,-2.84089493751526,0.18126003444195,2.85675120353699,3.52610063552856,1.24046158790588
701,2731277797,0.047925,-0.682796,0.152706,-0.712870,9.67656135559082,-2.84958052635193,0.19850693643093,2.84239530563354,3.42795300483704,1.09459722042084
702,2731294464,0.047971,-0.682820,0.152637,-0.712858,9.67851066589355,-2.84690713882446,0.20773188769817,2.95780587196350,3.35668540000916,1.11794328689575
703,2731311131,0.047940,-0.682827,0.152646,-0.712851,9.67446422576904,-2.85228943824768,0.22302387654781,2.90079236030579,3.36508631706238,1.13797223567963
704,2731327798,0.047928,-0.682836,0.152643,-0.712844,9.66806983947754,-2.85573863983154,0.20825912058353,3.04515838623047,3.33464598655701,1.17546951770782
705,2731344465,0.047936,-0.682849,0.152657,-0.712828,9.67293739318848,-2.85499739646912,0.19986645877361,3.08657407760620,3.23882865905762,1.35010945796967
706,2731361132,0.047920,-0.682849,0.152687,-0.712822,9.70415592193604,-2.85706090927124,0.20245453715324,3.10863971710205,3.32741045951843,1.32264006137848
707,2731377799,0.047926,-0.682856,0.152708,-0.712811,9.70502376556396,-2.86407852172852,0.20758065581322,3.16099143028259,3.26821899414062,1.38226628303528
708,2731394466,0.047953,-0.682881,0.152713,-0.712785,9.72241687774658,-2.86099362373352,0.20280712842941,3.15653514862061,3.12741351127625,1.39164054393768
709,2731411133,0.047983,-0.682901,0.152715,-0.712763,9.72161006927490,-2.84410667419434,0.22883351147175,3.07128334045410,3.20281720161438,1.38924574851990
710,2731427800,0.047989,-0.682906,0.152768,-0.712746,9.72729682922363,-2.86678671836853,0.21458750963211,2.84032058715820,3.30360341072083,1.53936171531677
711,2731444467,0.047970,-0.682893,0.152864,-0.712739,9.71263694763184,-2.88468098640442,0.21235927939415,2.83329010009766,3.39765286445618,1.62909603118896
712,2731461134,0.047950,-0.682877,0.152939,-0.712740,9.69769573211670,-2.91798663139343,0.18922652304173,2.67540049552917,3.51942849159241,1.52574872970581
713,2731477801,0.047931,-0.682864,0.152974,-0.712746,9.67081546783447,-2.90379571914673,0.22823908925056,2.83585119247437,3.51769995689392,1.33658623695374
714,2731494468,0.047871,-0.682845,0.153012,-0.712760,9.66862773895264,-2.87041187286377,0.21691069006920,2.97039484977722,3.53865122795105,1.15898764133453
715,2731511135,0.047915,-0.682827,0.152946,-0.712789,9.65926647186279,-2.89342093467712,0.20831978321075,3.38347601890564,3.64309906959534,1.16510891914368
716,2731527802,0.047998,-0.682802,0.152851,-0.712827,9.66614151000977,-2.88559532165527,0.20853777229786,4.06788635253906,3.55926871299744,1.23077988624573
717,2731544469,0.048095,-0.682782,0.152745,-0.712863,9.76833724975586,-2.85499238967896,0.16631270945072,4.22402095794678,3.49977087974548,1.23752892017365
718,2731561136,0.048123,-0.682768,0.152692,-0.712886,9.77992439270020,-2.83934926986694,0.15901847183704,3.62086772918701,3.49633908271790,1.15291738510132
719,2731577803,0.047992,-0.682789,0.152790,-0.712854,9.71108436584473,-2.79893517494202,0.19457443058491,2.29251599311829,3.21794104576111,1.06755006313324
720,2731594470,0.047792,-0.682825,0.152998,-0.712788,9.66402912139893,-2.84090614318848,0.22451853752136,1.04862236976624,3.19045877456665,1.23328995704651
721,2731611137,0.047570,-0.682795,0.153224,-0.712783,9.65106296539307,-2.93745756149292,0.19784823060036,1.68016743659973,3.61512994766235,1.27758705615997
722,2731627804,0.047578,-0.682784,0.153188,-0.712801,9.65752220153809,-2.95331048965454,0.20462334156036,3.33412027359009,3.51457476615906,1.12972509860992
723,2731644471,0.047683,-0.682764,0.153037,-0.712845,9.67489147186279,-2.89102411270142,0.22393921017647,4.65572357177734,3.46397733688354,1.07039332389832
724,2731661138,0.047846,-0.682744,0.152865,-0.712890,9.72596836090088,-2.83835434913635,0.21179285645485,4.94221401214600,3.42143392562866,1.25380563735962
725,2731677805,0.047965,-0.682742,0.152746,-0.712910,9.73727035522461,-2.80393266677856,0.21371947228909,4.06814289093018,3.39983034133911,1.27225995063782
726,2731694472,0.047949,-0.682751,0.152768,-0.712897,9.72843647003174,-2.81510806083679,0.19695119559765,2.99998998641968,3.28135848045349,1.27502584457397
727,2731711139,0.047868,-0.682753,0.152867,-0.712880,9.70802688598633,-2.82713913917542,0.19476486742496,2.06932663917542,3.47414469718933,1.31938695907593
728,2731727806,0.047769,-0.682757,0.153028,-0.712848,9.68872547149658,-2.85717225074768,0.19488738477230,1.72267174720764,3.40881967544556,1.52900123596191
729,2731744473,0.047681,-0.682769,0.153177,-0.712810,9.69608116149902,-2.90979099273682,0.21448315680027,1.91087377071381,3.30328273773193,1.51850008964539
730,2731761140,0.047633,-0.682777,0.153243,-0.712792,9.69695186614990,-2.90559768676758,0.20942774415016,2.52611660957336,3.34667086601257,1.33019554615021
731,2731777807,0.047640,-0.682807,0.153235,-0.712765,9.63366222381592,-2.89833235740662,0.22574137151241,3.17212057113647,3.10539937019348,1.22389018535614
732,2731794474,0.047734,-0.682840,0.153136,-0.712747,9.66705703735352,-2.88820123672485,0.18376395106316,3.70851445198059,3.10511708259583,1.21251797676086
733,2731811141,0.047827,-0.682836,0.153033,-0.712768,9.72579002380371,-2.92027473449707,0.17403054237366,4.03575515747070,3.39350342750549,1.22828280925751
734,2731827808,0.047933,-0.682825,0.152898,-0.712800,9.70935058593750,-2.86434507369995,0.19283710420132,4.01352310180664,3.52986574172974,1.13592338562012
735,2731844475,0.047919,-0.682816,0.152880,-0.712813,9.70888519287109,-2.82427072525024,0.22049449384212,3.13038396835327,3.51159071922302,1.10393285751343
736,2731861142,0.047862,-0.682822,0.152927,-0.712801,9.71503257751465,-2.85129809379578,0.19567459821701,2.29757452011108,3.48013806343079,1.18416476249695
737,2731877809,0.047737,-0.682852,0.153008,-0.712764,9.67740440368652,-2.87313008308411,0.20429313182831,1.89927160739899,3.28027009963989,1.00029134750366
738,2731894476,0.047639,-0.682866,0.153041,-0.712749,9.68188381195068,-2.91428470611572,0.20123821496964,2.34433031082153,3.41156029701233,0.91284936666489
739,2731911143,0.047591,-0.682860,0.153045,-0.712758,9.66091251373291,-2.89588665962219,0.20345613360405,3.42176675796509,3.35365009307861,1.05179822444916
740,2731927810,0.047705,-0.682871,0.152886,-0.712773,9.67954158782959,-2.87759923934937,0.19747871160507,4.04153108596802,3.35805606842041,1.04314124584198
741,2731944477,0.047754,-0.682869,0.152775,-0.712796,9.69403457641602,-2.83873820304871,0.18385712802410,3.96957230567932,3.40287828445435,0.97095197439194
742,2731961144,0.047756,-0.682871,0.152726,-0.712804,9.70673274993896,-2.83391308784485,0.18778410553932,3.36019396781921,3.40417098999023,1.02648007869720
743,2731977811,0.047666,-0.682867,0.152778,-0.712803,9.70140743255615,-2.82936549186707,0.18011923134327,2.71253848075867,3.44210338592529,1.06811356544495
744,2731994478,0.047577,-0.682875,0.152843,-0.712787,9.69233703613281,-2.84969162940979,0.19343771040440,2.30605196952820,3.40765428543091,1.11898040771484
745,2732011145,0.047462,-0.682897,0.152933,-0.712754,9.68199920654297,-2.87367272377014,0.17836660146713,2.24117517471313,3.23461484909058,1.10477805137634
746,2732027812,0.047392,-0.682926,0.152955,-0.712727,9.70391464233398,-2.88783907890320,0.17121434211731,2.44468069076538,3.25824260711670,0.98589682579041
747,2732044479,0.047264,-0.682935,0.153022,-0.712712,9.71092224121094,-2.88088846206665,0.18873856961727,2.75856471061707,3.26100897789001,0.94644051790237
748,2732061146,0.047247,-0.682958,0.152975,-0.712702,9.70325756072998,-2.87413477897644,0.22732318937778,3.22978758811951,3.24320840835571,0.93006122112274
749,2732077813,0.047300,-0.683000,0.152886,-0.712677,9.70115375518799,-2.87489414215088,0.23020209372044,3.37580561637878,3.10415744781494,1.05407810211182
750,2732094480,0.047310,-0.683038,0.152834,-0.712651,9.69727706909180,-2.85743451118469,0.19518490135670,3.33346772193909,3.07178258895874,1.02828609943390
751,2732111147,0.047286,-0.683050,0.152822,-0.712644,9.70736217498779,-2.85885238647461,0.20860642194748,3.03163480758667,3.32187795639038,1.06728136539459
752,2732127814,0.047234,-0.683051,0.152823,-0.712646,9.70480537414551,-2.85426259040833,0.22198507189751,2.76102375984192,3.48728513717651,1.00280129909515
753,2732144481,0.047184,-0.683037,0.152851,-0.712656,9.71897506713867,-2.88139081001282,0.19188819825649,2.73669171333313,3.57458567619324,1.14947247505188
754,2732161148,0.047116,-0.683023,0.152884,-0.712668,9.71257209777832,-2.87941932678223,0.19789284467697,2.66984248161316,3.59734296798706,1.08682382106781
755,2732177815,0.046979,-0.682998,0.152949,-0.712686,9.69926548004150,-2.88208174705505,0.18338494002819,2.97445464134216,3.52507615089417,0.92696213722229
756,2732194482,0.046958,-0.683008,0.152895,-0.712690,9.69846439361572,-2.86489057540894,0.19579587876797,3.22616314888000,3.37948107719421,0.88385599851608
757,2732211149,0.046954,-0.683017,0.152821,-0.712697,9.71468830108643,-2.86016225814819,0.20457430183887,3.38234901428223,3.39206910133362,0.87253499031067
758,2732227816,0.046961,-0.683022,0.152751,-0.712707,9.70145416259766,-2.83771586418152,0.18944641947746,3.49031949043274,3.38512825965881,0.95111483335495
759,2732244483,0.047010,-0.683043,0.152663,-0.712703,9.69937133789062,-2.83233189582825,0.20512090623379,3.46758794784546,3.28803014755249,1.05101704597473
760,2732261150,0.046952,-0.683040,0.152692,-0.712703,9.69625568389893,-2.80883741378784,0.19813394546509,3.09761309623718,3.35947775840759,1.11956977844238
761,2732277817,0.046970,-0.683070,0.152674,-0.712677,9.70625782012939,-2.80548119544983,0.18758025765419,2.75788593292236,3.24424529075623,1.22209727764130
762,2732294484,0.046925,-0.683080,0.152731,-0.712658,9.71784114837646,-2.84967756271362,0.19615517556667,2.52255654335022,3.33777022361755,1.29917860031128
763,2732311151,0.046830,-0.683088,0.152837,-0.712634,9.71545219421387,-2.87227034568787,0.17882139980793,2.65917444229126,3.21552085876465,1.28888225555420
764,2732327818,0.046829,-0.683109,0.152848,-0.712611,9.71507930755615,-2.86297631263733,0.18556298315525,2.89504218101501,3.22668838500977,1.28953552246094
765,2732344485,0.046794,-0.683124,0.152891,-0.712590,9.70849418640137,-2.85704660415649,0.20198068022728,3.17899727821350,3.13249778747559,1.28245365619659
766,2732361152,0.046868,-0.683156,0.152834,-0.712567,9.71401882171631,-2.86398863792419,0.19648130238056,3.15303874015808,3.19805335998535,1.31094765663147
767,2732377819,0.046862,-0.683164,0.152866,-0.712553,9.71422672271729,-2.85200834274292,0.20860154926777,2.97797632217407,3.28270339965820,1.37088155746460
