sep=,
DeviceTag:,C
FirmwareVersion:,3.0.0
AppVersion:,2023.6.0
StartTime: ,2024-03-14_11:40:57_000 EDT
© Movella Technologies B. V. 2005-2024

PacketCounter,SampleTimeFine,Quat_W,Quat_X,Quat_Y,Quat_Z,Acc_X,Acc_Y,Acc_Z,Gyr_X,Gyr_Y,Gyr_Z
0,2719594230,0.618521,0.371318,-0.597848,0.349499,0.00000000000000,0.00000000000000,0.00000000000000,0.00000000000000,0.00000000000000,0.00000000000000
1,2719610897,0.618612,0.371320,-0.597772,0.349466,9.92188453674316,0.44005721807480,0.03824046999216,0.81873553991318,0.56383794546127,-0.23012369871140
2,2719627564,0.618726,0.371329,-0.597659,0.349448,9.94311809539795,0.44330918788910,0.06025801971555,0.90023529529572,0.82996678352356,-0.33947712182999
3,2719644231,0.618829,0.371386,-0.597503,0.349470,9.94199085235596,0.44826394319534,0.08660606294870,1.43404233455658,0.95700579881668,-0.46077892184258
4,2719660898,0.618940,0.371464,-0.597299,0.349540,9.95572376251221,0.39306172728539,0.04210881516337,1.83398437500000,1.27193951606750,-0.47418716549873
5,2719677565,0.619063,0.371530,-0.597106,0.349583,9.88505744934082,0.44488859176636,0.11432316899300,1.61507296562195,1.22814190387726,-0.54660701751709
6,2719694232,0.619212,0.371525,-0.596932,0.349622,9.89832496643066,0.40857267379761,0.07596795260906,1.13384854793549,1.41337275505066,-0.28643324971199
7,2719710899,0.619362,0.371466,-0.596811,0.349625,9.87898826599121,0.39680841565132,0.06965941190720,0.66266459226608,1.23125374317169,-0.08159566670656
8,2719727566,0.619510,0.371445,-0.596663,0.349636,9.92853260040283,0.41598469018936,0.15327472984791,0.91173517704010,1.27202904224396,-0.27009230852127
9,2719744233,0.619677,0.371488,-0.596457,0.349648,9.84639549255371,0.44077759981155,0.10582544654608,1.31347036361694,1.43920314311981,-0.71985131502151
10,2719760900,0.619780,0.371542,-0.596295,0.349684,9.93768405914307,0.44548460841179,0.15781101584435,1.56479501724243,1.03434324264526,-0.39699041843414
11,2719777567,0.619933,0.371527,-0.596143,0.349689,9.90397930145264,0.46602442860603,0.11619832366705,0.91393804550171,1.27672910690308,-0.34366482496262
12,2719794234,0.620119,0.371450,-0.596022,0.349646,9.93128681182861,0.43800380825996,0.14082585275173,0.28149640560150,1.30266189575195,-0.29091545939445
13,2719810901,0.620347,0.371335,-0.595887,0.349594,9.92879581451416,0.44675880670547,0.15112797915936,0.00924618542194,1.60586512088776,-0.31354427337646
14,2719827568,0.620585,0.371257,-0.595704,0.349565,9.93425369262695,0.44196695089340,0.17350549995899,0.40459099411964,1.81983351707458,-0.51005768775940
15,2719844235,0.620843,0.371180,-0.595478,0.349575,9.93260955810547,0.43188670277596,0.15816006064415,0.60922366380692,2.18724775314331,-0.50812399387360
16,2719860902,0.621108,0.371073,-0.595261,0.349587,9.93747520446777,0.42255511879921,0.15461131930351,0.43176606297493,2.24764251708984,-0.37190279364586
17,2719877569,0.621395,0.370925,-0.595073,0.349554,9.92483806610107,0.44728612899780,0.13655376434326,0.02474186941981,2.21122121810913,-0.37044289708138
18,2719894236,0.621691,0.370781,-0.594879,0.349510,9.92413997650146,0.47183156013489,0.12568622827530,-0.06808496266603,2.22185063362122,-0.47145941853523
19,2719910903,0.622023,0.370655,-0.594661,0.349425,9.94639015197754,0.49473986029625,0.16207531094551,-0.21392369270325,2.33332991600037,-0.86941677331924
20,2719927570,0.622382,0.370546,-0.594402,0.349342,9.93122005462646,0.47249308228493,0.14318443834782,-0.10519775748253,2.57358980178833,-1.10384976863861
21,2719944237,0.622748,0.370486,-0.594120,0.349233,9.92421531677246,0.46996280550957,0.16070505976677,0.03346299007535,2.52449011802673,-1.48497927188873
22,2719960904,0.623124,0.370480,-0.593794,0.349124,9.89971446990967,0.48068279027939,0.14418680965900,0.40615335106850,2.62026882171631,-1.84561896324158
23,2719977571,0.623461,0.370523,-0.593485,0.349000,9.88932228088379,0.46918076276779,0.19144062697887,0.53775149583817,2.23262047767639,-1.97136485576630
24,2719994238,0.623808,0.370567,-0.593205,0.348810,9.90197563171387,0.46399059891701,0.20270922780037,0.29598036408424,1.98435676097870,-2.20780825614929
25,2720010905,0.624169,0.370614,-0.592907,0.348620,9.92963123321533,0.48717632889748,0.20294706523418,0.17490914463997,2.10660624504089,-2.29997587203979
26,2720027572,0.624555,0.370672,-0.592579,0.348426,9.93830966949463,0.49163693189621,0.21455612778664,0.25357857346535,2.29789495468140,-2.49861502647400
27,2720044239,0.624932,0.370793,-0.592201,0.348264,9.87884235382080,0.50771558284760,0.21178594231606,0.78391516208649,2.40828561782837,-2.72156095504761
28,2720060906,0.625267,0.370897,-0.591869,0.348116,9.90090274810791,0.50321036577225,0.25288048386574,0.76889318227768,2.11372637748718,-2.37521290779114
29,2720077573,0.625615,0.370960,-0.591550,0.347967,9.89759731292725,0.54050672054291,0.28190314769745,0.60813510417938,2.21657419204712,-2.21312284469604
30,2720094240,0.625925,0.371047,-0.591245,0.347836,9.88807201385498,0.54324299097061,0.27332630753517,0.78248077630997,1.97899103164673,-2.10937881469727
31,2720110907,0.626238,0.371139,-0.590926,0.347713,9.91913795471191,0.53071504831314,0.28677335381508,0.89648294448853,2.06571555137634,-2.13095760345459
32,2720127574,0.626596,0.371229,-0.590529,0.347647,9.93791580200195,0.52776896953583,0.29852953553200,1.20465493202209,2.73382258415222,-2.18311762809753
33,2720144241,0.626997,0.371325,-0.590073,0.347598,9.90416145324707,0.56120413541794,0.30969884991646,1.30850148200989,3.19798898696899,-2.39266777038574
34,2720160908,0.627430,0.371423,-0.589553,0.347594,9.89806365966797,0.52444547414780,0.28555339574814,1.57139050960541,3.70857834815979,-2.44455957412720
35,2720177575,0.627815,0.371597,-0.588966,0.347707,9.86969757080078,0.51383256912231,0.29389896988869,2.73033952713013,3.91761684417725,-2.30203771591187
36,2720194242,0.628112,0.371888,-0.588284,0.348013,9.92679691314697,0.51566708087921,0.32695242762566,4.37461090087891,4.18745946884155,-1.97525787353516
37,2720210909,0.628377,0.372222,-0.587543,0.348430,9.92242050170898,0.51220875978470,0.33396992087364,5.27004337310791,4.49164819717407,-1.74800920486450
38,2720227576,0.628674,0.372500,-0.586783,0.348878,9.94256496429443,0.50265228748322,0.40249776840210,5.06342601776123,4.91761302947998,-1.51480567455292
39,2720244243,0.629040,0.372444,-0.586201,0.349256,9.96753025054932,0.63134932518005,0.51699197292328,2.72826504707336,5.04654741287231,-0.18215110898018
40,2720260910,0.629280,0.372402,-0.585637,0.349813,9.95357036590576,0.60472518205643,0.21695585548878,3.80088686943054,4.88316440582275,0.89173191785812
41,2720277577,0.629486,0.372381,-0.585148,0.350283,9.89768886566162,0.68832474946976,0.44689813256264,3.43787765502930,4.14902687072754,0.69816386699677
42,2720294244,0.629889,0.372330,-0.584498,0.350697,9.86991024017334,0.69602555036545,0.22924076020718,2.97652912139893,5.56704902648926,-0.30501529574394
43,2720310911,0.630222,0.372340,-0.584023,0.350880,9.84621047973633,0.67457032203674,0.26896825432777,2.06704759597778,3.79345893859863,-0.93428087234497
44,2720327578,0.630564,0.372533,-0.583420,0.351065,9.79864215850830,0.74787056446075,0.26805549860001,3.15647149085999,3.94548368453979,-2.01554703712463
45,2720344245,0.630842,0.372801,-0.582921,0.351110,9.85540580749512,0.69351714849472,0.32080957293510,2.82988333702087,2.70047545433044,-2.49966526031494
46,2720360912,0.631105,0.373116,-0.582389,0.351184,9.86237239837646,0.62586766481400,0.29061931371689,3.32446455955505,2.74419617652893,-2.60670065879822
47,2720377579,0.631355,0.373439,-0.581876,0.351243,9.80972385406494,0.60860830545425,0.26061651110649,3.26714324951172,2.55075597763062,-2.62145376205444
48,2720394246,0.631638,0.373628,-0.581487,0.351177,9.82671928405762,0.62570780515671,0.32763138413429,1.84803318977356,2.15889453887939,-2.39169502258301
49,2720410913,0.631982,0.373630,-0.581205,0.351023,9.90349578857422,0.64704024791718,0.39068844914436,0.21988503634930,2.15114665031433,-1.89861178398132
50,2720427580,0.632394,0.373600,-0.580877,0.350857,9.90055274963379,0.61957788467407,0.37772125005722,-0.00027533649700,2.67310762405396,-2.10310339927673
51,2720444247,0.632799,0.373660,-0.580493,0.350699,9.90073871612549,0.59338194131851,0.36189019680023,0.57328903675079,2.68983268737793,-2.55556464195251
52,2720460914,0.633214,0.373738,-0.580070,0.350565,9.88767337799072,0.60059183835983,0.36795556545258,0.80422610044479,2.92000198364258,-2.64716887474060
53,2720477581,0.633629,0.373780,-0.579642,0.350479,9.90008831024170,0.60639673471451,0.41949924826622,0.84878581762314,3.15299415588379,-2.31213569641113
54,2720494248,0.634032,0.373791,-0.579224,0.350428,9.89495849609375,0.62875258922577,0.41606995463371,0.87272715568542,3.22275638580322,-1.97423338890076
55,2720510915,0.634491,0.373739,-0.578790,0.350370,9.93951511383057,0.63816338777542,0.43737629055977,0.45758366584778,3.65523934364319,-1.93648004531860
56,2720527582,0.634983,0.373683,-0.578307,0.350336,9.94497489929199,0.64275228977203,0.49711850285530,0.54484623670578,4.06253290176392,-2.02098941802979
57,2720544249,0.635509,0.373657,-0.577704,0.350406,9.97627449035645,0.66408002376556,0.54017412662506,1.32089841365814,4.92898511886597,-2.07023000717163
58,2720560916,0.636020,0.373773,-0.576983,0.350544,9.90709877014160,0.63752144575119,0.38819685578346,2.53800106048584,5.20765161514282,-2.61086297035217
59,2720577583,0.636605,0.373799,-0.576266,0.350632,9.92465972900391,0.69769638776779,0.65524172782898,1.75258791446686,5.57490015029907,-2.63659095764160
60,2720594250,0.637226,0.373753,-0.575536,0.350752,9.90247344970703,0.69514924287796,0.55188238620758,1.50789666175842,6.03398132324219,-2.33160758018494
61,2720610917,0.637841,0.373714,-0.574781,0.350915,9.92566776275635,0.65322136878967,0.54396951198578,1.77086234092712,6.21238660812378,-2.21688842773438
62,2720627584,0.638452,0.373805,-0.573912,0.351129,9.89193439483643,0.69766438007355,0.61107945442200,2.82709169387817,6.51158189773560,-2.79856562614441
63,2720644251,0.639041,0.373991,-0.572994,0.351358,9.85109424591064,0.69553017616272,0.58265745639801,3.49288129806519,6.44812631607056,-3.17175555229187
64,2720660918,0.639620,0.374151,-0.572098,0.351594,9.87277698516846,0.73852789402008,0.64421975612640,3.38493704795837,6.40076875686646,-2.95908069610596
65,2720677585,0.640212,0.374243,-0.571218,0.351849,9.85894107818604,0.75192195177078,0.65708398818970,3.08878970146179,6.58528232574463,-2.60278224945068
66,2720694252,0.640842,0.374330,-0.570282,0.352127,9.84582614898682,0.72881484031677,0.65684628486633,3.19883513450623,7.06189680099487,-2.71186709403992
67,2720710919,0.641454,0.374487,-0.569306,0.352426,9.84322929382324,0.71894943714142,0.65025204420090,3.74389815330505,7.04368495941162,-2.96146225929260
68,2720727586,0.642060,0.374634,-0.568302,0.352788,9.88759040832520,0.70297157764435,0.71833139657974,4.01798009872437,7.33742380142212,-2.69594836235046
69,2720744253,0.642631,0.374731,-0.567325,0.353216,9.85930633544922,0.71215295791626,0.76871389150620,4.07144689559937,7.37271976470947,-2.05575919151306
70,2720760920,0.643223,0.374704,-0.566391,0.353666,9.87196159362793,0.74800103902817,0.84629791975021,3.48102259635925,7.61847352981567,-1.41359710693359
71,2720777587,0.643838,0.374647,-0.565423,0.354156,9.89351844787598,0.81168985366821,0.85829967260361,3.50955510139465,8.03282165527344,-1.26337862014771
72,2720794254,0.644512,0.374555,-0.564428,0.354613,9.88286113739014,0.85404288768768,0.86867767572403,3.14235925674438,8.38839244842529,-1.48450613021851
73,2720810921,0.645232,0.374464,-0.563397,0.355040,9.85344219207764,0.86679714918137,0.85706931352615,3.00291061401367,8.64186859130859,-1.82707607746124
74,2720827588,0.645932,0.374418,-0.562368,0.355448,9.82063388824463,0.89038825035095,0.81132745742798,3.17675662040710,8.39812374114990,-2.03357839584351
75,2720844255,0.646579,0.374453,-0.561383,0.355791,9.78340625762939,0.92038261890411,0.84805703163147,3.31655120849609,7.63850355148315,-2.38913416862488
76,2720860922,0.647226,0.374502,-0.560421,0.356079,9.75864028930664,0.90216851234436,0.86107158660889,3.10317087173462,7.35327911376953,-2.63584804534912
77,2720877589,0.647825,0.374494,-0.559591,0.356304,9.74520683288574,0.89767396450043,0.91559058427811,2.41695547103882,6.55715847015381,-2.23155140876770
78,2720894256,0.648403,0.374416,-0.558838,0.356515,9.77495765686035,0.92456567287445,0.92483884096146,1.91548478603363,6.27457427978516,-1.77839887142181
79,2720910923,0.648987,0.374331,-0.558129,0.356652,9.73986530303955,0.91752701997757,0.89623522758484,1.47207725048065,5.92447471618652,-1.98095703125000
80,2720927590,0.649550,0.374212,-0.557484,0.356760,9.77733612060547,0.89409691095352,0.96214056015015,1.11264145374298,5.56711292266846,-1.76209616661072
81,2720944257,0.650113,0.374143,-0.556808,0.356866,9.75022220611572,0.93113464117050,0.95185917615891,1.40057921409607,5.58002042770386,-2.03999376296997
82,2720960924,0.650652,0.374078,-0.556184,0.356924,9.72765922546387,0.92128878831863,0.98228728771210,1.16786241531372,5.11795616149902,-2.08203744888306
83,2720977591,0.651126,0.374061,-0.555587,0.357007,9.75477313995361,0.91669499874115,0.98241800069809,1.58441472053528,4.70276165008545,-1.92279064655304
84,2720994258,0.651581,0.374009,-0.555064,0.357044,9.75471782684326,0.92693102359772,1.01222145557404,1.11033630371094,4.25945663452148,-1.75948369503021
85,2721010925,0.651999,0.373969,-0.554582,0.357072,9.74370002746582,0.89424967765808,1.00896167755127,1.12717652320862,3.88320541381836,-1.65159022808075
86,2721027592,0.652391,0.373921,-0.554131,0.357106,9.74188995361328,0.92263472080231,1.02923500537872,1.11052823066711,3.68464326858521,-1.44615066051483
87,2721044259,0.652706,0.373943,-0.553730,0.357129,9.69314765930176,0.90891498327255,1.00109624862671,1.44798839092255,2.96166062355042,-1.44927549362183
88,2721060926,0.652943,0.374003,-0.553396,0.357152,9.70492935180664,0.88338553905487,1.00258088111877,1.66021537780762,2.27404928207397,-1.22462642192841
89,2721077593,0.653084,0.374109,-0.553133,0.357190,9.70705032348633,0.89346820116043,1.02067792415619,1.99451196193695,1.51719391345978,-0.91650563478470
90,2721094260,0.653191,0.374214,-0.552915,0.357221,9.73958587646484,0.91002196073532,1.06475102901459,1.94721841812134,1.16533946990967,-0.74481087923050
91,2721110927,0.653275,0.374349,-0.552736,0.357204,9.71670913696289,0.91207784414291,1.02855336666107,1.85510218143463,0.70880585908890,-0.91176718473434
92,2721127594,0.653352,0.374348,-0.552693,0.357130,9.75479888916016,0.92958861589432,1.11077356338501,0.71482479572296,0.25457742810249,-0.29630690813065
93,2721144261,0.653349,0.374370,-0.552670,0.357147,9.82095050811768,0.94961261749268,1.04427337646484,1.32503461837769,0.04592357203364,0.28048467636108
94,2721160928,0.653308,0.374524,-0.552618,0.357142,9.78118801116943,0.99825614690781,1.14682412147522,2.00005722045898,-0.34810858964920,-0.30212098360062
95,2721177595,0.653483,0.374485,-0.552521,0.357014,9.89295959472656,0.94434845447540,1.23522150516510,0.22434161603451,0.82357633113861,-0.76799035072327
96,2721194262,0.653725,0.374337,-0.552495,0.356767,9.74508476257324,0.95830273628235,1.07238590717316,-1.07507383823395,0.72641456127167,-0.86561316251755
97,2721210929,0.653918,0.374226,-0.552453,0.356592,9.79376029968262,0.92649090290070,1.09183931350708,-0.46636244654655,0.69941878318787,-0.61289274692535
98,2721227596,0.653961,0.374164,-0.552524,0.356469,9.74969959259033,0.95249420404434,1.07034456729889,0.06520993262529,-0.35954469442368,0.10451262444258
99,2721244263,0.653884,0.374189,-0.552609,0.356453,9.80006980895996,0.93272632360458,1.11283755302429,1.13153064250946,-0.81451588869095,0.57276403903961
100,2721260930,0.653812,0.374287,-0.552599,0.356496,9.76399230957031,0.91943013668060,1.08111524581909,1.90608406066895,-0.39834785461426,0.31451112031937
101,2721277597,0.653735,0.374386,-0.552634,0.356480,9.72935867309570,0.94549936056137,1.08121395111084,1.59204685688019,-0.77539241313934,0.17065741121769
102,2721294264,0.653648,0.374448,-0.552734,0.356419,9.74936962127686,0.98785948753357,1.10563337802887,1.12134957313538,-1.12749028205872,0.30085960030556
103,2721310931,0.653554,0.374440,-0.552885,0.356367,9.77847671508789,1.00438106060028,1.08733105659485,0.72888618707657,-1.18481147289276,0.74997824430466
104,2721327598,0.653434,0.374463,-0.553039,0.356324,9.76993465423584,1.00210309028625,1.01639187335968,0.96927410364151,-1.35879826545715,0.75002938508987
105,2721344265,0.653245,0.374607,-0.553167,0.356322,9.77466583251953,1.00210237503052,0.97069531679153,1.90230631828308,-1.69114911556244,0.57632416486740
106,2721360932,0.653045,0.374766,-0.553292,0.356324,9.78696632385254,1.02931153774261,1.04276919364929,2.02997279167175,-1.74656188488007,0.55533456802368
107,2721377599,0.652889,0.374906,-0.553406,0.356287,9.81382274627686,1.05630505084991,1.03098201751709,1.70434594154358,-1.58255124092102,0.31850674748421
108,2721394266,0.652806,0.374964,-0.553538,0.356172,9.83824348449707,1.04861772060394,0.98946255445480,0.81475287675858,-1.38455212116241,0.14282922446728
109,2721410933,0.652746,0.374997,-0.553661,0.356057,9.86462116241455,1.03686690330505,0.99328857660294,0.66003936529160,-1.20107567310333,0.16488176584244
110,2721427600,0.652671,0.375083,-0.553733,0.355992,9.84873485565186,1.03675258159637,1.03700125217438,1.25502228736877,-1.02167129516602,0.08900413662195
111,2721444267,0.652646,0.375223,-0.553719,0.355912,9.83228397369385,0.96964323520660,1.06454396247864,1.51853871345520,-0.62361168861389,-0.52743595838547
112,2721460934,0.652624,0.375398,-0.553667,0.355848,9.83971214294434,0.91292411088943,1.00057423114777,1.81558167934418,-0.48275452852249,-0.69257378578186
113,2721477601,0.652673,0.375444,-0.553663,0.355717,9.82686519622803,1.00370562076569,1.14540421962738,0.68839251995087,-0.28364142775536,-0.55737709999084
114,2721494268,0.652711,0.375504,-0.553645,0.355613,9.78741359710693,0.94224405288696,0.95928496122360,0.91121023893356,-0.22936813533306,-0.49235936999321
115,2721510935,0.652666,0.375584,-0.553694,0.355533,9.81219863891602,0.90416038036346,1.03619050979614,1.14072561264038,-0.83378946781158,-0.08848547935486
116,2721527602,0.652650,0.375740,-0.553606,0.355535,9.76948451995850,0.91657429933548,1.01329433917999,2.06101560592651,-0.07581999897957,-0.43383434414864
117,2721544269,0.652561,0.375975,-0.553578,0.355494,9.77526664733887,0.93184310197830,1.00635647773743,2.29461574554443,-0.93871176242828,-0.59279948472977
118,2721560936,0.652501,0.376094,-0.553605,0.355436,9.79729843139648,0.96661829948425,1.02369987964630,1.49984133243561,-0.82700210809708,-0.15498887002468
119,2721577603,0.652485,0.376201,-0.553600,0.355359,9.79400062561035,0.94989818334579,0.96508580446243,1.33647072315216,-0.53741210699081,-0.39022868871689
120,2721594270,0.652463,0.376294,-0.553608,0.355289,9.84044647216797,0.94095695018768,1.05674266815186,1.28459227085114,-0.56867235898972,-0.25222745537758
121,2721610937,0.652524,0.376334,-0.553537,0.355245,9.80225658416748,1.01620137691498,1.10339617729187,1.12214362621307,0.29951491951942,-0.34809580445290
122,2721627604,0.652546,0.376448,-0.553490,0.355156,9.76602745056152,0.97559314966202,0.99596476554871,1.32292151451111,-0.24984548985958,-0.66498893499374
123,2721644271,0.652516,0.376530,-0.553529,0.355064,9.76278972625732,0.91581320762634,0.97754567861557,1.09265053272247,-0.76915574073792,-0.21848274767399
124,2721660938,0.652456,0.376524,-0.553664,0.354971,9.78701782226562,0.91520273685455,0.99062567949295,0.54812461137772,-1.10192883014679,0.44545605778694
125,2721677605,0.652353,0.376487,-0.553840,0.354925,9.83166790008545,0.95405745506287,1.05520594120026,0.58462262153625,-1.24879193305969,0.98520529270172
126,2721694272,0.652297,0.376477,-0.553934,0.354892,9.81299018859863,0.98130750656128,1.02192604541779,0.84443795681000,-0.73364377021790,0.60643190145493
127,2721710939,0.652267,0.376544,-0.553972,0.354816,9.79301166534424,0.97019100189209,1.03315460681915,1.08958983421326,-0.68398076295853,-0.08854950964451
128,2721727606,0.652201,0.376612,-0.554054,0.354737,9.78902816772461,0.94584780931473,0.99516433477402,1.06716597080231,-1.02603840827942,0.09949253499508
129,2721744273,0.652060,0.376721,-0.554159,0.354715,9.81774616241455,0.93126028776169,0.97600662708282,1.60924601554871,-1.37494742870331,0.44169098138809
130,2721760940,0.651927,0.376856,-0.554209,0.354741,9.80993556976318,0.94917762279510,0.95064812898636,2.01945900917053,-1.02949607372284,0.39470455050468
131,2721777607,0.651807,0.377003,-0.554212,0.354800,9.81049346923828,0.94205045700073,0.95946222543716,2.27904367446899,-0.71452397108078,0.34054648876190
132,2721794274,0.651680,0.377211,-0.554191,0.354844,9.76045608520508,0.92545902729034,0.92165923118591,2.57691931724548,-0.82462012767792,0.00198498438112
133,2721810941,0.651525,0.377407,-0.554247,0.354833,9.73028469085693,0.89199101924896,0.94378274679184,2.19534158706665,-1.38558948040009,0.06153451651335
134,2721827608,0.651315,0.377517,-0.554412,0.354844,9.78357791900635,0.92832839488983,0.99224090576172,1.77447330951691,-1.81616437435150,0.91387385129929
135,2721844275,0.651108,0.377547,-0.554645,0.354827,9.79727935791016,0.94071102142334,0.91984307765961,1.13489854335785,-1.98921644687653,1.25620043277740
136,2721860942,0.650906,0.377551,-0.554894,0.354806,9.81127166748047,0.92045450210571,0.85782128572464,0.94645321369171,-1.99300742149353,1.36865305900574
137,2721877609,0.650671,0.377511,-0.555199,0.354800,9.79800128936768,0.92152941226959,0.91363465785980,0.75972390174866,-2.21860384941101,1.82909250259399
138,2721894276,0.650475,0.377365,-0.555539,0.354783,9.84161376953125,0.96167057752609,0.94092720746994,0.05956233292818,-1.99520993232727,2.17865467071533
139,2721910943,0.650334,0.377130,-0.555907,0.354715,9.85639286041260,0.94595897197723,0.92584526538849,-0.75112438201904,-1.82672965526581,2.23039221763611
140,2721927610,0.650212,0.376862,-0.556280,0.354641,9.88708972930908,0.95171087980270,0.94605165719986,-0.97850126028061,-1.71037137508392,2.29722881317139
141,2721944277,0.650140,0.376571,-0.556615,0.354555,9.89326286315918,0.97932684421539,0.99723517894745,-1.16726672649384,-1.33118796348572,2.11325240135193
142,2721960944,0.650161,0.376209,-0.556896,0.354460,9.87169456481934,0.98409467935562,0.98629319667816,-1.62303185462952,-0.57414066791534,1.97306132316589
143,2721977611,0.650207,0.375897,-0.557145,0.354314,9.82139587402344,0.97875905036926,0.90838330984116,-1.58055329322815,-0.59493821859360,1.40882658958435
144,2721994278,0.650260,0.375658,-0.557322,0.354192,9.79223346710205,0.95883196592331,0.90389907360077,-1.00467741489410,-0.35798230767250,1.03845417499542
145,2722010945,0.650174,0.375558,-0.557537,0.354118,9.81965446472168,0.93035626411438,0.82543969154358,0.06330179423094,-1.27847731113434,1.15891075134277
146,2722027612,0.650053,0.375527,-0.557744,0.354047,9.76483535766602,0.95654493570328,0.98486393690109,0.49103382229805,-1.53388679027557,0.96661031246185
147,2722044279,0.650102,0.375300,-0.557949,0.353874,9.81338977813721,0.86329847574234,0.90392780303955,-1.20639002323151,-0.66037863492966,0.84360539913177
148,2722060946,0.650160,0.374995,-0.558238,0.353636,9.65390586853027,0.83296495676041,0.75220268964767,-2.03885412216187,-0.97939759492874,1.05178558826447
149,2722077613,0.650084,0.374870,-0.558528,0.353449,9.70149707794189,0.80101370811462,0.73448258638382,-0.69320136308670,-1.81238663196564,0.91177362203598
150,2722094280,0.649795,0.374825,-0.558995,0.353290,9.68608379364014,0.84220498800278,0.73640412092209,-0.10235476493835,-3.53805565834045,1.70624160766602
151,2722110947,0.649299,0.374933,-0.559488,0.353307,9.88207340240479,0.91917181015015,0.92951864004135,1.71977758407593,-4.35907077789307,2.47683787345886
152,2722127614,0.648787,0.375231,-0.559761,0.353498,9.96744728088379,0.94032824039459,1.07018315792084,3.81772613525391,-3.46343278884888,1.98763525485992
153,2722144281,0.648383,0.375586,-0.559880,0.353675,9.90610504150391,0.92131268978119,1.05308163166046,4.11826562881470,-2.53137326240540,1.05054318904877
154,2722160948,0.648172,0.375715,-0.560033,0.353683,9.90808677673340,0.86734777688980,0.97203356027603,1.87327432632446,-1.83007216453552,0.78468340635300
155,2722177615,0.648041,0.375649,-0.560264,0.353627,9.89571285247803,0.88249325752258,0.89123928546906,0.35002312064171,-1.55463314056396,1.25786530971527
156,2722194282,0.647898,0.375488,-0.560535,0.353630,9.88935852050781,0.93738931417465,0.87413024902344,0.09899309277534,-1.39634692668915,2.01968955993652
157,2722210949,0.647749,0.375398,-0.560724,0.353698,9.82701301574707,0.94022327661514,0.84269565343857,0.87939929962158,-1.06146073341370,1.83589279651642
158,2722227616,0.647603,0.375385,-0.560897,0.353707,9.83824253082275,0.91911590099335,0.88171035051346,1.02645444869995,-1.31958532333374,1.22916615009308
159,2722244283,0.647510,0.375290,-0.561062,0.353715,9.90218925476074,0.94552844762802,1.03728210926056,0.53771305084229,-0.88420808315277,1.39116680622101
160,2722260950,0.647526,0.375146,-0.561153,0.353694,9.86184787750244,0.95331162214279,0.97075939178467,0.10684336721897,-0.08259455114603,0.98993080854416
161,2722277617,0.647659,0.374904,-0.561263,0.353533,9.85398483276367,0.92411202192307,0.91204380989075,-1.22196269035339,0.15406039357185,0.51703077554703
162,2722294284,0.647824,0.374596,-0.561378,0.353375,9.78130722045898,0.87918651103973,0.80230641365051,-1.59499883651733,0.42511957883835,0.71851301193237
163,2722310951,0.647916,0.374363,-0.561480,0.353291,9.79421234130859,0.90607035160065,0.81549412012100,-0.74694955348969,0.21740061044693,0.90257865190506
164,2722327618,0.647884,0.374257,-0.561551,0.353350,9.83933448791504,0.88856315612793,0.81387585401535,0.75812309980392,-0.07588402926922,1.26905810832977
165,2722344285,0.647924,0.374077,-0.561591,0.353404,9.86773014068604,0.91762137413025,0.96969950199127,0.29937404394150,0.51055073738098,1.27534592151642
166,2722360952,0.647974,0.373978,-0.561598,0.353405,9.82739543914795,0.83817702531815,0.78108072280884,0.49789807200432,0.36518585681915,0.62516760826111
167,2722377619,0.647978,0.373926,-0.561620,0.353418,9.85221576690674,0.86104214191437,0.91313064098358,0.85075139999390,0.03795802220702,0.64131641387939
168,2722394286,0.648013,0.373945,-0.561510,0.353508,9.79787254333496,0.88223236799240,0.78590470552444,1.69964587688446,0.77035307884216,0.29548090696335
169,2722410953,0.647964,0.373930,-0.561554,0.353544,9.80400848388672,0.91970819234848,0.80565661191940,1.18087339401245,-0.29644778370857,0.79106086492538
170,2722427620,0.647932,0.373793,-0.561626,0.353633,9.86522006988525,0.96334505081177,0.96159887313843,0.73664683103561,0.08435542881489,1.52262377738953
171,2722444287,0.647981,0.373648,-0.561620,0.353707,9.86960792541504,0.96745842695236,0.95084929466248,0.62082624435425,0.71388995647430,1.09128034114838
172,2722460954,0.648112,0.373526,-0.561549,0.353707,9.83236026763916,0.88905501365662,0.91395539045334,0.37803059816360,1.07730841636658,0.31171932816505
173,2722477621,0.648264,0.373457,-0.561437,0.353682,9.79988479614258,0.86093211174011,0.88552045822144,0.56222438812256,1.15162396430969,-0.16897338628769
174,2722494288,0.648399,0.373383,-0.561339,0.353666,9.83526611328125,0.84470641613007,0.89106363058090,0.59961897134781,1.05752265453339,-0.02637467533350
175,2722510955,0.648541,0.373193,-0.561338,0.353609,9.78978252410889,0.79239386320114,0.81293058395386,-0.33995094895363,0.82855796813965,0.46999299526215
176,2722527622,0.648652,0.372827,-0.561511,0.353517,9.79928398132324,0.77488768100739,0.83403319120407,-1.59935319423676,0.27154585719109,1.51445353031158
177,2722544289,0.648733,0.372473,-0.561640,0.353535,9.78199386596680,0.84045517444611,0.87820076942444,-0.94397526979446,0.60534334182739,1.91365301609039
178,2722560956,0.648760,0.372223,-0.561767,0.353547,9.76921844482422,0.82821971178055,0.81301128864288,-0.36128634214401,0.13070158660412,1.62270522117615
179,2722577623,0.648762,0.371995,-0.561928,0.353529,9.80856513977051,0.81254500150681,0.83026641607285,-0.40166479349136,-0.24123962223530,1.54092407226562
180,2722594290,0.648738,0.371814,-0.562099,0.353490,9.81133460998535,0.81843906641006,0.79925799369812,-0.22310581803322,-0.55543059110641,1.35861289501190
181,2722610957,0.648697,0.371676,-0.562280,0.353423,9.79945945739746,0.81029361486435,0.81663441658020,-0.11288157850504,-0.83798992633820,1.13256800174713
182,2722627624,0.648657,0.371487,-0.562496,0.353352,9.83226966857910,0.83325004577637,0.90517258644104,-0.45102038979530,-0.88078862428665,1.39882457256317
183,2722644291,0.648660,0.371269,-0.562670,0.353296,9.83415126800537,0.84460294246674,0.91681575775146,-0.52907508611679,-0.41828739643097,1.37234127521515
184,2722660958,0.648663,0.371105,-0.562810,0.353241,9.85995197296143,0.85157001018524,0.91244339942932,-0.19073136150837,-0.39264905452728,1.07350504398346
185,2722677625,0.648654,0.371064,-0.562884,0.353183,9.88806629180908,0.88688868284225,0.98606765270233,0.51728683710098,-0.45922926068306,0.44964373111725
186,2722694292,0.648705,0.371115,-0.562811,0.353151,9.88347625732422,0.88836413621902,0.97983837127686,1.23702943325043,0.28063836693764,-0.31678429245949
187,2722710959,0.648825,0.371055,-0.562782,0.353042,9.83063602447510,0.85668045282364,0.91985058784485,0.14930284023285,0.42066934704781,-0.28243127465248
188,2722727626,0.648971,0.370891,-0.562815,0.352892,9.81264114379883,0.83207929134369,0.87533026933670,-0.67267274856567,0.39125964045525,0.03224639222026
189,2722744293,0.649058,0.370716,-0.562900,0.352782,9.79361915588379,0.85307562351227,0.85305058956146,-0.53773218393326,0.06303285062313,0.53061825037003
190,2722760960,0.649082,0.370557,-0.563033,0.352691,9.79500484466553,0.86578023433685,0.87375283241272,-0.36236205697060,-0.38774424791336,0.82329457998276
191,2722777627,0.649052,0.370535,-0.563117,0.352636,9.82164955139160,0.84306091070175,0.87004679441452,0.63835805654526,-0.61909097433090,0.46558764576912
192,2722794294,0.649031,0.370633,-0.563128,0.352553,9.79926013946533,0.84145307540894,0.88251268863678,1.23770797252655,-0.61606860160828,-0.33144751191139
193,2722810961,0.649009,0.370775,-0.563112,0.352470,9.81566619873047,0.83670258522034,0.89826047420502,1.49324595928192,-0.61353296041489,-0.57213008403778
194,2722827628,0.648979,0.370897,-0.563107,0.352405,9.82740020751953,0.84496057033539,0.90912961959839,1.47150087356567,-0.59438753128052,-0.36744618415833
195,2722844295,0.648981,0.370964,-0.563092,0.352354,9.83142852783203,0.86899501085281,0.90125691890717,1.21406757831573,-0.26039791107178,-0.18973246216774
196,2722860962,0.648884,0.371102,-0.563100,0.352376,9.83680915832520,0.86252033710480,0.81525373458862,2.01798629760742,-0.72907197475433,0.15658326447010
197,2722877629,0.648718,0.371437,-0.563080,0.352361,9.74563884735107,0.84705126285553,0.82690346240997,3.00032258033752,-1.44465231895447,-0.67937040328979
198,2722894296,0.648668,0.371541,-0.563160,0.352215,9.83055973052979,0.77258139848709,0.82832866907120,0.92995864152908,-1.21051383018494,-0.38760337233543
199,2722910963,0.648643,0.371546,-0.563380,0.351904,9.62911033630371,0.76204079389572,0.64593362808228,-0.55868333578110,-1.92654240131378,-0.44956049323082
200,2722927630,0.648375,0.371658,-0.563736,0.351708,9.75764083862305,0.75833940505981,0.69744622707367,0.63529735803604,-3.43500232696533,0.58864384889603
201,2722944297,0.647967,0.371846,-0.564240,0.351455,9.77536392211914,0.83583861589432,0.74468410015106,0.77050685882568,-4.97212314605713,0.75472950935364
202,2722960964,0.647483,0.372065,-0.564747,0.351299,9.94459819793701,0.90584957599640,0.92289596796036,1.46751832962036,-5.10039234161377,1.25603425502777
203,2722977631,0.647084,0.372463,-0.564941,0.351300,9.97514057159424,0.95896500349045,0.93943017721176,3.40253210067749,-3.41657423973083,0.25382187962532
204,2722994298,0.646786,0.373034,-0.564925,0.351270,9.96965694427490,0.94801121950150,0.95412260293961,4.30454778671265,-2.58436655998230,-1.33308362960815
205,2723010965,0.646681,0.373656,-0.564687,0.351184,10.00619411468506,0.89342343807220,0.96014505624771,4.37039756774902,-1.11335217952728,-2.82116842269897
206,2723027632,0.646708,0.374284,-0.564299,0.351091,9.95208835601807,0.86369067430496,0.90359961986542,4.37678813934326,0.03670300170779,-3.57377243041992
207,2723044299,0.646765,0.374837,-0.563938,0.350975,9.87143611907959,0.79953497648239,0.88427674770355,3.81174683570862,0.15286941826344,-3.39219141006470
208,2723060966,0.646804,0.375155,-0.563735,0.350889,9.87160778045654,0.80403405427933,0.93051159381866,2.55928492546082,0.02580479346216,-1.90413129329681
209,2723077633,0.646821,0.375284,-0.563640,0.350872,9.85440349578857,0.83318579196930,0.87346988916397,1.78211879730225,0.08878640830517,-0.51858663558960
210,2723094300,0.646858,0.375330,-0.563543,0.350909,9.82124900817871,0.83848154544830,0.83782464265823,1.58029067516327,0.52240943908691,-0.01593750156462
211,2723110967,0.646923,0.375339,-0.563439,0.350949,9.80343246459961,0.85903692245483,0.85213142633438,1.37460803985596,0.75649672746658,0.04945812001824
212,2723127634,0.646997,0.375371,-0.563314,0.350979,9.79827117919922,0.90066182613373,0.83648437261581,1.45581316947937,0.79942357540131,-0.15425889194012
213,2723144301,0.647072,0.375394,-0.563203,0.350994,9.81578731536865,0.90240782499313,0.76647222042084,1.33319234848022,0.72526198625565,-0.15159516036510
214,2723160968,0.647137,0.375400,-0.563135,0.350977,9.85937690734863,0.90231990814209,0.78562277555466,1.04746973514557,0.46086210012436,-0.09400501102209
215,2723177635,0.647185,0.375403,-0.563065,0.350998,9.86946105957031,0.90293818712234,0.67572534084320,1.23206043243408,0.50586360692978,0.12281288951635
216,2723194302,0.647364,0.375267,-0.563015,0.350893,9.77461910247803,0.95972478389740,0.88456737995148,-0.27027162909508,0.93374943733215,-0.16660423576832
217,2723210969,0.647488,0.375107,-0.563025,0.350819,9.82566070556641,0.84950280189514,0.76026213169098,-0.24567060172558,0.58763206005096,0.35321190953255
218,2723227636,0.647477,0.375053,-0.563048,0.350860,9.82707977294922,0.86806350946426,0.81714683771133,0.97955775260925,0.05294145271182,0.81591826677322
219,2723244303,0.647493,0.375116,-0.562947,0.350925,9.83512401580811,0.89037370681763,0.80558907985687,1.82668483257294,0.48396474123001,0.08298514783382
220,2723260970,0.647526,0.375061,-0.562973,0.350882,9.86104869842529,0.90013843774796,0.91531628370285,0.52787774801254,-0.00891962181777,0.34420904517174
221,2723277637,0.647636,0.374857,-0.563016,0.350828,9.85698986053467,0.94072371721268,0.86083221435547,-0.41320323944092,0.55317026376724,0.73327869176865
222,2723294304,0.647799,0.374560,-0.563077,0.350745,9.81117248535156,0.88423019647598,0.85011041164398,-1.12106132507324,0.82343548536301,0.87923270463943
223,2723310971,0.647899,0.374302,-0.563131,0.350749,9.82028961181641,0.88757306337357,0.81654065847397,-0.43193900585175,0.73252326250076,1.25237143039703
224,2723327638,0.647938,0.374152,-0.563140,0.350824,9.81960868835449,0.89457428455353,0.80136036872864,0.59115386009216,0.62607675790787,1.17922127246857
225,2723344305,0.647885,0.374141,-0.563137,0.350936,9.77223491668701,0.84261476993561,0.76298230886459,1.61440682411194,0.08449628949165,0.99945873022079
226,2723360972,0.647763,0.374214,-0.563131,0.351095,9.75747489929199,0.78924202919006,0.72553658485413,2.35020804405212,-0.25241950154305,1.04624021053314
227,2723377639,0.647586,0.374274,-0.563201,0.351245,9.74207115173340,0.80308121442795,0.73800605535507,2.22325897216797,-0.79265540838242,1.37285339832306
228,2723394306,0.647328,0.374321,-0.563359,0.351419,9.75927925109863,0.78600621223450,0.75214964151382,2.24718141555786,-1.41047215461731,1.95973002910614
229,2723410973,0.647063,0.374263,-0.563587,0.351603,9.78786754608154,0.88131195306778,0.82039624452591,1.67864370346069,-1.46565485000610,2.61012649536133
230,2723427640,0.646785,0.374219,-0.563798,0.351822,9.84155654907227,0.91003578901291,0.83243739604950,1.95018935203552,-1.39078891277313,2.69314956665039
231,2723444307,0.646526,0.374260,-0.563922,0.352057,9.84970283508301,0.92447096109390,0.78655010461807,2.54857873916626,-1.08604884147644,2.16739773750305
232,2723460974,0.646263,0.374449,-0.563950,0.352292,9.85388374328613,0.95913016796112,0.81088614463806,3.43357515335083,-1.03615558147430,1.35739660263062
233,2723477641,0.646024,0.374729,-0.563923,0.352476,9.87887763977051,0.96286708116531,0.84423983097076,3.72865867614746,-1.05285489559174,0.57674682140350
234,2723494308,0.645871,0.375008,-0.563874,0.352537,9.89469814300537,0.94862020015717,0.88107627630234,3.06477737426758,-0.93451130390167,-0.23043107986450
235,2723510975,0.645794,0.375183,-0.563850,0.352531,9.93671798706055,0.94920128583908,0.90113806724548,2.10659337043762,-0.67118728160858,-0.24376249313354
236,2723527642,0.645793,0.375268,-0.563831,0.352473,9.87319660186768,0.91725254058838,0.86575198173523,1.29773151874542,-0.31387722492218,-0.29840716719627
237,2723544309,0.645826,0.375264,-0.563838,0.352406,9.86126613616943,0.87656056880951,0.84267246723175,0.70688486099243,-0.10797671973705,-0.01018744986504
238,2723560976,0.645838,0.375229,-0.563863,0.352381,9.82396697998047,0.88955372571945,0.81781125068665,0.74039900302887,-0.08551438897848,0.40127414464951
239,2723577643,0.645834,0.375212,-0.563876,0.352385,9.82962512969971,0.87135165929794,0.82917755842209,1.00639986991882,-0.05860826745629,0.46447351574898
240,2723594310,0.645828,0.375202,-0.563892,0.352381,9.84907722473145,0.85450470447540,0.81440889835358,1.00627171993256,-0.12292174249887,0.41064840555191
241,2723610977,0.645883,0.375120,-0.563913,0.352333,9.83223438262939,0.85326522588730,0.79329538345337,0.34570738673210,0.15758213400841,0.36422535777092
242,2723627644,0.645934,0.375016,-0.563947,0.352298,9.83791351318359,0.87299871444702,0.87757980823517,0.29252263903618,0.16717410087585,0.54848319292068
243,2723644311,0.645826,0.375176,-0.563887,0.352421,9.76603889465332,0.81500232219696,0.60480201244354,2.69444322586060,-0.26281830668449,0.37336915731430
244,2723660978,0.645852,0.375153,-0.563953,0.352294,9.83540344238281,0.82422280311584,0.85708099603653,0.26812654733658,-0.50261718034744,-0.03647889196873
245,2723677645,0.645941,0.374865,-0.564145,0.352126,9.78667545318604,0.80924123525620,0.69450086355209,-1.53792083263397,-0.28388476371765,0.98539739847183
246,2723694312,0.645886,0.374640,-0.564375,0.352100,9.82539939880371,0.81753474473953,0.67414814233780,-0.41958081722260,-0.79651010036469,1.82064032554626
247,2723710979,0.645745,0.374602,-0.564563,0.352098,9.78179168701172,0.88462090492249,0.73368072509766,0.82110470533371,-1.33517062664032,1.30173969268799
248,2723727646,0.645543,0.374620,-0.564733,0.352177,9.87457370758057,0.85983008146286,0.79929554462433,1.58400475978851,-1.41787433624268,1.54481732845306
249,2723744313,0.645360,0.374680,-0.564805,0.352332,9.91239643096924,0.87037122249603,0.80464839935303,2.25924515724182,-0.81291502714157,1.41698408126831
250,2723760980,0.645237,0.374782,-0.564820,0.352423,9.85514450073242,0.88239246606827,0.78538966178894,2.17642641067505,-0.59966379404068,0.68147718906403
251,2723777647,0.645173,0.374736,-0.564905,0.352456,9.88529777526855,0.84278666973114,0.84021091461182,0.97456318140030,-0.47057572007179,1.03640508651733
252,2723794314,0.645178,0.374576,-0.564987,0.352483,9.86041355133057,0.87181222438812,0.77011340856552,0.27714222669601,0.07190766185522,1.27812504768372
253,2723810981,0.645197,0.374447,-0.565032,0.352515,9.82766437530518,0.84774208068848,0.75596529245377,0.47409111261368,0.23070639371872,1.04995429515839
254,2723827648,0.645177,0.374385,-0.565057,0.352576,9.79602527618408,0.82403689622879,0.73661589622498,1.03694295883179,0.08272901922464,0.95806872844696
255,2723844315,0.645127,0.374341,-0.565107,0.352634,9.80878162384033,0.84660840034485,0.78188687562943,1.12424397468567,-0.19984951615334,1.01376342773438
256,2723860982,0.645085,0.374275,-0.565164,0.352692,9.82840633392334,0.84680396318436,0.76943904161453,0.99335014820099,-0.15092924237251,1.09943795204163
257,2723877649,0.645089,0.374144,-0.565241,0.352697,9.82605934143066,0.85761439800262,0.77150303125381,0.35746359825134,-0.03241926804185,1.05704879760742
258,2723894316,0.645130,0.373972,-0.565341,0.352644,9.84542751312256,0.84989464282990,0.74937111139297,-0.22984194755554,-0.04499511048198,0.92749977111816
259,2723910983,0.645165,0.373819,-0.565433,0.352598,9.84309482574463,0.83461678028107,0.77046364545822,-0.08326048403978,-0.05789110437036,0.88082069158554
260,2723927650,0.645193,0.373706,-0.565467,0.352609,9.86694431304932,0.83655500411987,0.79189789295197,0.45585477352142,0.21877086162567,0.83954584598541
261,2723944317,0.645177,0.373691,-0.565469,0.352652,9.82917404174805,0.80556482076645,0.67892980575562,1.20567941665649,0.03409050405025,0.62457847595215
262,2723960984,0.645281,0.373588,-0.565474,0.352562,9.79294204711914,0.85627990961075,0.86408668756485,0.00674894591793,0.36175376176834,0.10396195203066
263,2723977651,0.645347,0.373453,-0.565555,0.352455,9.80676460266113,0.78490239381790,0.74343985319138,-0.29940605163574,-0.08912578225136,0.43414804339409
264,2723994318,0.645342,0.373390,-0.565655,0.352369,9.79465866088867,0.75895690917969,0.72393894195557,0.22984832525253,-0.57326978445053,0.46621510386467
265,2724010985,0.645337,0.373368,-0.565782,0.352199,9.78489971160889,0.82164353132248,0.78521847724915,0.06887254863977,-1.00460040569305,0.00955353584141
266,2724027652,0.645268,0.373327,-0.565970,0.352067,9.81462669372559,0.85088586807251,0.78385043144226,0.10726597905159,-1.38063347339630,0.55834406614304
267,2724044319,0.645215,0.373278,-0.566191,0.351862,9.83781051635742,0.90457326173782,0.76807528734207,-0.32499319314957,-1.63848924636841,0.30992650985718
268,2724060986,0.645219,0.373260,-0.566353,0.351612,9.84545993804932,0.86247271299362,0.75978100299835,-0.37375971674919,-1.33528614044189,-0.29503908753395
269,2724077653,0.645199,0.373372,-0.566441,0.351387,9.84584808349609,0.83866328001022,0.74855935573578,0.54462844133377,-1.36343455314636,-0.82599043846130
270,2724094320,0.645168,0.373637,-0.566424,0.351191,9.83546924591064,0.82184976339340,0.80665677785873,1.53425192832947,-1.23257911205292,-1.54059755802155
271,2724110987,0.645165,0.373908,-0.566379,0.350979,9.83889961242676,0.79344755411148,0.81196665763855,1.58073902130127,-1.05402016639709,-1.76916515827179
272,2724127654,0.645142,0.374153,-0.566396,0.350733,9.82699966430664,0.79458165168762,0.77734386920929,1.22752702236176,-1.42749178409576,-1.60879147052765
273,2724144321,0.645109,0.374375,-0.566441,0.350486,9.84995174407959,0.81760603189468,0.75626176595688,1.06575727462769,-1.54017496109009,-1.43106472492218
274,2724160988,0.645094,0.374558,-0.566512,0.350201,9.82542991638184,0.84692442417145,0.74981993436813,0.69914990663528,-1.58111691474915,-1.42113995552063
275,2724177655,0.645032,0.374793,-0.566581,0.349954,9.85515308380127,0.85916483402252,0.78308397531509,1.15421068668365,-1.79262626171112,-1.34659397602081
276,2724194322,0.644927,0.375116,-0.566596,0.349776,9.86619281768799,0.85973513126373,0.75510567426682,2.05371570587158,-1.75160753726959,-1.42078113555908
277,2724210989,0.644782,0.375524,-0.566588,0.349617,9.88524246215820,0.82268923521042,0.73546510934830,2.65948200225830,-1.96190083026886,-1.63212466239929
278,2724227656,0.644624,0.375940,-0.566584,0.349471,9.85070037841797,0.81475853919983,0.78249949216843,2.79484510421753,-2.01182007789612,-1.55846238136292
279,2724244323,0.644490,0.376287,-0.566605,0.349308,9.85783958435059,0.82740128040314,0.75655782222748,2.28259086608887,-1.91135418415070,-1.36447167396545
280,2724260990,0.644372,0.376549,-0.566668,0.349141,9.85212421417236,0.83841270208359,0.75064605474472,1.74592816829681,-1.84038150310516,-0.98015326261520
281,2724277657,0.644268,0.376765,-0.566743,0.348980,9.85806179046631,0.85555374622345,0.72615700960159,1.51759099960327,-1.71102452278137,-0.77580237388611
282,2724294324,0.644155,0.376962,-0.566811,0.348863,9.83269500732422,0.87682175636292,0.69758278131485,1.62867319583893,-1.55824458599091,-0.50187444686890
283,2724310991,0.644033,0.377175,-0.566855,0.348787,9.83368492126465,0.86490052938461,0.68347245454788,1.94262087345123,-1.41643989086151,-0.42156583070755
284,2724327658,0.643913,0.377352,-0.566902,0.348743,9.83222198486328,0.88647139072418,0.68834018707275,1.91467750072479,-1.25390172004700,-0.14205443859100
285,2724344325,0.643796,0.377486,-0.566981,0.348685,9.82554817199707,0.88445413112640,0.67265135049820,1.63022267818451,-1.31233704090118,0.04642301797867
286,2724360992,0.643653,0.377630,-0.567083,0.348627,9.79434394836426,0.88480609655380,0.67037969827652,1.59941077232361,-1.54650139808655,0.12350444495678
287,2724377659,0.643459,0.377731,-0.567277,0.348560,9.85264205932617,0.92672401666641,0.71111106872559,1.28018677234650,-2.06944847106934,0.60828876495361
288,2724394326,0.643286,0.377803,-0.567464,0.348496,9.86545562744141,0.93721842765808,0.72129917144775,1.16121578216553,-1.88233506679535,0.67251265048981
289,2724410993,0.643122,0.377848,-0.567655,0.348439,9.86733627319336,0.93907004594803,0.69141364097595,1.02741515636444,-1.77976894378662,0.79974383115768
290,2724427660,0.642983,0.377900,-0.567796,0.348410,9.85233688354492,0.95627009868622,0.71062833070755,1.21406757831573,-1.40490114688873,0.69958519935608
291,2724444327,0.642722,0.378145,-0.567863,0.348517,9.84714698791504,0.92084789276123,0.52900803089142,3.11958861351013,-1.66042673587799,0.65144628286362
292,2724460994,0.642508,0.378348,-0.568058,0.348373,9.80830955505371,0.97557169198990,0.86264938116074,1.50758898258209,-2.59964418411255,-0.07341239601374
293,2724477661,0.642507,0.378267,-0.568200,0.348229,9.87410163879395,0.89526891708374,0.68000876903534,-0.18628755211830,-0.85543209314346,0.38649562001228
294,2724494328,0.642481,0.378054,-0.568512,0.348001,9.77936267852783,0.90263432264328,0.55266165733337,-1.43247365951538,-1.60199105739594,1.03680217266083
295,2724510995,0.642311,0.378008,-0.568779,0.347929,9.78537082672119,0.93658149242401,0.60371667146683,0.39922514557838,-1.96111977100372,1.29733443260193
296,2724527662,0.642030,0.378053,-0.569078,0.347908,9.83511066436768,0.90635687112808,0.62561935186386,1.20242667198181,-2.62315678596497,1.51403081417084
297,2724544329,0.641684,0.378240,-0.569304,0.347974,9.87137985229492,0.86490315198898,0.64453721046448,2.51003217697144,-2.66959285736084,1.30742597579956
298,2724560996,0.641368,0.378519,-0.569415,0.348073,9.82102012634277,0.89484536647797,0.63368701934814,3.25260853767395,-2.17922472953796,0.72339230775833
299,2724577663,0.641062,0.378771,-0.569606,0.348049,9.85392379760742,0.90383070707321,0.63314855098724,2.40444350242615,-2.74358773231506,0.46575418114662
300,2724594330,0.640816,0.378851,-0.569854,0.348008,9.88688850402832,0.88078707456589,0.65112286806107,1.30272579193115,-2.39922451972961,1.07436299324036
301,2724610997,0.640623,0.378872,-0.570058,0.348006,9.87539482116699,0.90003615617752,0.62096095085144,1.14218556880951,-1.75231218338013,1.23790013790131
302,2724627664,0.640448,0.378941,-0.570200,0.348020,9.83804798126221,0.90817284584045,0.56912845373154,1.51601564884186,-1.48699009418488,0.90711218118668
303,2724644331,0.640233,0.379069,-0.570333,0.348059,9.81331920623779,0.87896311283112,0.60165065526962,2.04998922348022,-1.66880190372467,0.86729723215103
304,2724660998,0.639989,0.379190,-0.570481,0.348133,9.82348728179932,0.86543828248978,0.56600993871689,2.19306182861328,-1.74566566944122,1.15617012977600
305,2724677665,0.639772,0.379245,-0.570676,0.348155,9.80588436126709,0.86877006292343,0.57739317417145,1.53450798988342,-1.82579469680786,1.24671089649200
306,2724694332,0.639568,0.379231,-0.570935,0.348119,9.86198997497559,0.88179719448090,0.59948992729187,0.82009297609329,-2.03485846519470,1.39801788330078
307,2724710999,0.639392,0.379156,-0.571201,0.348087,9.89139270782471,0.86925137042999,0.60723823308945,0.43670931458473,-1.80623948574066,1.59710550308228
308,2724727666,0.639245,0.379087,-0.571425,0.348065,9.88638782501221,0.88637149333954,0.58658856153488,0.50270050764084,-1.49792683124542,1.44865429401398
309,2724744333,0.639102,0.379035,-0.571614,0.348074,9.89101600646973,0.86947584152222,0.60330557823181,0.80708175897598,-1.28213965892792,1.40986371040344
310,2724761000,0.638951,0.379077,-0.571715,0.348139,9.85435009002686,0.82239764928818,0.52262157201767,1.67426395416260,-1.00835275650024,1.07810258865356
311,2724777667,0.638852,0.379066,-0.571808,0.348180,9.84235572814941,0.88674670457840,0.62210309505463,1.17167878150940,-0.71066921949387,1.03573918342590
312,2724794334,0.638715,0.379052,-0.571979,0.348166,9.81087875366211,0.83350616693497,0.50830918550491,0.89944118261337,-1.33794963359833,1.09872066974640
313,2724811001,0.638573,0.378958,-0.572214,0.348143,9.89580154418945,0.82252418994904,0.67082238197327,0.38689264655113,-1.46400272846222,1.55365359783173
314,2724827668,0.638447,0.378942,-0.572325,0.348208,9.81406497955322,0.87131947278976,0.56761330366135,1.29810285568237,-0.82286554574966,1.27605020999908
315,2724844335,0.638269,0.378997,-0.572446,0.348278,9.86760711669922,0.84514886140823,0.56860500574112,1.75317656993866,-1.22066938877106,1.16168963909149
316,2724861002,0.638139,0.379017,-0.572562,0.348303,9.84766769409180,0.87021613121033,0.57575297355652,1.31870806217194,-1.04258394241333,0.98254138231277
317,2724877669,0.638039,0.378982,-0.572702,0.348293,9.85429668426514,0.86977297067642,0.55313217639923,0.84274756908417,-0.98989892005920,1.03586721420288
318,2724894336,0.637958,0.378909,-0.572853,0.348273,9.87246608734131,0.86296993494034,0.56895953416824,0.53210383653641,-0.89700150489807,1.11206495761871
319,2724911003,0.637892,0.378851,-0.572971,0.348263,9.86892032623291,0.86991274356842,0.59680426120758,0.68000441789627,-0.70404833555222,0.99318355321884
320,2724927670,0.637851,0.378816,-0.573045,0.348254,9.85981273651123,0.84823024272919,0.60504782199860,0.77450233697891,-0.46884685754776,0.72067719697952
321,2724944337,0.637797,0.378765,-0.573136,0.348259,9.85810565948486,0.81378537416458,0.56251579523087,0.79661893844604,-0.52324819564819,0.92273581027985
322,2724961004,0.637741,0.378709,-0.573229,0.348268,9.87167739868164,0.82025015354156,0.53310960531235,0.77215886116028,-0.51197868585587,0.96626460552216
323,2724977671,0.637700,0.378649,-0.573325,0.348252,9.85269451141357,0.84213417768478,0.52687358856201,0.62692201137543,-0.52008503675461,0.84697353839874
324,2724994338,0.637678,0.378583,-0.573436,0.348181,9.84692764282227,0.83251029253006,0.51933622360229,0.29180550575256,-0.64493417739868,0.62423264980316
325,2725011005,0.637634,0.378534,-0.573543,0.348140,9.85962200164795,0.81339883804321,0.52123117446899,0.54183661937714,-0.67130243778229,0.73375254869461
326,2725027672,0.637542,0.378550,-0.573635,0.348139,9.86601161956787,0.80989223718643,0.53067338466644,1.08643960952759,-0.85325515270233,0.72036993503571
327,2725044339,0.637432,0.378618,-0.573706,0.348148,9.85826396942139,0.80978751182556,0.49847277998924,1.50465643405914,-0.93056696653366,0.54827821254730
328,2725061006,0.637337,0.378641,-0.573792,0.348156,9.87982368469238,0.79298621416092,0.53549480438232,1.25276839733124,-0.82811623811722,0.73651874065399
329,2725077673,0.637282,0.378617,-0.573868,0.348156,9.85735321044922,0.83314812183380,0.52661836147308,0.92283838987350,-0.53278899192810,0.75152784585953
330,2725094340,0.637261,0.378569,-0.573947,0.348116,9.86347484588623,0.83411020040512,0.49137675762177,0.58613383769989,-0.45782059431076,0.60644459724426
331,2725111007,0.637236,0.378534,-0.574024,0.348074,9.83737754821777,0.82244592905045,0.48989415168762,0.62889420986176,-0.50588279962540,0.54748421907425
332,2725127674,0.637191,0.378538,-0.574081,0.348057,9.85052013397217,0.83618348836899,0.49749100208282,1.01239323616028,-0.52071261405945,0.49858963489532
333,2725144341,0.637124,0.378566,-0.574130,0.348068,9.86293029785156,0.81660348176956,0.54606837034225,1.31084525585175,-0.55753082036972,0.56136637926102
334,2725161008,0.637075,0.378594,-0.574153,0.348091,9.85240364074707,0.80639851093292,0.51752811670303,1.34137558937073,-0.34458687901497,0.49867928028107
335,2725177675,0.637026,0.378599,-0.574205,0.348090,9.85427379608154,0.82387536764145,0.52314901351929,1.08853960037231,-0.47289365530014,0.56666815280914
336,2725194342,0.636994,0.378581,-0.574256,0.348082,9.87771320343018,0.82407015562057,0.55845254659653,0.91669124364853,-0.37104475498199,0.57681071758270
337,2725211009,0.636962,0.378581,-0.574290,0.348087,9.86917114257812,0.82165056467056,0.53280699253082,1.10169196128845,-0.30217224359512,0.51991218328476
338,2725227676,0.636933,0.378608,-0.574305,0.348086,9.87084102630615,0.82221770286560,0.53612029552460,1.23592793941498,-0.29278516769409,0.33121058344841
339,2725244343,0.636905,0.378649,-0.574305,0.348093,9.86533927917480,0.82334619760513,0.52877765893936,1.36481118202209,-0.22758804261684,0.27049571275711
340,2725261010,0.636888,0.378696,-0.574301,0.348080,9.85367965698242,0.80752807855606,0.51727426052094,1.27656257152557,-0.23817892372608,0.12208292633295
341,2725277677,0.636866,0.378698,-0.574317,0.348091,9.86074829101562,0.81914198398590,0.52354198694229,1.15157258510590,-0.17191883921623,0.46732935309410
342,2725294344,0.636865,0.378680,-0.574336,0.348080,9.86546134948730,0.82350575923920,0.53409022092819,0.90394896268845,-0.11457201093435,0.41021296381950
343,2725311011,0.636867,0.378661,-0.574354,0.348065,9.86249065399170,0.83018910884857,0.52186429500580,0.87937366962433,-0.10810481011868,0.38431859016418
344,2725327678,0.636857,0.378666,-0.574374,0.348046,9.85546684265137,0.82448315620422,0.50567394495010,0.98457777500153,-0.23148116469383,0.30818477272987
345,2725344345,0.636854,0.378679,-0.574374,0.348038,9.85959053039551,0.80771571397781,0.48709154129028,1.10381770133972,-0.10781025886536,0.25090202689171
346,2725361012,0.636845,0.378706,-0.574375,0.348024,9.84617710113525,0.80928200483322,0.49856105446815,1.11743080615997,-0.17970509827137,0.18697269260883
347,2725377679,0.636827,0.378704,-0.574405,0.348010,9.87229824066162,0.82456880807877,0.50764340162277,1.02814495563507,-0.27579113841057,0.40410435199738
348,2725394346,0.636809,0.378710,-0.574417,0.348015,9.84646987915039,0.80798524618149,0.49380955100060,1.14751303195953,-0.16322335600853,0.40964955091476
349,2725411013,0.636782,0.378716,-0.574442,0.348018,9.86227130889893,0.80695062875748,0.53724908828735,1.12409019470215,-0.26256218552589,0.45197448134422
350,2725427680,0.636772,0.378689,-0.574465,0.348028,9.85632324218750,0.83221936225891,0.52715039253235,0.96438217163086,-0.09121321886778,0.57085573673248
351,2725444347,0.636757,0.378680,-0.574489,0.348025,9.85877895355225,0.84949839115143,0.50813281536102,1.02107596397400,-0.18916900455952,0.45333197712898
352,2725461014,0.636758,0.378638,-0.574517,0.348024,9.85663604736328,0.82001852989197,0.55453169345856,0.85159671306610,-0.06584385037422,0.56615591049194
353,2725477681,0.636748,0.378618,-0.574534,0.348034,9.87479877471924,0.80933505296707,0.50289803743362,0.99311953783035,-0.07902157306671,0.52258867025375
354,2725494348,0.636733,0.378600,-0.574548,0.348057,9.85624694824219,0.83955150842667,0.52346628904343,1.08604252338409,-0.05896683782339,0.57788652181625
355,2725511015,0.636733,0.378597,-0.574553,0.348054,9.86162757873535,0.81275355815887,0.49015974998474,1.03522682189941,-0.06396131217480,0.34321019053459
356,2725527682,0.636713,0.378559,-0.574604,0.348049,9.85403251647949,0.81479728221893,0.52572089433670,0.79203432798386,-0.26938796043396,0.64284032583237
357,2725544349,0.636694,0.378534,-0.574635,0.348059,9.88075923919678,0.83390933275223,0.52713406085968,0.96543222665787,-0.16870445013046,0.60585558414459
358,2725561016,0.636672,0.378524,-0.574661,0.348066,9.88083648681641,0.82477295398712,0.51131647825241,1.02708196640015,-0.20558671653271,0.51983529329300
359,2725577683,0.636686,0.378493,-0.574673,0.348056,9.87143421173096,0.81904673576355,0.51757764816284,0.80171591043472,0.01103907451034,0.40715226531029
360,2725594350,0.636653,0.378493,-0.574682,0.348099,9.86585998535156,0.80954372882843,0.44146111607552,1.28647470474243,-0.10172724723816,0.62308019399643
361,2725611017,0.636505,0.378702,-0.574643,0.348207,9.80772876739502,0.85094773769379,0.48214960098267,2.87694668769836,-0.67693734169006,0.23034784197807
362,2725627684,0.636507,0.378744,-0.574642,0.348160,9.93256187438965,0.77452689409256,0.64292430877686,1.06669199466705,-0.24759155511856,-0.04222893714905
363,2725644351,0.636607,0.378533,-0.574740,0.348046,9.79012393951416,0.80198758840561,0.43493080139160,-0.80451405048370,0.12894712388515,0.68132340908051
364,2725661018,0.636649,0.378367,-0.574848,0.347970,9.84455776214600,0.81298965215683,0.43322363495827,-0.33731287717819,-0.14697206020355,0.83634424209595
365,2725677685,0.636564,0.378277,-0.575026,0.347929,9.84300422668457,0.77606308460236,0.48617750406265,0.30844095349312,-1.04874408245087,1.18144989013672
366,2725694352,0.636389,0.378281,-0.575135,0.348063,9.91732978820801,0.83268105983734,0.53258931636810,1.88302016258240,-0.86540836095810,1.60523760318756
367,2725711019,0.636234,0.378441,-0.575154,0.348144,9.84974384307861,0.83476758003235,0.49990308284760,2.44973969459534,-0.91189527511597,0.48092967271805
368,2725727686,0.636116,0.378522,-0.575221,0.348160,9.87370109558105,0.80489742755890,0.52424049377441,1.64346432685852,-0.95388734340668,0.53511333465576
369,2725744353,0.636056,0.378516,-0.575302,0.348142,9.89607620239258,0.82262051105499,0.50560700893402,0.89955651760101,-0.66816496849060,0.62894546985626
370,2725761020,0.636043,0.378462,-0.575369,0.348115,9.85956287384033,0.80341351032257,0.51251709461212,0.60413950681686,-0.32404547929764,0.63929295539856
371,2725777687,0.636005,0.378486,-0.575380,0.348139,9.85377502441406,0.81529170274734,0.46683493256569,1.33557438850403,-0.23428578674793,0.46031147241592
372,2725794354,0.635935,0.378581,-0.575356,0.348205,9.84373950958252,0.80294436216354,0.46991989016533,1.97261309623718,-0.27205166220665,0.35045853257179
373,2725811021,0.635838,0.378659,-0.575349,0.348307,9.85006904602051,0.79040932655334,0.46816393733025,2.05600833892822,-0.31395408511162,0.68443542718887
374,2725827688,0.635763,0.378691,-0.575375,0.348367,9.84204387664795,0.81247037649155,0.47636651992798,1.58150720596313,-0.37861329317093,0.71940940618515
375,2725844355,0.635716,0.378686,-0.575447,0.348337,9.86269760131836,0.80907499790192,0.48789983987808,0.87774717807770,-0.60810303688049,0.51923346519470
376,2725861022,0.635692,0.378646,-0.575520,0.348305,9.87743949890137,0.81707632541656,0.49254453182220,0.65289336442947,-0.44060882925987,0.59362554550171
377,2725877689,0.635666,0.378628,-0.575555,0.348315,9.89520645141602,0.82098418474197,0.48791953921318,1.00427389144897,-0.23045666515827,0.60041290521622
378,2725894356,0.635667,0.378627,-0.575551,0.348321,9.90487957000732,0.79525041580200,0.51905602216721,1.08943605422974,-0.00405320944265,0.35682329535484
379,2725911023,0.635693,0.378611,-0.575512,0.348355,9.88628673553467,0.78049278259277,0.49268132448196,1.13861262798309,0.35974314808846,0.37812030315399
380,2725927690,0.635665,0.378653,-0.575467,0.348434,9.83461666107178,0.81526756286621,0.47108215093613,1.74066472053528,0.14645342528820,0.46343624591827
381,2725944357,0.635650,0.378697,-0.575411,0.348506,9.81261062622070,0.81701642274857,0.42492276430130,1.71129989624023,0.22655713558197,0.36211234331131
382,2725961024,0.635651,0.378628,-0.575491,0.348448,9.88467597961426,0.78297126293182,0.55273145437241,0.38366544246674,-0.37014833092690,0.56354343891144
383,2725977691,0.635664,0.378603,-0.575467,0.348490,9.85169124603271,0.79934507608414,0.50500744581223,1.14105856418610,0.27994680404663,0.51858037710190
384,2725994358,0.635613,0.378690,-0.575439,0.348535,9.84186935424805,0.80503422021866,0.50953358411789,1.81857824325562,-0.21158006787300,0.23828771710396
385,2726011025,0.635575,0.378755,-0.575408,0.348585,9.87944412231445,0.80477738380432,0.51169496774673,1.72247982025146,-0.08140356838703,0.30430451035500
386,2726027692,0.635559,0.378743,-0.575413,0.348620,9.87463378906250,0.81709188222885,0.49084699153900,1.18157792091370,-0.00779266329482,0.57898789644241
387,2726044359,0.635579,0.378686,-0.575433,0.348612,9.87221240997314,0.80664426088333,0.50587898492813,0.67671310901642,0.06163696199656,0.53066945075989
388,2726061026,0.635628,0.378629,-0.575429,0.348589,9.86281490325928,0.82219129800797,0.49979257583618,0.61347532272339,0.25177285075188,0.33115938305855
389,2726077693,0.635670,0.378605,-0.575393,0.348601,9.87295913696289,0.79528266191483,0.51897960901260,0.98090237379074,0.36881005764008,0.28380152583122
390,2726094360,0.635720,0.378580,-0.575335,0.348630,9.86574363708496,0.78383684158325,0.51226991415024,1.06392586231232,0.54388564825058,0.28760495781898
391,2726111027,0.635772,0.378513,-0.575316,0.348642,9.86212539672852,0.78897041082382,0.51183986663818,0.74487483501434,0.43925136327744,0.47878459095955
392,2726127694,0.635788,0.378466,-0.575308,0.348674,9.84883022308350,0.79647582769394,0.50135076045990,0.93355721235275,0.24863527715206,0.59874808788300
393,2726144361,0.635817,0.378435,-0.575286,0.348693,9.86332511901855,0.79424417018890,0.45609918236732,0.96325516700745,0.29116514325142,0.41255652904510
394,2726161028,0.635850,0.378428,-0.575254,0.348694,9.85692501068115,0.79969590902328,0.48266777396202,0.99210792779922,0.24191196262836,0.19470775127411
395,2726177695,0.635884,0.378421,-0.575226,0.348686,9.86586093902588,0.79374355077744,0.49298939108849,0.98356604576111,0.21304641664028,0.17424318194389
396,2726194362,0.635890,0.378472,-0.575183,0.348690,9.87393569946289,0.78412371873856,0.49616289138794,1.38557028770447,0.05887078866363,0.02456257864833
397,2726211029,0.635883,0.378545,-0.575131,0.348708,9.88242530822754,0.77660006284714,0.48091301321983,1.64323389530182,0.03301476687193,0.00733803864568
398,2726227696,0.635884,0.378608,-0.575077,0.348727,9.88953495025635,0.81018006801605,0.49700281023979,1.54480433464050,0.09447243064642,0.02207814715803
399,2726244363,0.635903,0.378635,-0.575037,0.348730,9.85842227935791,0.79979199171066,0.52746641635895,1.24229288101196,0.15162718296051,0.09016951918602
400,2726261030,0.635918,0.378654,-0.575017,0.348714,9.83820438385010,0.79248511791229,0.50322937965393,1.09422576427460,0.02166834473610,0.09599640220404
401,2726277697,0.635931,0.378672,-0.575010,0.348685,9.85166740417480,0.80062758922577,0.49065849184990,1.04416584968567,-0.07991802692413,0.08886326849461
402,2726294364,0.635930,0.378708,-0.574994,0.348672,9.84539890289307,0.81548684835434,0.50625151395798,1.18606007099152,-0.09627173095942,0.09586832672358
403,2726311031,0.635917,0.378728,-0.574989,0.348682,9.86239528656006,0.79527711868286,0.52468597888947,1.24899053573608,-0.09807743132114,0.31763589382172
404,2726327698,0.635915,0.378736,-0.574978,0.348695,9.86879920959473,0.80549526214600,0.50216478109360,1.15081715583801,0.01585426181555,0.32886707782745
405,2726344365,0.635910,0.378752,-0.574970,0.348699,9.88112735748291,0.78845912218094,0.51440054178238,1.19481956958771,-0.05471512675285,0.28227758407593
406,2726361032,0.635912,0.378753,-0.574966,0.348702,9.87444972991943,0.80538368225098,0.51281720399857,1.07027781009674,-0.01016183849424,0.32523006200790
407,2726377699,0.635924,0.378747,-0.574956,0.348703,9.88601970672607,0.80239677429199,0.51325124502182,1.01782321929932,0.05933181941509,0.30506008863449
408,2726394366,0.635938,0.378742,-0.574949,0.348695,9.87839031219482,0.81148648262024,0.50920081138611,0.99948430061340,0.03991739079356,0.26619276404381
409,2726411033,0.635957,0.378733,-0.574944,0.348678,9.87390995025635,0.81222110986710,0.52822571992874,0.95105069875717,0.02992843836546,0.23794196546078
410,2726427700,0.635981,0.378717,-0.574939,0.348660,9.83560848236084,0.81628113985062,0.51250535249710,0.84810048341751,0.06723333150148,0.24711130559444
411,2726444367,0.635999,0.378681,-0.574960,0.348630,9.84783458709717,0.79736191034317,0.48878172039986,0.68347477912903,-0.05702026933432,0.35218739509583
412,2726461034,0.635997,0.378643,-0.575008,0.348597,9.84058856964111,0.79397881031036,0.51357555389404,0.61852115392685,-0.25889956951141,0.46754705905914
413,2726477701,0.635992,0.378593,-0.575059,0.348577,9.85385894775391,0.81141936779022,0.53226298093796,0.65350806713104,-0.21826502680779,0.58694070577621
414,2726494368,0.635983,0.378529,-0.575120,0.348562,9.86822700500488,0.82895880937576,0.51760059595108,0.60294854640961,-0.23031581938267,0.70301747322083
415,2726511035,0.635980,0.378501,-0.575152,0.348546,9.88756847381592,0.80500614643097,0.52156341075897,0.80791413784027,-0.16360749304295,0.46337214112282
416,2726527702,0.635995,0.378473,-0.575161,0.348535,9.86988639831543,0.79456013441086,0.50918424129486,0.83224618434906,0.01383085735142,0.37954178452492
417,2726544369,0.636005,0.378468,-0.575170,0.348507,9.84869194030762,0.80179971456528,0.50096452236176,0.88938814401627,-0.10227791219950,0.23009167611599
418,2726561036,0.636013,0.378463,-0.575184,0.348474,9.85757255554199,0.77780115604401,0.48004147410393,0.87030667066574,-0.14277157187462,0.22695411741734
419,2726577703,0.635993,0.378450,-0.575221,0.348462,9.87360191345215,0.78617453575134,0.52604103088379,0.93355721235275,-0.28594660758972,0.47888064384460
420,2726594370,0.635970,0.378450,-0.575244,0.348467,9.87285900115967,0.81154555082321,0.49992349743843,1.07888364791870,-0.21889251470566,0.46962162852287
421,2726611037,0.635953,0.378448,-0.575260,0.348475,9.87846183776855,0.82122051715851,0.51523941755295,1.08448016643524,-0.15338805317879,0.45904362201691
422,2726627704,0.635992,0.378417,-0.575245,0.348461,9.86582756042480,0.81355416774750,0.51159155368805,0.82125836610794,0.21478809416294,0.26379799842834
423,2726644371,0.635939,0.378476,-0.575218,0.348538,9.85188293457031,0.80235379934311,0.42124834656715,1.83859455585480,-0.07297697663307,0.48758897185326
424,2726661038,0.635822,0.378670,-0.575199,0.348572,9.82912063598633,0.84770494699478,0.53540402650833,2.40017890930176,-0.79821324348450,-0.05133425071836
425,2726677705,0.635865,0.378664,-0.575198,0.348502,9.93622398376465,0.75838112831116,0.62391573190689,0.67151379585266,-0.03171492367983,-0.05311433225870
426,2726694372,0.635957,0.378478,-0.575289,0.348386,9.79773616790771,0.79655790328979,0.40494230389595,-0.65995597839355,0.06642653793097,0.57613199949265
427,2726711039,0.636010,0.378370,-0.575350,0.348306,9.83853244781494,0.76031953096390,0.43694457411766,-0.01463125459850,-0.05162879824638,0.44576337933540
428,2726727706,0.635940,0.378307,-0.575490,0.348270,9.84378337860107,0.76865833997726,0.47880083322525,0.50519764423370,-0.86812317371368,0.95694166421890
429,2726744373,0.635804,0.378333,-0.575572,0.348355,9.90802860260010,0.80594712495804,0.52157604694366,1.71678102016449,-0.78323000669479,1.14331269264221
430,2726761040,0.635706,0.378456,-0.575556,0.348428,9.87229061126709,0.80182915925980,0.51199871301651,2.19772338867188,-0.46387800574303,0.35830888152122
431,2726777707,0.635594,0.378554,-0.575613,0.348430,9.88400650024414,0.81861335039139,0.52704274654388,1.65283882617950,-0.95797258615494,0.37034681439400
432,2726794374,0.635547,0.378586,-0.575672,0.348383,9.89882278442383,0.81084537506104,0.48876100778580,0.95166552066803,-0.69482779502869,0.26236373186111
433,2726811041,0.635551,0.378520,-0.575738,0.348340,9.87456703186035,0.79761201143265,0.46736416220665,0.43453222513199,-0.27120646834373,0.57129120826721
434,2726827708,0.635549,0.378517,-0.575747,0.348332,9.83942413330078,0.78448963165283,0.44337582588196,1.01897549629211,-0.09732186049223,0.33730643987656
435,2726844375,0.635517,0.378579,-0.575725,0.348358,9.82825756072998,0.77495223283768,0.45999309420586,1.57227396965027,-0.15176166594028,0.22354765236378
436,2726861042,0.635442,0.378629,-0.575745,0.348408,9.86234760284424,0.76472502946854,0.47434967756271,1.62987709045410,-0.41933754086494,0.58076798915863
437,2726877709,0.635392,0.378608,-0.575792,0.348446,9.84205055236816,0.78146320581436,0.45294165611267,1.12257897853851,-0.29845836758614,0.82356351613998
438,2726894376,0.635395,0.378535,-0.575872,0.348386,9.84159374237061,0.79630333185196,0.46583318710327,0.30634072422981,-0.35917329788208,0.56091809272766
439,2726911043,0.635411,0.378445,-0.575965,0.348301,9.87169170379639,0.80403506755829,0.46257516741753,0.09160381555557,-0.38663011789322,0.52516281604767
440,2726927710,0.635414,0.378379,-0.576030,0.348259,9.88885307312012,0.81962376832962,0.48768380284309,0.44372713565826,-0.26782560348511,0.57399338483810
441,2726944377,0.635426,0.378359,-0.576041,0.348242,9.87892627716064,0.79933261871338,0.49971929192543,0.86353224515915,-0.04172949492931,0.33329808712006
442,2726961044,0.635454,0.378340,-0.576016,0.348252,9.89252471923828,0.78326660394669,0.46451938152313,1.00298047065735,0.25269490480423,0.32353967428207
443,2726977711,0.635469,0.378312,-0.576009,0.348267,9.85211086273193,0.78270190954208,0.48454049229622,1.02124226093292,0.15111492574215,0.45443329215050
444,2726994378,0.635504,0.378302,-0.575960,0.348296,9.83789920806885,0.78551936149597,0.43351978063583,1.13884317874908,0.41090452671051,0.29087060689926
445,2727011045,0.635509,0.378205,-0.576067,0.348213,9.85506153106689,0.74685156345367,0.52112495899200,0.05235235765576,-0.47331625223160,0.62017309665680
446,2727027712,0.635503,0.378155,-0.576079,0.348260,9.91028785705566,0.79555803537369,0.52844649553299,1.00467097759247,0.12166031450033,0.77769124507904
447,2727044379,0.635456,0.378215,-0.576064,0.348305,9.85190963745117,0.80734580755234,0.52828270196915,1.66307115554810,-0.18481484055519,0.36804169416428
448,2727061046,0.635415,0.378276,-0.576034,0.348365,9.89354133605957,0.78677725791931,0.52698206901550,1.72665441036224,-0.06729096174240,0.37226775288582
449,2727077713,0.635426,0.378262,-0.576029,0.348368,9.87627220153809,0.81558728218079,0.50164920091629,1.00805187225342,0.06506906449795,0.36449432373047
450,2727094380,0.635464,0.378190,-0.576063,0.348318,9.87616825103760,0.78345763683319,0.50225329399109,0.37007790803909,0.00353455287404,0.39392334222794
451,2727111047,0.635505,0.378118,-0.576085,0.348286,9.84749126434326,0.80423539876938,0.50925582647324,0.47150424122810,0.10861065983772,0.44042319059372
452,2727127714,0.635532,0.378095,-0.576072,0.348283,9.85387229919434,0.79047745466232,0.51762270927429,0.95043599605560,0.17421756684780,0.31109184026718
453,2727144381,0.635547,0.378113,-0.576029,0.348309,9.84298419952393,0.76241034269333,0.52498537302017,1.31239461898804,0.22963064908981,0.23004043102264
454,2727161048,0.635567,0.378086,-0.576011,0.348329,9.86082267761230,0.75464761257172,0.51944911479950,0.98596084117889,0.23037342727184,0.42856445908546
455,2727177715,0.635577,0.378026,-0.576049,0.348313,9.85730361938477,0.76733565330505,0.49137431383133,0.63566875457764,-0.06718850880861,0.57478737831116
456,2727194382,0.635585,0.377963,-0.576091,0.348298,9.87563705444336,0.78088092803955,0.44639930129051,0.60567623376846,-0.07720308005810,0.60873699188232
457,2727211049,0.635592,0.377907,-0.576128,0.348286,9.87875938415527,0.78321564197540,0.45888847112656,0.67435675859451,-0.08080165833235,0.58249676227570
458,2727227716,0.635602,0.377862,-0.576157,0.348267,9.89026451110840,0.78279191255569,0.49012258648872,0.69909864664078,-0.06973697990179,0.47871419787407
459,2727244383,0.635599,0.377867,-0.576165,0.348256,9.86973953247070,0.76415681838989,0.48559391498566,1.01987206935883,-0.12781377136707,0.29254823923111
460,2727261050,0.635583,0.377907,-0.576156,0.348257,9.87586212158203,0.77797979116440,0.49798187613487,1.25727629661560,-0.16376119852066,0.19345270097256
461,2727277717,0.635577,0.377935,-0.576137,0.348268,9.88627243041992,0.78691089153290,0.49644884467125,1.30501830577850,-0.02362131327391,0.23436903953552
462,2727294384,0.635592,0.377932,-0.576123,0.348267,9.86361122131348,0.77505117654800,0.48985171318054,1.01212418079376,0.08000126481056,0.26377239823341
463,2727311051,0.635625,0.377911,-0.576119,0.348235,9.84941101074219,0.77742809057236,0.47868978977203,0.76967436075211,0.07015317678452,0.18945711851120
464,2727327718,0.635642,0.377886,-0.576121,0.348227,9.86849117279053,0.78311997652054,0.47382780909538,0.84055757522583,0.05556674674153,0.36011454463005
465,2727344385,0.635662,0.377888,-0.576095,0.348232,9.86370182037354,0.78834986686707,0.46488159894943,1.07668101787567,0.15808156132698,0.23028378188610
466,2727361052,0.635671,0.377895,-0.576068,0.348253,9.86206436157227,0.77503538131714,0.47643813490868,1.19088804721832,0.14610762894154,0.29851600527763
467,2727377719,0.635694,0.377909,-0.576025,0.348266,9.86403179168701,0.77270841598511,0.49376285076141,1.23760569095612,0.23968367278576,0.17002990841866
468,2727394386,0.635717,0.377901,-0.576000,0.348275,9.88011932373047,0.76762676239014,0.47449663281441,1.05680549144745,0.19666710495949,0.28138110041618
469,2727411053,0.635762,0.377891,-0.575950,0.348286,9.88796043395996,0.78266280889511,0.50066244602203,1.03693008422852,0.40943178534508,0.18599942326546
470,2727427720,0.635825,0.377908,-0.575874,0.348280,9.88445949554443,0.77782917022705,0.52052360773087,1.13999569416046,0.48172369599342,-0.10959034413099
471,2727444387,0.635883,0.377948,-0.575774,0.348295,9.86469268798828,0.76861155033112,0.49552899599075,1.39831256866455,0.56645047664642,-0.15909969806671
472,2727461054,0.635946,0.377997,-0.575667,0.348304,9.86756134033203,0.77517753839493,0.50290912389755,1.39299774169922,0.58016610145569,-0.25353369116783
473,2727477721,0.636005,0.378019,-0.575582,0.348313,9.87329578399658,0.77465981245041,0.51366436481476,1.24453377723694,0.53703421354294,-0.07811232656240
474,2727494388,0.636081,0.378001,-0.575511,0.348310,9.85635471343994,0.79846131801605,0.52091389894485,0.94398158788681,0.59920901060104,0.02697017043829
475,2727511055,0.636163,0.377954,-0.575444,0.348323,9.85609054565430,0.81433576345444,0.51223015785217,0.83530688285828,0.72437834739685,0.20382586121559
476,2727527722,0.636259,0.377923,-0.575353,0.348332,9.86280727386475,0.80119532346725,0.51901650428772,0.92113512754440,0.82988989353180,0.02695736475289
477,2727544389,0.636348,0.377930,-0.575245,0.348341,9.84571933746338,0.80605024099350,0.48293614387512,1.15190553665161,0.78679656982422,-0.15110853314400
478,2727561056,0.636425,0.377971,-0.575145,0.348320,9.84021282196045,0.79774308204651,0.49327850341797,1.19958364963531,0.54611396789551,-0.36281028389931
479,2727577723,0.636474,0.377995,-0.575083,0.348306,9.84561061859131,0.80201447010040,0.51140624284744,1.15068900585175,0.33014771342278,-0.10135586559772
480,2727594390,0.636501,0.378016,-0.575038,0.348308,9.87075519561768,0.81353151798248,0.51113373041153,1.23156106472015,0.22152422368526,0.07646670937538
481,2727611057,0.636511,0.378068,-0.574981,0.348328,9.87673759460449,0.81650710105896,0.52645766735077,1.45784926414490,0.17230942845345,0.04249146953225
482,2727627724,0.636558,0.378095,-0.574910,0.348329,9.87178802490234,0.81839203834534,0.53437823057175,1.18462562561035,0.39078575372696,-0.07251594960690
483,2727644391,0.636591,0.378125,-0.574843,0.348347,9.86795425415039,0.82596284151077,0.56020063161850,1.33013153076172,0.35113734006882,0.04340072348714
484,2727661058,0.636500,0.378359,-0.574716,0.348470,9.83522415161133,0.80656898021698,0.40643140673637,3.10108327865601,-0.08898492902517,-0.16674508154392
485,2727677725,0.636533,0.378396,-0.574704,0.348389,9.90497493743896,0.77893251180649,0.69890332221985,0.83214384317398,-0.15783184766769,-0.28576728701591
486,2727694392,0.636694,0.378245,-0.574664,0.348324,9.77787780761719,0.78996533155441,0.39550969004631,-0.20308950543404,0.96120625734329,0.15473912656307
487,2727711059,0.636759,0.378068,-0.574796,0.348179,9.84793758392334,0.76430809497833,0.50975447893143,-0.79365426301956,-0.32261115312576,0.58802914619446
488,2727727726,0.636747,0.377925,-0.574938,0.348123,9.81206989288330,0.81815004348755,0.49597346782684,-0.11225406825542,-0.51976490020752,1.04727756977081
489,2727744393,0.636606,0.377889,-0.575088,0.348173,9.91906833648682,0.81705403327942,0.53924649953842,1.09891283512115,-1.03648829460144,1.42095410823822
490,2727761060,0.636482,0.378022,-0.575054,0.348310,9.88730430603027,0.82286530733109,0.50208216905594,2.59902286529541,-0.34392094612122,0.61490964889526
491,2727777727,0.636366,0.378212,-0.575008,0.348392,9.85231971740723,0.81579744815826,0.50279098749161,2.63083434104919,-0.54138201475143,0.09598360210657
492,2727794394,0.636289,0.378341,-0.574989,0.348423,9.89774227142334,0.80210226774216,0.55168992280960,1.96869444847107,-0.49668782949448,0.09412666410208
493,2727811061,0.636281,0.378343,-0.574991,0.348434,9.89398670196533,0.79806822538376,0.50316011905670,1.15428745746613,-0.06101584807038,0.39721453189850
494,2727827728,0.636279,0.378371,-0.574957,0.348463,9.86115741729736,0.80086952447891,0.48525851964951,1.37608075141907,0.10757333040237,0.26771673560143
495,2727844395,0.636277,0.378430,-0.574891,0.348511,9.80895709991455,0.78749990463257,0.47828748822212,1.68015480041504,0.22379097342491,0.13760425150394
496,2727861062,0.636216,0.378499,-0.574862,0.348595,9.82489013671875,0.78288710117340,0.50109440088272,1.92245066165924,-0.09990873932838,0.50255954265594
497,2727877729,0.636143,0.378529,-0.574852,0.348714,9.85335540771484,0.79699760675430,0.48145696520805,1.89130568504333,-0.05068112909794,0.88578957319260
498,2727894396,0.636106,0.378549,-0.574849,0.348763,9.87502861022949,0.81223100423813,0.47139984369278,1.42511594295502,-0.09646382182837,0.54576820135117
499,2727911063,0.636122,0.378536,-0.574844,0.348755,9.89469146728516,0.81849473714828,0.50912988185883,0.96386992931366,0.05070033669472,0.29952773451805
500,2727927730,0.636169,0.378493,-0.574820,0.348757,9.90581512451172,0.81856399774551,0.52549123764038,0.88101279735565,0.36097258329391,0.34119957685471
501,2727944397,0.636224,0.378472,-0.574755,0.348786,9.89622306823730,0.82733952999115,0.53979349136353,1.08869338035583,0.58650523424149,0.23691749572754
502,2727961064,0.636278,0.378484,-0.574640,0.348864,9.89922714233398,0.79501634836197,0.50785851478577,1.56930291652679,0.84956037998199,0.20537543296814
503,2727977731,0.636355,0.378490,-0.574524,0.348909,9.81538963317871,0.81519180536270,0.55278319120407,1.36148130893707,0.87175381183624,0.01904304139316
504,2727994398,0.636475,0.378418,-0.574425,0.348932,9.81965255737305,0.78084158897400,0.51092541217804,0.78455537557602,1.09731221199036,0.17063181102276
505,2728011065,0.636561,0.378291,-0.574401,0.348951,9.81334781646729,0.75247555971146,0.49908077716827,0.39268112182617,0.75343596935272,0.64879524707794
506,2728027732,0.636600,0.378220,-0.574390,0.348975,9.85686683654785,0.78911876678467,0.57632523775101,0.75592035055161,0.39586985111237,0.59283149242401
507,2728044399,0.636598,0.378227,-0.574356,0.349027,9.81486225128174,0.80427151918411,0.52376902103424,1.38782417774200,0.21088217198849,0.44618606567383
508,2728061066,0.636599,0.378192,-0.574354,0.349067,9.86539840698242,0.82144147157669,0.54714387655258,1.09330356121063,0.16220521926880,0.64526081085205
509,2728077733,0.636642,0.378089,-0.574381,0.349054,9.85872364044189,0.82521140575409,0.51817280054092,0.48145470023155,0.23062953352928,0.65163826942444
510,2728094400,0.636719,0.377925,-0.574433,0.349007,9.84812355041504,0.80152463912964,0.51139050722122,-0.15788309276104,0.30431726574898,0.72825866937637
511,2728111067,0.636816,0.377775,-0.574460,0.348947,9.84842395782471,0.79562389850616,0.51869308948517,-0.16855075955391,0.42541405558586,0.49669423699379
512,2728127734,0.636871,0.377654,-0.574509,0.348897,9.84402561187744,0.80074501037598,0.54545027017593,0.14501911401749,0.13104738295078,0.59088498353958
513,2728144401,0.636895,0.377543,-0.574554,0.348899,9.81024646759033,0.76744335889816,0.51413297653198,0.46042668819427,0.12468261271715,0.84493732452393
514,2728161068,0.636903,0.377428,-0.574622,0.348898,9.82778930664062,0.77655220031738,0.52410125732422,0.35556825995445,-0.03711919859052,0.93453049659729
515,2728177735,0.636883,0.377293,-0.574749,0.348871,9.82118988037109,0.78097170591354,0.52815198898315,0.12012355029583,-0.42015710473061,1.12485849857330
516,2728194402,0.636845,0.377178,-0.574887,0.348836,9.84751605987549,0.79292505979538,0.50122267007828,0.19605241715908,-0.61457031965256,1.08509492874146
517,2728211069,0.636792,0.377106,-0.575019,0.348795,9.86308097839355,0.79659688472748,0.53291833400726,0.40165835618973,-0.76147198677063,0.90592116117477
518,2728227736,0.636729,0.377067,-0.575124,0.348779,9.89454746246338,0.78248351812363,0.50726133584976,0.74337023496628,-0.69893854856491,0.84101855754852
519,2728244403,0.636671,0.377058,-0.575206,0.348759,9.87877941131592,0.78031492233276,0.52653354406357,0.91471910476685,-0.66186416149139,0.63510525226593
520,2728261070,0.636600,0.377063,-0.575288,0.348749,9.87324905395508,0.78071099519730,0.52230888605118,1.06538593769073,-0.71973609924316,0.65099799633026
521,2728277737,0.636524,0.377059,-0.575374,0.348749,9.85977363586426,0.79200756549835,0.52301400899887,1.00374877452850,-0.71262848377228,0.75574111938477
522,2728294404,0.636463,0.377049,-0.575472,0.348708,9.84838294982910,0.80110549926758,0.52392196655273,0.80148541927338,-0.79051679372787,0.59473967552185
523,2728311071,0.636404,0.377046,-0.575567,0.348664,9.84782028198242,0.77597045898438,0.51106017827988,0.81002730131149,-0.79946839809418,0.53808438777924
524,2728327738,0.636313,0.377071,-0.575658,0.348652,9.84461688995361,0.78164392709732,0.51347935199738,1.14570724964142,-0.88696134090424,0.63488757610321
525,2728344405,0.636210,0.377105,-0.575743,0.348662,9.85979843139648,0.76851642131805,0.50056391954422,1.29477310180664,-0.88646185398102,0.70826792716980
526,2728361072,0.636123,0.377120,-0.575825,0.348671,9.86668205261230,0.77190643548965,0.49902895092964,1.18634176254272,-0.75476145744324,0.73151153326035
527,2728377739,0.636043,0.377153,-0.575889,0.348674,9.86972904205322,0.76939892768860,0.49355715513229,1.24334287643433,-0.71335852146149,0.57261037826538
528,2728394406,0.635957,0.377179,-0.575970,0.348670,9.86932659149170,0.77118831872940,0.47609904408455,1.18776333332062,-0.81428533792496,0.62932962179184
529,2728411073,0.635863,0.377193,-0.576067,0.348667,9.87794685363770,0.76606518030167,0.52210658788681,1.10530328750610,-0.88103210926056,0.73779946565628
530,2728427740,0.635774,0.377216,-0.576149,0.348669,9.87745189666748,0.77740043401718,0.51610404253006,1.21793508529663,-0.80128687620163,0.67718702554703
531,2728444407,0.635694,0.377244,-0.576212,0.348678,9.88025093078613,0.78095602989197,0.52645385265350,1.26110541820526,-0.67989557981491,0.61608785390854
532,2728461074,0.635643,0.377255,-0.576257,0.348686,9.86709403991699,0.77189421653748,0.48986333608627,1.15036880970001,-0.45003437995911,0.56414532661438
533,2728477741,0.635603,0.377265,-0.576306,0.348668,9.85650444030762,0.76620316505432,0.48515447974205,1.01946222782135,-0.48356133699417,0.43559515476227
534,2728494408,0.635562,0.377251,-0.576371,0.348650,9.84147357940674,0.77469670772552,0.47046276926994,0.88794112205505,-0.50239950418472,0.57421112060547
535,2728511075,0.635521,0.377227,-0.576456,0.348610,9.84373855590820,0.75576680898666,0.48082041740417,0.70273572206497,-0.62564784288406,0.57184201478958
536,2728527742,0.635445,0.377213,-0.576561,0.348591,9.86838817596436,0.76828688383102,0.48496714234352,0.94895040988922,-0.81103253364563,0.76556360721588
537,2728544409,0.635359,0.377236,-0.576631,0.348605,9.87894916534424,0.76863259077072,0.51194161176682,1.27100467681885,-0.70290851593018,0.69074887037277
538,2728561076,0.635312,0.377232,-0.576693,0.348592,9.88351058959961,0.76300686597824,0.51631522178650,0.97700929641724,-0.52484905719757,0.56751340627670
539,2728577743,0.635292,0.377204,-0.576743,0.348577,9.87905406951904,0.75006407499313,0.51805883646011,0.82164251804352,-0.31583660840988,0.55123651027679
540,2728594410,0.635148,0.377329,-0.576753,0.348687,9.88820552825928,0.76182389259338,0.38208097219467,2.38481092453003,-0.67039310932159,0.68563908338547
541,2728611077,0.634998,0.377489,-0.576833,0.348654,9.85356235504150,0.77708572149277,0.61524295806885,1.82208740711212,-1.45637023448944,0.12559185922146
542,2728627744,0.635056,0.377377,-0.576882,0.348589,9.92123317718506,0.75049930810928,0.50277179479599,0.03458994999528,0.06842432916164,0.47797137498856
543,2728644411,0.635142,0.377128,-0.577061,0.348405,9.79542350769043,0.72714042663574,0.40795040130615,-1.41962873935699,-0.36333537101746,0.77040439844131
544,2728661078,0.635090,0.377046,-0.577187,0.348381,9.81700038909912,0.75626200437546,0.41282993555069,0.43216311931610,-0.66798555850983,1.00841045379639
545,2728677745,0.634913,0.377055,-0.577389,0.348359,9.84742069244385,0.74768722057343,0.49183133244514,0.94066488742828,-1.70205986499786,1.14400398731232
546,2728694412,0.634712,0.377150,-0.577508,0.348425,9.90402030944824,0.74575108289719,0.52187204360962,1.98585486412048,-1.41906523704529,1.03580307960510
547,2728711079,0.634549,0.377307,-0.577542,0.348497,9.86367034912109,0.75922620296478,0.48091906309128,2.37550091743469,-1.02874040603638,0.49924269318581
548,2728727746,0.634391,0.377443,-0.577635,0.348482,9.87859630584717,0.76211225986481,0.47728976607323,1.77452480792999,-1.44123315811157,0.34513115882874
549,2728744413,0.634307,0.377473,-0.577743,0.348423,9.91620826721191,0.76172262430191,0.49665704369545,0.90653580427170,-1.07357549667358,0.43715754151344
550,2728761080,0.634274,0.377445,-0.577823,0.348380,9.89992809295654,0.76924699544907,0.47426122426987,0.61531949043274,-0.57110553979874,0.54009503126144
551,2728777747,0.634242,0.377486,-0.577836,0.348374,9.87959671020508,0.76350778341293,0.45018741488457,1.23404538631439,-0.34450998902321,0.25357851386070
552,2728794414,0.634183,0.377597,-0.577811,0.348403,9.86106300354004,0.74077838659286,0.46671891212463,1.87520802021027,-0.35538253188133,0.09579148143530
553,2728811081,0.634100,0.377692,-0.577802,0.348464,9.85984039306641,0.70649611949921,0.45987775921822,1.95368540287018,-0.40468704700470,0.39236092567444
554,2728827748,0.634035,0.377750,-0.577807,0.348513,9.87085723876953,0.74537825584412,0.44810533523560,1.66419816017151,-0.33778670430183,0.48338851332664
555,2728844415,0.634007,0.377778,-0.577842,0.348475,9.86437511444092,0.76919394731522,0.45847007632256,0.99510455131531,-0.46961525082588,0.21645294129848
556,2728861082,0.634000,0.377769,-0.577890,0.348417,9.88815402984619,0.77203458547592,0.47750145196915,0.69049912691116,-0.40912443399429,0.25367456674576
557,2728877749,0.633993,0.377789,-0.577898,0.348396,9.87869167327881,0.76780283451080,0.46444401144981,1.02389955520630,-0.21104863286018,0.19498305022717
558,2728894416,0.633973,0.377849,-0.577876,0.348403,9.88320255279541,0.76531553268433,0.47546243667603,1.44099593162537,-0.15425887703896,0.11784403026104
559,2728911083,0.633926,0.377977,-0.577820,0.348443,9.85569477081299,0.74378418922424,0.41370087862015,2.03375053405762,-0.19034714996815,-0.03597943484783
560,2728927750,0.633961,0.377965,-0.577797,0.348429,9.84932422637939,0.78785115480423,0.50933724641800,0.91557717323303,0.19186472892761,0.17656113207340
561,2728944417,0.633972,0.377920,-0.577835,0.348395,9.84427547454834,0.72531920671463,0.35772442817688,0.61124700307846,-0.15154394507408,0.43080565333366
562,2728961084,0.633922,0.377915,-0.577920,0.348351,9.87659740447998,0.74042212963104,0.50568097829819,0.87112641334534,-0.70005273818970,0.50729793310165
563,2728977751,0.633890,0.377998,-0.577883,0.348379,9.85051918029785,0.74918645620346,0.46023413538933,1.69655334949493,-0.14058811962605,0.10261088609695
564,2728994418,0.633793,0.378116,-0.577901,0.348399,9.88534832000732,0.75103193521500,0.47606521844864,1.87468314170837,-0.73792105913162,0.22854210436344
565,2729011085,0.633743,0.378145,-0.577922,0.348424,9.90715408325195,0.78948777914047,0.49095869064331,1.36070024967194,-0.33704394102097,0.50010079145432
566,2729027752,0.633763,0.378075,-0.577967,0.348390,9.89396762847900,0.78667646646500,0.46943768858910,0.46421733498573,-0.08132672309875,0.52918398380280
567,2729044419,0.633833,0.377964,-0.578008,0.348314,9.88258743286133,0.77907317876816,0.47164809703827,-0.01514350995421,0.12924167513847,0.38212865591049
568,2729061086,0.633927,0.377869,-0.578013,0.348239,9.89732551574707,0.77749252319336,0.49103114008904,0.18383516371250,0.34474691748619,0.17626658082008
569,2729077753,0.633997,0.377840,-0.577966,0.348219,9.88035202026367,0.76782757043839,0.49751871824265,0.76660096645355,0.45541945099831,0.07051177322865
570,2729094420,0.634067,0.377804,-0.577913,0.348219,9.86751365661621,0.74122637510300,0.48764732480049,0.89096331596375,0.55862569808960,0.17248870432377
571,2729111087,0.634133,0.377734,-0.577886,0.348220,9.84986877441406,0.72599154710770,0.44190078973770,0.64655417203903,0.50677281618118,0.38506129384041
572,2729127754,0.634184,0.377641,-0.577906,0.348195,9.85149288177490,0.75204426050186,0.43232089281082,0.41687229275703,0.23281943798065,0.52420228719711
573,2729144421,0.634227,0.377546,-0.577943,0.348159,9.85933208465576,0.76075583696365,0.43157669901848,0.30307507514954,0.09819909185171,0.54611402750015
574,2729161088,0.634254,0.377488,-0.577962,0.348140,9.86918735504150,0.75305628776550,0.42253962159157,0.63110977411270,0.07081910967827,0.46811053156853
575,2729177755,0.634265,0.377502,-0.577941,0.348139,9.87255954742432,0.74371510744095,0.40786385536194,1.16174066066742,0.05616864934564,0.19305570423603
576,2729194422,0.634252,0.377562,-0.577917,0.348138,9.87478923797607,0.74861997365952,0.42414653301239,1.36203217506409,-0.13778991997242,0.05346650630236
577,2729211089,0.634235,0.377593,-0.577912,0.348144,9.88559150695801,0.73569446802139,0.42964008450508,1.25352394580841,-0.14867532253265,0.25920051336288
578,2729227756,0.634224,0.377598,-0.577916,0.348151,9.85530376434326,0.76624512672424,0.45700970292091,1.12836754322052,-0.10004961490631,0.37824839353561
579,2729244423,0.634228,0.377593,-0.577920,0.348145,9.86024570465088,0.76584345102310,0.43726065754890,0.97439682483673,-0.04727464541793,0.32680523395538
580,2729261090,0.634242,0.377594,-0.577919,0.348119,9.86798954010010,0.77017992734909,0.46209663152695,0.95099955797195,-0.05173125118017,0.17871260643005
581,2729277757,0.634246,0.377600,-0.577920,0.348104,9.87471485137939,0.77108770608902,0.45994105935097,1.02724862098694,-0.08730729669333,0.23985013365746
582,2729294424,0.634240,0.377634,-0.577892,0.348124,9.86570835113525,0.76290839910507,0.45890393853188,1.34862387180328,0.02625301666558,0.22517405450344
583,2729311091,0.634226,0.377655,-0.577885,0.348139,9.87098979949951,0.74389576911926,0.44759750366211,1.29637396335602,-0.07725431025028,0.32680523395538
584,2729327758,0.634210,0.377661,-0.577880,0.348168,9.87745285034180,0.74935722351074,0.47518160939217,1.26469099521637,-0.02551665157080,0.46288549900055
585,2729344425,0.634184,0.377671,-0.577886,0.348195,9.88060283660889,0.74721211194992,0.49544847011566,1.22970414161682,-0.12774974107742,0.48624426126480
586,2729361092,0.634175,0.377670,-0.577890,0.348207,9.87554645538330,0.76781040430069,0.47058558464050,1.11002874374390,-0.06075972318649,0.41457995772362
587,2729377759,0.634164,0.377678,-0.577888,0.348221,9.87205505371094,0.76472014188766,0.48964107036591,1.19193828105927,-0.05982486903667,0.38594499230385
588,2729394426,0.634150,0.377699,-0.577885,0.348228,9.87487792968750,0.75205409526825,0.46102991700172,1.22153353691101,-0.11919510364532,0.30353608727455
589,2729411093,0.634147,0.377696,-0.577884,0.348238,9.88708782196045,0.74554574489594,0.47928759455681,1.07581019401550,-0.02267364226282,0.39303967356682
590,2729427760,0.634158,0.377674,-0.577898,0.348221,9.86666774749756,0.75886154174805,0.46644037961960,0.83716392517090,-0.04751795902848,0.35629823803902
591,2729444427,0.634176,0.377659,-0.577901,0.348200,9.85935974121094,0.75816845893860,0.44120952486992,0.83921301364899,-0.00852262601256,0.26117271184921
592,2729461094,0.634184,0.377632,-0.577919,0.348183,9.83696556091309,0.73820370435715,0.44687312841415,0.78701418638229,-0.07192686200142,0.39461481571198
593,2729477761,0.634166,0.377612,-0.577955,0.348177,9.87214660644531,0.74784916639328,0.46584779024124,0.92410624027252,-0.23488767445087,0.52217894792557
594,2729494428,0.634141,0.377635,-0.577970,0.348174,9.87784290313721,0.75863218307495,0.45369994640350,1.15704083442688,-0.27571433782578,0.32391104102135
595,2729511095,0.634142,0.377653,-0.577969,0.348155,9.87504291534424,0.75945186614990,0.47848010063171,1.04574096202850,-0.12590564787388,0.16859559714794
596,2729527762,0.634163,0.377635,-0.577965,0.348143,9.87769699096680,0.75824284553528,0.48242384195328,0.88673722743988,0.06824503839016,0.29213842749596
597,2729544429,0.634044,0.377785,-0.577923,0.348265,9.87664127349854,0.74235516786575,0.32154738903046,2.61166310310364,-0.37829318642616,0.44544330239296
598,2729561096,0.633968,0.377890,-0.577985,0.348186,9.89087295532227,0.78692370653152,0.60747569799423,1.24051272869110,-1.07078385353088,-0.08793481439352
599,2729577763,0.634050,0.377805,-0.577977,0.348144,9.89223861694336,0.71428698301315,0.42012229561806,0.30567473173141,0.40802308917046,0.26822897791862
600,2729594430,0.634131,0.377625,-0.578093,0.347999,9.82519054412842,0.75926476716995,0.40434950590134,-0.77934950590134,-0.17243109643459,0.52211487293243
601,2729611097,0.634148,0.377569,-0.578141,0.347948,9.82595539093018,0.72595220804214,0.39745610952377,0.45246118307114,-0.17894954979420,0.41251817345619
602,2729627764,0.634024,0.377551,-0.578274,0.347973,9.89126110076904,0.74747473001480,0.45638307929039,1.02486646175385,-1.01549863815308,1.15540158748627
603,2729644431,0.633876,0.377665,-0.578298,0.348079,9.91206741333008,0.76491403579712,0.47019889950752,2.26376557350159,-0.73821568489075,0.75666320323944
604,2729661098,0.633757,0.377843,-0.578274,0.348140,9.84889888763428,0.74954545497894,0.43107071518898,2.44962406158447,-0.67711657285690,0.11137682199478
605,2729677765,0.633628,0.377977,-0.578327,0.348143,9.89006233215332,0.76742935180664,0.43875497579575,1.84880161285400,-1.10258197784424,0.25653681159019
606,2729694432,0.633579,0.377996,-0.578383,0.348117,9.91175174713135,0.75818520784378,0.46963214874268,1.03819799423218,-0.59363192319870,0.40525692701340
607,2729711099,0.633571,0.377990,-0.578416,0.348085,9.89332866668701,0.74256271123886,0.42329442501068,0.84021186828613,-0.29064652323723,0.32383418083191
608,2729727766,0.633551,0.378055,-0.578379,0.348112,9.85811805725098,0.74376517534256,0.39361980557442,1.59024131298065,-0.04872175678611,0.13807806372643
609,2729744433,0.633491,0.378162,-0.578343,0.348166,9.83302211761475,0.73080462217331,0.41245728731155,2.00383520126343,-0.23331245779991,0.19635975360870
610,2729761100,0.633404,0.378230,-0.578344,0.348248,9.85716629028320,0.72801715135574,0.41980126500130,1.92369294166565,-0.34504786133766,0.63122498989105
611,2729777767,0.633340,0.378257,-0.578365,0.348300,9.84957790374756,0.75183165073395,0.41614633798599,1.40873694419861,-0.32883507013321,0.65170234441757
612,2729794434,0.633331,0.378242,-0.578415,0.348250,9.86390972137451,0.77823525667191,0.43594422936440,0.67367798089981,-0.39252099394798,0.32606247067451
613,2729811101,0.633342,0.378200,-0.578463,0.348195,9.87458801269531,0.78538876771927,0.45566245913506,0.51873397827148,-0.24467170238495,0.35596525669098
614,2729827768,0.633349,0.378178,-0.578470,0.348196,9.90484333038330,0.77491223812103,0.47278681397438,0.92100715637207,0.00426451489329,0.42068862915039
615,2729844435,0.633351,0.378232,-0.578412,0.348229,9.90823459625244,0.76442140340805,0.45788457989693,1.52518522739410,0.17264242470264,0.10594694316387
616,2729861102,0.633326,0.378330,-0.578343,0.348284,9.84385681152344,0.73917293548584,0.42098286747932,1.94419586658478,0.06692598015070,0.06334020197392
617,2729877769,0.633368,0.378330,-0.578276,0.348318,9.84620952606201,0.75871109962463,0.44910198450089,1.20797169208527,0.50153505802155,0.20326240360737
618,2729894436,0.633365,0.378285,-0.578303,0.348329,9.85332202911377,0.72607946395874,0.36943200230598,0.84165889024734,-0.03731130063534,0.63710308074951
619,2729911103,0.633342,0.378230,-0.578366,0.348325,9.89924526214600,0.74412131309509,0.51173001527786,0.71934556961060,-0.29003182053566,0.75224494934082
620,2729927770,0.633336,0.378252,-0.578328,0.348373,9.82355213165283,0.77182048559189,0.43560722470284,1.43299221992493,0.17177155613899,0.36700436472893
621,2729944437,0.633267,0.378318,-0.578332,0.348422,9.89732551574707,0.75562995672226,0.43588799238205,1.69339632987976,-0.37110877037048,0.45798069238663
622,2729961104,0.633235,0.378313,-0.578345,0.348463,9.87417888641357,0.80048114061356,0.45116367936134,1.23322594165802,-0.10567160695791,0.63851177692413
623,2729977771,0.633245,0.378237,-0.578394,0.348447,9.86668586730957,0.77540314197540,0.46483594179153,0.52897906303406,-0.08238964527845,0.66667294502258
624,2729994438,0.633296,0.378134,-0.578437,0.348395,9.87779235839844,0.77690607309341,0.46613702178001,0.10794471949339,0.08381755650043,0.50124049186707
625,2730011105,0.633358,0.378040,-0.578470,0.348330,9.87811279296875,0.76133161783218,0.47890099883080,0.17585676908493,0.11667862534523,0.36532673239708
626,2730027772,0.633409,0.377991,-0.578451,0.348320,9.88395214080811,0.73687320947647,0.47386828064919,0.70779412984848,0.33387431502342,0.30929896235466
627,2730044439,0.633459,0.377908,-0.578459,0.348307,9.87347602844238,0.71295279264450,0.45697534084320,0.51733803749084,0.28126585483551,0.50640147924423
628,2730061106,0.633509,0.377792,-0.578496,0.348280,9.86240005493164,0.73214620351791,0.46089443564415,0.19938206672668,0.20368498563766,0.64994782209396
629,2730077773,0.633555,0.377667,-0.578546,0.348248,9.87625122070312,0.75004160404205,0.41749343276024,0.14330305159092,0.13266097009182,0.71144396066666
630,2730094440,0.633596,0.377554,-0.578605,0.348199,9.86349773406982,0.74833565950394,0.42429196834564,0.12347881495953,0.00678736576810,0.62165856361389
631,2730111107,0.633640,0.377470,-0.578646,0.348142,9.89045143127441,0.74485266208649,0.44341006875038,0.24709850549698,0.00884918682277,0.41904935240746
632,2730127774,0.633667,0.377451,-0.578653,0.348102,9.87939071655273,0.72962856292725,0.43947654962540,0.74362623691559,-0.02399269305170,0.18708795309067
633,2730144441,0.633683,0.377454,-0.578651,0.348072,9.86899566650391,0.73472851514816,0.43121942877769,0.88840210437775,-0.06178423762321,0.14217610657215
634,2730161108,0.633708,0.377448,-0.578637,0.348057,9.86555957794189,0.72499126195908,0.41543787717819,0.90218168497086,0.09392176568508,0.18944433331490
635,2730177775,0.633732,0.377416,-0.578643,0.348039,9.85015106201172,0.72349292039871,0.44613477587700,0.77577030658722,0.05418366938829,0.34149414300919
636,2730194442,0.633759,0.377377,-0.578660,0.348004,9.85791873931885,0.73245376348495,0.43105098605156,0.65727311372757,-0.00634554633871,0.31314089894295
637,2730211109,0.633784,0.377349,-0.578665,0.347980,9.85050964355469,0.73384487628937,0.41868805885315,0.75736749172211,0.03786837309599,0.28901368379593
638,2730227776,0.633795,0.377331,-0.578674,0.347963,9.85068607330322,0.73098868131638,0.42222502827644,0.87804168462753,-0.03919383138418,0.32693329453468
639,2730244443,0.633793,0.377325,-0.578677,0.347967,9.87249755859375,0.74548065662384,0.43709233403206,1.07105898857117,-0.03783636167645,0.38813483715057
640,2730261110,0.633789,0.377341,-0.578670,0.347971,9.87481212615967,0.73073673248291,0.41649827361107,1.17065393924713,-0.05521457269788,0.27791059017181
641,2730277777,0.633811,0.377355,-0.578638,0.347967,9.86793327331543,0.73034644126892,0.44802799820900,1.11864745616913,0.13549117743969,0.12183961272240
642,2730294444,0.633819,0.377371,-0.578619,0.347969,9.87751197814941,0.74736088514328,0.46410316228867,1.15996074676514,0.03917462006211,0.21084372699261
643,2730311111,0.633836,0.377390,-0.578590,0.347964,9.87175178527832,0.76157045364380,0.49196940660477,1.14615547657013,0.09162943065166,0.11669144779444
644,2730327778,0.633853,0.377403,-0.578556,0.347976,9.87590599060059,0.74504214525223,0.48148390650749,1.19284749031067,0.17009395360947,0.20592610538006
645,2730344445,0.633884,0.377415,-0.578516,0.347974,9.86331462860107,0.75390595197678,0.47276329994202,1.10310053825378,0.21919347345829,0.09438280016184
646,2730361112,0.633922,0.377401,-0.578489,0.347965,9.87269210815430,0.75791269540787,0.47436791658401,0.93159800767899,0.23877440392971,0.18731848895550
647,2730377779,0.633963,0.377378,-0.578461,0.347962,9.86752033233643,0.74926918745041,0.46584394574165,0.90027368068695,0.28851425647736,0.23741692304611
648,2730394446,0.634008,0.377355,-0.578428,0.347958,9.85625553131104,0.75569027662277,0.45655769109726,0.94076722860336,0.31951841711998,0.21263661980629
649,2730411113,0.634065,0.377341,-0.578393,0.347928,9.86637401580811,0.74557960033417,0.46007016301155,0.81488078832626,0.29503268003464,0.02950582653284
650,2730427780,0.634107,0.377303,-0.578393,0.347893,9.88095378875732,0.73713856935501,0.43747743964195,0.63429850339890,0.12659077346325,0.22601926326752
651,2730444447,0.634138,0.377293,-0.578377,0.347873,9.88516426086426,0.76012945175171,0.47520631551743,0.88243430852890,0.11275990307331,0.17319306731224
652,2730461114,0.634162,0.377329,-0.578330,0.347867,9.87105369567871,0.75212585926056,0.46108099818230,1.22896134853363,0.15651921927929,-0.02084233425558
653,2730477781,0.634219,0.377335,-0.578280,0.347842,9.87381744384766,0.76358991861343,0.48463988304138,0.95176786184311,0.32665157318115,-0.06384605169296
654,2730494448,0.634265,0.377338,-0.578233,0.347832,9.86057949066162,0.75616395473480,0.46028918027878,1.04654765129089,0.30759570002556,0.04679439589381
655,2730511115,0.634148,0.377576,-0.578146,0.347933,9.83721923828125,0.74551421403885,0.32292047142982,2.98998832702637,-0.43921300768852,-0.12631544470787
656,2730527782,0.634152,0.377624,-0.578177,0.347822,9.92704296112061,0.72211986780167,0.64560973644257,0.76184964179993,-0.55977195501328,-0.27074539661407
657,2730544449,0.634279,0.377511,-0.578150,0.347756,9.79696655273438,0.73510730266571,0.31676256656647,0.01474010851234,0.67620086669922,0.11459120362997
658,2730561116,0.634345,0.377391,-0.578272,0.347565,9.85093307495117,0.72548103332520,0.45198044180870,-0.67907589673996,-0.52413183450699,0.13682304322720
659,2730577783,0.634333,0.377325,-0.578377,0.347483,9.81979274749756,0.74004960060120,0.42716723680496,0.17949379980564,-0.60625898838043,0.53225755691528
660,2730594450,0.634166,0.377370,-0.578513,0.347513,9.90857696533203,0.76422739028931,0.45568981766701,1.49529504776001,-1.33166193962097,1.03686618804932
661,2730611117,0.634027,0.377580,-0.578474,0.347603,9.89988327026367,0.75436341762543,0.46817418932915,2.77340722084045,-0.69423860311508,0.12057178467512
662,2730627784,0.633878,0.377814,-0.578469,0.347629,9.88425350189209,0.76276946067810,0.44801244139671,2.58336091041565,-1.10573232173920,-0.14106835424900
663,2730644451,0.633784,0.377984,-0.578465,0.347623,9.90603256225586,0.76737827062607,0.47679191827774,2.06120777130127,-0.82276320457458,-0.15299107134342
664,2730661118,0.633771,0.378067,-0.578438,0.347601,9.90173530578613,0.74215781688690,0.45395877957344,1.42218339443207,-0.23482358455658,-0.13620191812515
665,2730677785,0.633776,0.378148,-0.578378,0.347603,9.88908386230469,0.74368721246719,0.44143110513687,1.54032194614410,0.04920199140906,-0.15386188030243
666,2730694452,0.633751,0.378289,-0.578274,0.347669,9.84087371826172,0.73465692996979,0.42970034480095,2.21051692962646,0.14592836797237,-0.15505287051201
667,2730711119,0.633699,0.378417,-0.578193,0.347758,9.84995651245117,0.75017803907394,0.44062468409538,2.30866456031799,0.02435767464340,0.12665480375290
668,2730727786,0.633643,0.378491,-0.578150,0.347851,9.86396694183350,0.76155257225037,0.42125907540321,1.97544312477112,-0.01282555703074,0.46644562482834
669,2730744453,0.633629,0.378538,-0.578126,0.347867,9.88430023193359,0.79469352960587,0.41205695271492,1.42459118366241,-0.06512669473886,0.18416813015938
670,2730761120,0.633653,0.378574,-0.578102,0.347823,9.88153266906738,0.79614591598511,0.43905651569366,1.03215348720551,-0.05179528146982,-0.12635385990143
671,2730777787,0.633686,0.378601,-0.578064,0.347797,9.89113426208496,0.78770595788956,0.44477102160454,1.08547902107239,0.12337637692690,-0.06521634012461
672,2730794454,0.633721,0.378653,-0.577988,0.347803,9.88279819488525,0.79254609346390,0.49826216697693,1.41115736961365,0.32200285792351,-0.13161726295948
673,2730811121,0.633749,0.378767,-0.577838,0.347876,9.90952491760254,0.73993229866028,0.37693074345589,2.13139939308167,0.64252024888992,-0.26007774472237
674,2730827788,0.633829,0.378803,-0.577730,0.347870,9.84855175018311,0.78504526615143,0.51593786478043,1.23887336254120,0.63960039615631,-0.31095737218857
675,2730844455,0.633900,0.378805,-0.577643,0.347884,9.86418628692627,0.75349867343903,0.39612516760826,1.16550588607788,0.64907693862915,-0.01208279002458
676,2730861122,0.633943,0.378763,-0.577623,0.347886,9.84538841247559,0.73662132024765,0.45956030488014,0.82040029764175,0.31982573866844,0.35392904281616
677,2730877789,0.634014,0.378755,-0.577537,0.347906,9.88701629638672,0.75196683406830,0.47419971227646,1.16373848915100,0.68793153762817,0.05496485158801
678,2730894456,0.634026,0.378806,-0.577474,0.347935,9.83863258361816,0.78867614269257,0.47247856855392,1.51499128341675,0.23039907217026,0.06386527419090
679,2730911123,0.634026,0.378837,-0.577421,0.347988,9.87138652801514,0.80875271558762,0.47938415408134,1.48982667922974,0.24604842066765,0.29592916369438
680,2730927790,0.634053,0.378811,-0.577404,0.347996,9.88937568664551,0.81933289766312,0.44929158687592,0.95371448993683,0.22234383225441,0.36126711964607
681,2730944457,0.634145,0.378687,-0.577406,0.347958,9.87795639038086,0.78319299221039,0.45487925410271,0.11830505728722,0.51143437623978,0.44685193896294
682,2730961124,0.634256,0.378586,-0.577368,0.347929,9.86977100372314,0.79179018735886,0.47482377290726,0.32192599773407,0.72897577285767,0.23769864439964
683,2730977791,0.634354,0.378544,-0.577292,0.347924,9.85927009582520,0.75915211439133,0.49181336164474,0.78254473209381,0.76300233602524,0.04637178406119
684,2730994458,0.634435,0.378507,-0.577209,0.347955,9.86517524719238,0.73913890123367,0.47928124666214,1.00112366676331,0.80837523937225,0.20064990222454
685,2731011125,0.634509,0.378428,-0.577160,0.347986,9.87535667419434,0.76462590694427,0.46045854687691,0.77874135971069,0.74059116840363,0.47867572307587
686,2731027792,0.634598,0.378331,-0.577131,0.347978,9.85053730010986,0.77775102853775,0.44206503033638,0.45433086156845,0.64437705278397,0.39461487531662
687,2731044459,0.634664,0.378252,-0.577115,0.347969,9.86050128936768,0.78350412845612,0.46730658411980,0.54831665754318,0.45425400137901,0.40762609243393
688,2731061126,0.634726,0.378193,-0.577093,0.347955,9.87679100036621,0.78672623634338,0.46245723962784,0.63470828533173,0.40103083848953,0.29740187525749
689,2731077793,0.634786,0.378167,-0.577044,0.347957,9.87671279907227,0.78353178501129,0.47908142209053,0.92277425527573,0.47802257537842,0.17069582641125
690,2731094460,0.634848,0.378160,-0.576974,0.347966,9.87582302093506,0.77966421842575,0.45965382456779,1.07908856868744,0.54364234209061,0.07023002207279
691,2731111127,0.634902,0.378176,-0.576890,0.347990,9.86868381500244,0.76436245441437,0.46494227647781,1.28643620014191,0.56322324275970,0.02396067976952
692,2731127794,0.634942,0.378179,-0.576837,0.348002,9.86449432373047,0.78631138801575,0.47241580486298,1.16495525836945,0.37690368294716,0.14184314012527
693,2731144461,0.634996,0.378164,-0.576788,0.348002,9.85703754425049,0.77743566036224,0.50831824541092,0.95986145734787,0.41611674427986,0.13209748268127
694,2731161128,0.635055,0.378145,-0.576742,0.347990,9.85383319854736,0.78379106521606,0.46828743815422,0.86097085475922,0.40071067214012,0.08714721351862
695,2731177795,0.635112,0.378120,-0.576697,0.347989,9.85336494445801,0.76663702726364,0.46492072939873,0.88686537742615,0.43206065893173,0.17991641163826
696,2731194462,0.635173,0.378087,-0.576650,0.347989,9.85968971252441,0.77766573429108,0.49964895844460,0.88452172279358,0.48320916295052,0.19300450384617
697,2731211129,0.635238,0.378036,-0.576604,0.348003,9.85047721862793,0.79292500019073,0.48326444625854,0.83106815814972,0.57072782516479,0.31955689191818
698,2731227796,0.635306,0.377977,-0.576569,0.348002,9.85088729858398,0.78522485494614,0.47158288955688,0.70395225286484,0.52083426713943,0.30655840039253
699,2731244463,0.635374,0.377922,-0.576541,0.347983,9.85250473022461,0.79333180189133,0.49042689800262,0.63201898336411,0.42709174752235,0.23166686296463
700,2731261130,0.635433,0.377866,-0.576522,0.347968,9.86318683624268,0.78027838468552,0.47474509477615,0.64771962165833,0.37043648958206,0.29795253276825
701,2731277797,0.635498,0.377829,-0.576490,0.347941,9.85887432098389,0.78546029329300,0.48087829351425,0.68588238954544,0.36960402131081,0.11877886950970
702,2731294464,0.635562,0.377785,-0.576463,0.347917,9.84352111816406,0.75842416286469,0.43406930565834,0.65234261751175,0.36986020207405,0.17754721641541
703,2731311131,0.635600,0.377763,-0.576451,0.347892,9.84345722198486,0.76770800352097,0.43672284483910,0.80503273010254,0.14673514664173,0.18474438786507
704,2731327798,0.635626,0.377742,-0.576458,0.347856,9.83572864532471,0.75939333438873,0.42378056049347,0.73724865913391,-0.01062286738306,0.21419899165630
705,2731344465,0.635641,0.377689,-0.576519,0.347786,9.85038375854492,0.76317334175110,0.46585464477539,0.40218344330788,-0.30779424309731,0.36020419001579
706,2731361132,0.635623,0.377653,-0.576571,0.347770,9.85397148132324,0.77075213193893,0.44498026371002,0.76370662450790,-0.29510310292244,0.58387988805771
707,2731377799,0.635593,0.377666,-0.576608,0.347751,9.87142944335938,0.78281295299530,0.44407525658607,1.02458477020264,-0.40769651532173,0.36349540948868
708,2731394466,0.635604,0.377640,-0.576644,0.347699,9.86402416229248,0.78711962699890,0.50210309028625,0.65299576520920,-0.23273618519306,0.27239105105400
709,2731411133,0.635635,0.377614,-0.576639,0.347679,9.86877918243408,0.79458153247833,0.49798700213432,0.80928438901901,0.11867643147707,0.26192826032639
710,2731427800,0.635649,0.377596,-0.576654,0.347648,9.90406513214111,0.81252938508987,0.52125096321106,0.81248605251312,-0.08753780275583,0.27426078915596
711,2731444467,0.635493,0.377854,-0.576596,0.347749,9.79170131683350,0.74365460872650,0.32387989759445,3.14572596549988,-0.76399475336075,-0.02400550246239
712,2731461134,0.635463,0.377880,-0.576690,0.347620,9.89693641662598,0.77850472927094,0.63770228624344,0.48100647330284,-0.97410857677460,-0.02326273173094
713,2731477801,0.635580,0.377648,-0.576851,0.347390,9.77978992462158,0.74707376956940,0.41229620575905,-1.55582416057587,-0.33245918154716,0.38328123092651
714,2731494468,0.635527,0.377487,-0.577078,0.347284,9.84072494506836,0.76151686906815,0.42411905527115,-0.47665885090828,-1.13071751594543,1.22481215000153
715,2731511135,0.635387,0.377439,-0.577325,0.347183,9.84941291809082,0.81915700435638,0.48975872993469,0.21909104287624,-1.82954728603363,1.05220818519592
716,2731527802,0.635175,0.377496,-0.577503,0.347212,9.91887187957764,0.78507000207901,0.49814939498901,1.55768764019012,-1.71883630752563,1.19981408119202
717,2731544469,0.634974,0.377694,-0.577533,0.347317,9.88006114959717,0.76406687498093,0.43643587827682,2.77554583549500,-1.17647457122803,0.56241649389267
718,2731561136,0.634774,0.377906,-0.577604,0.347332,9.84551525115967,0.76721012592316,0.45542451739311,2.39875745773315,-1.61623167991638,0.21394287049770
719,2731577803,0.634627,0.378032,-0.577719,0.347273,9.88314723968506,0.76205819845200,0.50671333074570,1.47005379199982,-1.58223092556000,0.22509723901749
720,2731594470,0.634537,0.378064,-0.577835,0.347210,9.89369010925293,0.76987558603287,0.47443068027496,0.87194579839706,-1.15128433704376,0.44197267293930
721,2731611137,0.634439,0.378106,-0.577936,0.347175,9.83472156524658,0.76647764444351,0.42958611249924,1.10536730289459,-1.06858110427856,0.50670880079269
722,2731627804,0.634314,0.378171,-0.578042,0.347157,9.83994674682617,0.76169335842133,0.43738663196564,1.31416177749634,-1.20475089550018,0.57051008939743
723,2731644471,0.634176,0.378215,-0.578158,0.347168,9.85958194732666,0.75540781021118,0.47177109122276,1.33750784397125,-1.17829298973083,0.82953131198883
724,2731661138,0.634024,0.378254,-0.578281,0.347197,9.86133289337158,0.76618582010269,0.45597219467163,1.45507037639618,-1.20140850543976,0.98684453964233
725,2731677805,0.633905,0.378305,-0.578396,0.347167,9.88225841522217,0.79351264238358,0.42502111196518,1.18930006027222,-1.21886360645294,0.58466112613678
726,2731694472,0.633825,0.378339,-0.578515,0.347078,9.88082981109619,0.78317314386368,0.43343234062195,0.77857482433319,-1.19027960300446,0.30408674478531
727,2731711139,0.633766,0.378338,-0.578637,0.346983,9.92047691345215,0.79169100522995,0.48595729470253,0.54065853357315,-1.06035947799683,0.38005405664444
728,2731727806,0.633675,0.378407,-0.578687,0.346991,9.90805435180664,0.75821965932846,0.36993798613548,1.50109624862671,-0.76425087451935,0.43510851264000
729,2731744473,0.633625,0.378471,-0.578733,0.346935,9.85714530944824,0.79324352741241,0.49100899696350,1.11735403537750,-0.73941940069199,0.07015318423510
730,2731761140,0.633575,0.378468,-0.578801,0.346916,9.86507320404053,0.78615766763687,0.41175684332848,0.93473553657532,-0.58544868230820,0.55795985460281
731,2731777807,0.633528,0.378450,-0.578875,0.346899,9.85962486267090,0.72947204113007,0.38470613956451,0.85659110546112,-0.55616050958633,0.63388866186142
732,2731794474,0.633434,0.378513,-0.578931,0.346908,9.84858322143555,0.76134639978409,0.42382937669754,1.45125401020050,-0.79224562644958,0.48886957764626
733,2731811141,0.633302,0.378623,-0.579013,0.346893,9.85689163208008,0.74830377101898,0.44961103796959,1.60962986946106,-1.22361457347870,0.35450533032417
734,2731827808,0.633171,0.378707,-0.579092,0.346907,9.84850502014160,0.76677304506302,0.44942483305931,1.65011060237885,-1.07489430904388,0.57363474369049
735,2731844475,0.633050,0.378750,-0.579178,0.346937,9.89061260223389,0.80245250463486,0.44277247786522,1.48028588294983,-0.92129522562027,0.80872094631195
736,2731861142,0.632991,0.378717,-0.579271,0.346926,9.87451553344727,0.78457134962082,0.43362334370613,0.80512243509293,-0.63347256183624,0.79478770494461
737,2731877809,0.632965,0.378667,-0.579373,0.346858,9.87545680999756,0.78303188085556,0.43642795085907,0.38463875651360,-0.64969819784164,0.56200671195984
738,2731894476,0.632944,0.378647,-0.579435,0.346814,9.87503337860107,0.78307783603668,0.44703751802444,0.72727268934250,-0.46550443768501,0.43440422415733
739,2731911143,0.632906,0.378653,-0.579482,0.346799,9.88005352020264,0.75483572483063,0.42123106122017,1.04494690895081,-0.44797247648239,0.45009201765060
740,2731927810,0.632850,0.378671,-0.579528,0.346805,9.85603713989258,0.74645119905472,0.41682481765747,1.16110062599182,-0.50256603956223,0.54213124513626
741,2731944477,0.632800,0.378670,-0.579586,0.346799,9.86939525604248,0.75609570741653,0.40048032999039,1.00391542911530,-0.50864899158478,0.57476180791855
742,2731961144,0.632767,0.378632,-0.579660,0.346778,9.86204242706299,0.75602477788925,0.39248993992805,0.71400517225266,-0.45897313952446,0.66115337610245
743,2731977811,0.632724,0.378585,-0.579756,0.346747,9.89233207702637,0.77006351947784,0.41618368029594,0.57898789644241,-0.60497838258743,0.73357331752777
744,2731994478,0.632680,0.378554,-0.579832,0.346734,9.88877487182617,0.76654899120331,0.38719129562378,0.80097305774689,-0.51044183969498,0.70730739831924
745,2732011145,0.632605,0.378577,-0.579900,0.346733,9.86121463775635,0.74557393789291,0.38146013021469,1.17333054542542,-0.70091068744659,0.58881032466888
746,2732027812,0.632511,0.378620,-0.579965,0.346747,9.87455368041992,0.74177420139313,0.39608830213547,1.37363469600677,-0.76553159952164,0.61020982265472
747,2732044479,0.632422,0.378628,-0.580043,0.346773,9.87591075897217,0.76390218734741,0.40923401713371,1.20902192592621,-0.69371354579926,0.82529246807098
748,2732061146,0.632356,0.378623,-0.580116,0.346777,9.87923812866211,0.78134644031525,0.40489250421524,1.01791262626648,-0.60428673028946,0.71555471420288
749,2732077813,0.632317,0.378596,-0.580185,0.346760,9.88069915771484,0.77400642633438,0.39235633611679,0.81687855720520,-0.48091042041779,0.63871663808823
750,2732094480,0.632275,0.378582,-0.580255,0.346735,9.87593746185303,0.76714897155762,0.40283498167992,0.84338772296906,-0.54530072212219,0.55795979499817
751,2732111147,0.632225,0.378608,-0.580296,0.346729,9.88168144226074,0.75019204616547,0.40837407112122,1.13924014568329,-0.50525528192520,0.42692527174950
752,2732127814,0.632162,0.378635,-0.580339,0.346742,9.87139320373535,0.74691390991211,0.42359700798988,1.30367362499237,-0.51080048084259,0.53850698471069
753,2732144481,0.632112,0.378645,-0.580373,0.346765,9.86870479583740,0.74526286125183,0.40286588668823,1.23117685317993,-0.35854578018188,0.60046410560608
754,2732161148,0.632063,0.378666,-0.580408,0.346773,9.87070083618164,0.74081367254257,0.38356846570969,1.20959830284119,-0.42160427570343,0.48642361164093
755,2732177815,0.632010,0.378688,-0.580444,0.346785,9.88885021209717,0.74860501289368,0.39565810561180,1.18763530254364,-0.43583208322525,0.51376515626907
756,2732194482,0.631966,0.378711,-0.580475,0.346788,9.88346767425537,0.75634258985519,0.39817243814468,1.18495869636536,-0.40513530373573,0.43635076284409
757,2732211149,0.631936,0.378733,-0.580489,0.346797,9.87256431579590,0.76710158586502,0.40803295373917,1.18752002716064,-0.25349527597427,0.38664934039116
758,2732227816,0.631926,0.378743,-0.580495,0.346794,9.87500572204590,0.74780577421188,0.36367490887642,1.08358359336853,-0.14492304623127,0.31743100285530
759,2732244483,0.631906,0.378772,-0.580493,0.346802,9.86049175262451,0.75810259580612,0.35320973396301,1.26772630214691,-0.16552847623825,0.29185673594475
760,2732261150,0.631896,0.378793,-0.580501,0.346782,9.85396480560303,0.74457561969757,0.35843619704247,1.08081746101379,-0.21941758692265,0.20756530761719
761,2732277817,0.631899,0.378769,-0.580529,0.346759,9.86948776245117,0.73623466491699,0.37333640456200,0.72895020246506,-0.16292877495289,0.38828849792480
762,2732294484,0.631882,0.378731,-0.580580,0.346746,9.87559795379639,0.74015760421753,0.37513327598572,0.75097709894180,-0.27787855267525,0.59876084327698
763,2732311151,0.631870,0.378731,-0.580600,0.346732,9.87415981292725,0.74849182367325,0.39738747477531,0.95285642147064,-0.21821378171444,0.35179039835930
764,2732327818,0.631877,0.378719,-0.580609,0.346717,9.89285850524902,0.75400245189667,0.40510863065720,0.86544036865234,-0.07000590860844,0.31625279784203
765,2732344485,0.631903,0.378688,-0.580611,0.346703,9.88344955444336,0.75133615732193,0.38015830516815,0.76182407140732,0.08540554344654,0.33697345852852
766,2732361152,0.631768,0.378849,-0.580573,0.346835,9.87335777282715,0.73756748437881,0.22276207804680,2.72556257247925,-0.45714190602303,0.48391357064247
767,2732377819,0.631705,0.378909,-0.580669,0.346725,9.88161277770996,0.77256405353546,0.60262542963028,0.81580293178558,-1.14331877231598,0.01559813320637
768,2732394486,0.631807,0.378787,-0.580657,0.346692,9.88618183135986,0.71539521217346,0.30682426691055,0.13971728086472,0.61786800622940,0.39739388227463
769,2732411153,0.631919,0.378571,-0.580772,0.346532,9.82029533386230,0.75832134485245,0.35301581025124,-1.09400165081024,0.00308633036911,0.52996522188187
770,2732427820,0.631919,0.378512,-0.580834,0.346492,9.82430267333984,0.71422940492630,0.32386490702629,0.47491067647934,-0.28213027119637,0.55265802145004
771,2732444487,0.631760,0.378489,-0.581003,0.346522,9.89212703704834,0.73577660322189,0.40993171930313,1.07747507095337,-1.28100001811981,1.37440311908722
772,2732461154,0.631617,0.378621,-0.581012,0.346624,9.90513801574707,0.77218723297119,0.39988958835602,2.35152721405029,-0.70271635055542,0.60516405105591
