sep=,
DeviceTag:,A
FirmwareVersion:,3.0.0
AppVersion:,2023.6.0
StartTime: ,2024-03-14_12:01:38_000 EDT
© Movella Technologies B. V. 2005-2024

PacketCounter,SampleTimeFine,Quat_W,Quat_X,Quat_Y,Quat_Z,Acc_X,Acc_Y,Acc_Z,Gyr_X,Gyr_Y,Gyr_Z
0,3960647129,0.834964,-0.114721,0.269740,-0.465741,0.00000000000000,0.00000000000000,0.00000000000000,0.00000000000000,0.00000000000000,0.00000000000000
1,3960663796,0.834934,-0.114923,0.269760,-0.465734,-3.43213987350464,-4.43406438827515,8.25738430023193,-0.30302381515503,0.12557265162468,0.57437115907669
2,3960680463,0.834916,-0.114977,0.269724,-0.465774,-3.42677378654480,-4.40690517425537,8.24689197540283,0.80350232124329,0.26344582438469,0.60412031412125
3,3960697130,0.834920,-0.115051,0.269722,-0.465748,-3.43155908584595,-4.42755031585693,8.23407745361328,0.48794114589691,0.33181896805763,1.00641906261444
4,3960713797,0.834920,-0.115013,0.269694,-0.465776,-3.43552565574646,-4.42463016510010,8.20410060882568,1.32127583026886,0.59469485282898,0.85321664810181
5,3960730464,0.834895,-0.115077,0.269733,-0.465781,-3.47317504882812,-4.41204309463501,8.25613594055176,0.46246927976608,0.68316113948822,0.76705557107925
6,3960747131,0.834876,-0.115146,0.269757,-0.465784,-3.46098423004150,-4.43632411956787,8.27450084686279,0.48351010680199,0.57899427413940,0.76417404413223
7,3960763798,0.834858,-0.115214,0.269767,-0.465794,-3.45766758918762,-4.45846652984619,8.25172042846680,0.52957457304001,0.47776004672050,0.76156157255173
8,3960780465,0.834862,-0.115185,0.269716,-0.465824,-3.44502139091492,-4.40866851806641,8.22978591918945,1.33386445045471,0.41504734754562,0.84836304187775
9,3960797132,0.834832,-0.115251,0.269761,-0.465835,-3.43856739997864,-4.39982223510742,8.24699687957764,0.43118336796761,0.71794313192368,0.73921442031860
10,3960813799,0.834831,-0.115251,0.269758,-0.465838,-3.42512893676758,-4.42418956756592,8.21723651885986,0.98850297927856,0.61617112159729,0.91099888086319
11,3960830466,0.834817,-0.115227,0.269794,-0.465849,-3.41754841804504,-4.39200067520142,8.24397182464600,1.00709772109985,0.94849592447281,0.90291804075241
12,3960847133,0.834796,-0.115276,0.269886,-0.465820,-3.45221972465515,-4.44505786895752,8.22615242004395,0.30190327763557,0.97978180646896,1.07237160205841
13,3960863800,0.834755,-0.115236,0.269916,-0.465887,-3.47240781784058,-4.45365142822266,8.25706768035889,1.18666839599609,1.03949785232544,0.56151366233826
14,3960880467,0.834721,-0.115252,0.269956,-0.465921,-3.52294015884399,-4.46488857269287,8.28258705139160,0.77557170391083,0.89011180400848,0.64968538284302
15,3960897134,0.834648,-0.115210,0.269961,-0.466059,-3.46508908271790,-4.37926959991455,8.28247070312500,1.38227272033691,1.01359069347382,0.04190878570080
16,3960913801,0.834556,-0.115400,0.270121,-0.466084,-3.45566868782043,-4.44964838027954,8.23513698577881,-0.67723822593689,1.10592436790466,0.31915345788002
17,3960930468,0.834503,-0.115291,0.270142,-0.466194,-3.39749312400818,-4.46664524078369,8.20248317718506,1.68069887161255,1.26440298557281,0.38784670829773
18,3960947135,0.834465,-0.115170,0.270151,-0.466286,-3.43950796127319,-4.34925031661987,8.24017429351807,1.75872814655304,1.18563115596771,0.56662338972092
19,3960963802,0.834420,-0.115270,0.270252,-0.466283,-3.47247171401978,-4.45304679870605,8.27060794830322,0.03560805693269,0.96565634012222,0.71543312072754
20,3960980469,0.834417,-0.115208,0.270188,-0.466342,-3.47041153907776,-4.40307950973511,8.29007434844971,1.60953390598297,0.47799050807953,0.71882671117783
21,3960997136,0.834369,-0.115331,0.270237,-0.466368,-3.46417546272278,-4.35082817077637,8.30869865417480,0.10446778684855,0.60424840450287,0.48740327358246
22,3961013803,0.834331,-0.115598,0.270360,-0.466299,-3.44449567794800,-4.50406408309937,8.20335960388184,-1.12022268772125,0.47473779320717,0.84636527299881
23,3961030470,0.834346,-0.115518,0.270313,-0.466320,-3.43505311012268,-4.47017288208008,8.20324516296387,1.63316166400909,0.61111253499985,0.96974164247513
24,3961047137,0.834352,-0.115470,0.270336,-0.466307,-3.45613002777100,-4.44135046005249,8.23284912109375,1.15141248703003,0.88072460889816,1.15321815013885
25,3961063804,0.834366,-0.115425,0.270335,-0.466294,-3.44758725166321,-4.43369483947754,8.23032093048096,1.22180902957916,0.74113553762436,1.12133038043976
26,3961080471,0.834340,-0.115410,0.270378,-0.466318,-3.45338177680969,-4.42691802978516,8.25928115844727,0.96162235736847,1.00608611106873,0.75401866436005
27,3961097138,0.834277,-0.115507,0.270488,-0.466344,-3.47306299209595,-4.46650075912476,8.22231006622314,0.05119338259101,1.07867252826691,0.50765007734299
28,3961113805,0.834228,-0.115483,0.270500,-0.466431,-3.45265316963196,-4.44676399230957,8.25925254821777,1.18502902984619,0.91531461477280,0.36560204625130
29,3961130472,0.834145,-0.115535,0.270587,-0.466516,-3.46634554862976,-4.41612291336060,8.26333141326904,0.46860361099243,1.16594779491425,0.19356158375740
30,3961147139,0.834048,-0.115623,0.270696,-0.466603,-3.46963596343994,-4.47758197784424,8.23611736297607,0.15884354710579,1.16205441951752,0.16173776984215
31,3961163806,0.833984,-0.115593,0.270698,-0.466725,-3.44733262062073,-4.43449926376343,8.23812961578369,1.30773973464966,0.93488281965256,0.12133374810219
32,3961180473,0.833894,-0.115713,0.270792,-0.466802,-3.45907545089722,-4.43775939941406,8.26954841613770,0.03071602806449,0.98473781347275,0.11418781429529
33,3961197140,0.833895,-0.115704,0.270834,-0.466778,-3.43987655639648,-4.40132856369019,8.25465202331543,0.83281606435776,0.85374170541763,1.16772782802582
34,3961213807,0.833832,-0.115765,0.270841,-0.466870,-3.45607018470764,-4.39199447631836,8.27100086212158,0.70275485515594,0.64556175470352,0.13171972334385
35,3961230474,0.833817,-0.115926,0.270940,-0.466801,-3.44993495941162,-4.48859119415283,8.21511745452881,-0.42345473170280,0.63586729764938,1.09843266010284
36,3961247141,0.833877,-0.115752,0.270849,-0.466789,-3.42362928390503,-4.46582746505737,8.22228240966797,2.27483654022217,0.52673155069351,1.49157476425171
37,3961263808,0.833934,-0.115680,0.270832,-0.466716,-3.44975852966309,-4.41788721084595,8.23418998718262,1.33591365814209,0.57469135522842,1.69387674331665
38,3961280475,0.834012,-0.115605,0.270782,-0.466624,-3.43569755554199,-4.44944143295288,8.23012924194336,1.43835163116455,0.34474053978920,1.85270094871521
39,3961297142,0.834094,-0.115518,0.270703,-0.466544,-3.47118973731995,-4.42574834823608,8.25552368164062,1.62258386611938,0.21871326863766,1.79967010021210
40,3961313809,0.834173,-0.115472,0.270627,-0.466458,-3.46115064620972,-4.40634822845459,8.25114154815674,1.37504982948303,0.10564599186182,1.73385822772980
41,3961330476,0.834220,-0.115523,0.270624,-0.466363,-3.45747137069702,-4.46211862564087,8.23109054565430,0.52779448032379,0.26573812961578,1.57855546474457
42,3961347143,0.834278,-0.115391,0.270533,-0.466345,-3.45000886917114,-4.49727439880371,8.21837806701660,2.01158952713013,0.36946958303452,1.47187876701355
43,3961363810,0.834329,-0.115279,0.270415,-0.466351,-3.46218156814575,-4.40398311614990,8.26858234405518,2.02575325965881,0.19664789736271,1.22898054122925
44,3961380477,0.834372,-0.115310,0.270338,-0.466310,-3.47090196609497,-4.39630985260010,8.23479747772217,0.97915416955948,-0.04587233811617,1.23689472675323
45,3961397144,0.834392,-0.115355,0.270293,-0.466289,-3.42775535583496,-4.38835477828979,8.24462032318115,0.82362121343613,0.15699945390224,1.02848446369171
46,3961413811,0.834406,-0.115470,0.270311,-0.466225,-3.43871927261353,-4.45473432540894,8.22082042694092,0.13951878249645,0.27078387141228,1.17283761501312
47,3961430478,0.834441,-0.115432,0.270270,-0.466195,-3.44184708595276,-4.47931480407715,8.23918819427490,1.25839674472809,0.38432493805885,1.34349489212036
48,3961447145,0.834473,-0.115333,0.270238,-0.466181,-3.47100210189819,-4.40311336517334,8.26348686218262,1.62650251388550,0.66405403614044,1.32596302032471
49,3961463812,0.834484,-0.115351,0.270255,-0.466147,-3.44397187232971,-4.43113136291504,8.23758697509766,0.74029034376144,0.59871608018875,1.18994677066803
50,3961480479,0.834495,-0.115344,0.270265,-0.466124,-3.44168233871460,-4.46465253829956,8.23201560974121,0.93894225358963,0.66201782226562,1.14348530769348
51,3961497146,0.834532,-0.115251,0.270203,-0.466116,-3.46772432327271,-4.41158008575439,8.25418949127197,1.70819425582886,0.47795221209526,1.26097083091736
52,3961513813,0.834533,-0.115281,0.270208,-0.466105,-3.45764589309692,-4.39815902709961,8.26139450073242,0.74002134799957,0.51898378133774,1.01712512969971
53,3961530480,0.834527,-0.115360,0.270260,-0.466064,-3.46020793914795,-4.46528053283691,8.24927139282227,0.24517115950584,0.62184423208237,1.10212075710297
54,3961547147,0.834537,-0.115294,0.270215,-0.466089,-3.43598127365112,-4.46127653121948,8.24335670471191,1.54717981815338,0.57277035713196,0.92836409807205
55,3961563814,0.834545,-0.115264,0.270209,-0.466086,-3.45909070968628,-4.44446372985840,8.22338008880615,1.14758348464966,0.65259248018265,1.07453620433807
56,3961580481,0.834556,-0.115207,0.270189,-0.466092,-3.44176769256592,-4.42612743377686,8.21817493438721,1.38601171970367,0.69065278768539,1.00972282886505
57,3961597148,0.834565,-0.115183,0.270178,-0.466088,-3.45123529434204,-4.43308401107788,8.21187114715576,1.13981008529663,0.60942220687866,1.04684865474701
58,3961613815,0.834581,-0.115108,0.270149,-0.466096,-3.44233226776123,-4.41041803359985,8.26223945617676,1.51380658149719,0.67047005891800,1.08545970916748
59,3961630482,0.834582,-0.115085,0.270157,-0.466094,-3.46410942077637,-4.41601085662842,8.27280235290527,1.06961846351624,0.73274731636047,1.01604938507080
60,3961647149,0.834582,-0.115120,0.270134,-0.466100,-3.48434281349182,-4.44682693481445,8.25972461700439,0.83514690399170,0.36132478713989,0.87558925151825
61,3961663816,0.834621,-0.115086,0.270034,-0.466095,-3.44792127609253,-4.41430187225342,8.23849582672119,1.50485479831696,0.08318363875151,1.08391010761261
62,3961680483,0.834640,-0.115122,0.270015,-0.466063,-3.42016410827637,-4.40590715408325,8.22839736938477,0.77065408229828,0.32322585582733,1.14070641994476
63,3961697150,0.834683,-0.115114,0.269991,-0.466004,-3.43850612640381,-4.45976018905640,8.21734714508057,1.00799405574799,0.37484824657440,1.43252456188202
64,3961713817,0.834748,-0.114954,0.269911,-0.465971,-3.41453957557678,-4.39524030685425,8.25049495697021,2.12046909332275,0.51320809125900,1.61673128604889
65,3961730484,0.834797,-0.114939,0.269933,-0.465875,-3.46898317337036,-4.45232057571411,8.25140190124512,0.83937281370163,0.62309926748276,1.71601855754852
66,3961747151,0.834847,-0.114781,0.269868,-0.465863,-3.45816612243652,-4.42846632003784,8.27506256103516,2.09481787681580,0.64626592397690,1.42324006557465
67,3961763818,0.834869,-0.114710,0.269842,-0.465855,-3.49121856689453,-4.41270065307617,8.26631546020508,1.45939218997955,0.65496146678925,1.18240380287170
68,3961780485,0.834874,-0.114677,0.269845,-0.465853,-3.43811106681824,-4.42881155014038,8.22966003417969,1.16757416725159,0.75236666202545,1.00689291954041
69,3961797152,0.834873,-0.114641,0.269847,-0.465862,-3.44360136985779,-4.41797447204590,8.22225952148438,1.16721558570862,0.74226248264313,0.98973244428635
70,3961813819,0.834885,-0.114562,0.269844,-0.465862,-3.42844414710999,-4.41208505630493,8.22895050048828,1.44525408744812,0.83957773447037,1.12852740287781
71,3961830486,0.834913,-0.114464,0.269840,-0.465838,-3.45727062225342,-4.41040229797363,8.25825786590576,1.51132225990295,0.82856446504593,1.37726533412933
72,3961847153,0.834956,-0.114388,0.269798,-0.465805,-3.46265244483948,-4.40479516983032,8.25776481628418,1.50415062904358,0.51055717468262,1.40068829059601
73,3961863820,0.835007,-0.114279,0.269732,-0.465778,-3.47482538223267,-4.38698959350586,8.28079986572266,1.80396008491516,0.48666054010391,1.39347827434540
74,3961880487,0.835029,-0.114245,0.269733,-0.465747,-3.44897317886353,-4.38632917404175,8.23969364166260,1.12006247043610,0.67231410741806,1.27352106571198
75,3961897154,0.835052,-0.114212,0.269753,-0.465700,-3.42446780204773,-4.42931652069092,8.21829986572266,1.01084995269775,0.75148290395737,1.38978981971741
76,3961913821,0.835083,-0.114086,0.269726,-0.465693,-3.43477463722229,-4.42538070678711,8.23588275909424,1.78457140922546,0.79528075456619,1.32212126255035
77,3961930488,0.835102,-0.113969,0.269717,-0.465691,-3.45419526100159,-4.39730882644653,8.26760673522949,1.67014658451080,0.89620757102966,1.25774359703064
78,3961947155,0.835110,-0.113866,0.269733,-0.465694,-3.46895575523376,-4.39470577239990,8.25622558593750,1.52085006237030,1.03528451919556,1.15193760395050
79,3961963822,0.835107,-0.113871,0.269730,-0.465699,-3.49022579193115,-4.40688800811768,8.29059696197510,0.95378500223160,0.59697443246841,0.90827119350433
80,3961980489,0.835102,-0.113781,0.269700,-0.465747,-3.44940471649170,-4.35719394683838,8.25601005554199,1.65100085735321,0.76378983259201,0.83798980712891
81,3961997156,0.835087,-0.113831,0.269771,-0.465721,-3.41528296470642,-4.41690063476562,8.23037624359131,0.38385111093521,0.85841608047485,1.04163646697998
82,3962013823,0.835117,-0.113658,0.269761,-0.465716,-3.43898606300354,-4.42773437500000,8.23597717285156,1.98751354217529,1.04045832157135,1.42763280868530
83,3962030490,0.835128,-0.113503,0.269750,-0.465740,-3.48160409927368,-4.37776517868042,8.29491424560547,1.92976963520050,1.03107118606567,1.16213142871857
84,3962047157,0.835121,-0.113495,0.269792,-0.465730,-3.48007726669312,-4.38098001480103,8.26031684875488,0.85723781585693,0.90346872806549,1.02072358131409
85,3962063824,0.835101,-0.113430,0.269871,-0.465737,-3.45500040054321,-4.39444780349731,8.25335121154785,1.08352589607239,1.32437503337860,1.03539967536926
86,3962080491,0.835079,-0.113331,0.270002,-0.465723,-3.45285725593567,-4.43009376525879,8.22698307037354,1.07727658748627,1.71290695667267,1.25706505775452
87,3962097158,0.835104,-0.113019,0.270051,-0.465727,-3.44048452377319,-4.45894765853882,8.20208740234375,2.61621594429016,1.84723281860352,1.64902889728546
88,3962113825,0.835170,-0.112579,0.270034,-0.465725,-3.46431827545166,-4.37444305419922,8.26811313629150,3.58953690528870,1.79915785789490,1.99664449691772
89,3962130492,0.835223,-0.112216,0.270048,-0.465710,-3.49142885208130,-4.32000398635864,8.31862831115723,3.00350570678711,1.73691916465759,1.91866672039032
90,3962147159,0.835275,-0.112027,0.270072,-0.465647,-3.51778483390808,-4.32641744613647,8.30782604217529,1.90144205093384,1.21873557567596,1.85628688335419
91,3962163826,0.835295,-0.111865,0.270105,-0.465631,-3.49137377738953,-4.35004806518555,8.27509498596191,1.76168620586395,1.26310944557190,1.46478378772736
92,3962180493,0.835292,-0.111804,0.270213,-0.465588,-3.50299978256226,-4.38846683502197,8.25434017181396,0.87858605384827,1.39096820354462,1.41737496852875
93,3962197160,0.835297,-0.111637,0.270254,-0.465596,-3.48424553871155,-4.41585397720337,8.24087429046631,1.79493165016174,1.36990165710449,1.29579138755798
94,3962213827,0.835293,-0.111491,0.270267,-0.465630,-3.50072669982910,-4.36543655395508,8.28251934051514,1.83402943611145,1.20051193237305,1.01481986045837
95,3962230494,0.835287,-0.111451,0.270273,-0.465646,-3.52206873893738,-4.35218667984009,8.29100799560547,1.19262337684631,0.79521673917770,0.94259226322174
96,3962247161,0.835290,-0.111416,0.270281,-0.465646,-3.49808025360107,-4.31731510162354,8.28063869476318,1.12472414970398,0.75284051895142,1.07153928279877
97,3962263828,0.835254,-0.111593,0.270388,-0.465606,-3.48211598396301,-4.37935066223145,8.25649833679199,-0.50225222110748,0.69765794277191,0.83902716636658
98,3962280495,0.835267,-0.111537,0.270398,-0.465590,-3.46944069862366,-4.36919689178467,8.21219539642334,1.23517870903015,0.81395226716995,1.21102583408356
99,3962297162,0.835273,-0.111564,0.270441,-0.465548,-3.48858451843262,-4.35693883895874,8.24880981445312,0.56580382585526,0.70001429319382,1.26874434947968
100,3962313829,0.835284,-0.111538,0.270466,-0.465520,-3.49976658821106,-4.36629533767700,8.26662635803223,1.00046408176422,0.80977755784988,1.20697939395905
101,3962330496,0.835283,-0.111584,0.270518,-0.465480,-3.50558590888977,-4.36422061920166,8.26668739318848,0.45108443498611,0.73200452327728,1.14648211002350
102,3962347163,0.835296,-0.111615,0.270552,-0.465430,-3.49353909492493,-4.41445589065552,8.24806690216064,0.59230005741119,0.64849436283112,1.27240693569183
103,3962363830,0.835328,-0.111525,0.270506,-0.465420,-3.50569105148315,-4.35617017745972,8.27317428588867,1.62354433536530,0.55806875228882,1.26756632328033
104,3962380497,0.835351,-0.111491,0.270498,-0.465392,-3.49013233184814,-4.32672500610352,8.25862979888916,1.15940368175507,0.62290728092194,1.24122345447540
105,3962397164,0.835364,-0.111513,0.270548,-0.465334,-3.48728156089783,-4.38155841827393,8.26285839080811,0.56468963623047,0.75260996818542,1.35175502300262
106,3962413831,0.835376,-0.111453,0.270542,-0.465331,-3.48721098899841,-4.38930320739746,8.24514102935791,1.32776856422424,0.74166047573090,1.13809370994568
107,3962430498,0.835382,-0.111468,0.270547,-0.465313,-3.50603461265564,-4.35203218460083,8.25409793853760,0.82596468925476,0.56379318237305,1.07599604129791
108,3962447165,0.835386,-0.111507,0.270545,-0.465297,-3.51091098785400,-4.35256624221802,8.26881694793701,0.72110629081726,0.45796146988869,0.99535429477692
109,3962463832,0.835369,-0.111587,0.270585,-0.465287,-3.50794243812561,-4.38070535659790,8.27303314208984,0.32759281992912,0.59609073400497,0.88427197933197
110,3962480499,0.835358,-0.111618,0.270569,-0.465309,-3.50064063072205,-4.37630748748779,8.25796318054199,0.85876190662384,0.44982948899269,0.75189286470413
111,3962497166,0.835343,-0.111707,0.270604,-0.465293,-3.49358916282654,-4.37983131408691,8.23619365692139,0.29620447754860,0.54524952173233,0.86932700872421
112,3962513833,0.835361,-0.111658,0.270586,-0.465284,-3.48273634910583,-4.38726472854614,8.21313285827637,1.28852999210358,0.61302071809769,1.18260872364044
113,3962530500,0.835369,-0.111608,0.270590,-0.465277,-3.46277070045471,-4.33566904067993,8.27273082733154,1.22652173042297,0.77769750356674,1.12425017356873
114,3962547167,0.835402,-0.111556,0.270604,-0.465223,-3.49228215217590,-4.35333728790283,8.25531768798828,1.14351105690002,0.75916683673859,1.47919106483459
115,3962563834,0.835415,-0.111504,0.270631,-0.465197,-3.49351477622986,-4.34939956665039,8.27718639373779,1.15714967250824,0.91627502441406,1.23182344436646
116,3962580501,0.835435,-0.111473,0.270635,-0.465166,-3.53828501701355,-4.39552354812622,8.28508663177490,1.07794237136841,0.67668116092682,1.26903891563416
117,3962597168,0.835428,-0.111460,0.270641,-0.465177,-3.53470420837402,-4.38284826278687,8.30741977691650,1.03856289386749,0.71072036027908,0.90608125925064
118,3962613835,0.835410,-0.111502,0.270661,-0.465190,-3.54455637931824,-4.38246059417725,8.24819374084473,0.66774237155914,0.64150214195251,0.75834727287292
119,3962630502,0.835397,-0.111457,0.270654,-0.465227,-3.48228955268860,-4.36097955703735,8.24472808837891,1.29609870910645,0.76532673835754,0.80647355318069
120,3962647169,0.835410,-0.111430,0.270676,-0.465197,-3.44066786766052,-4.38528728485107,8.19964408874512,0.99949085712433,0.77044928073883,1.26063799858093
121,3962663836,0.835450,-0.111277,0.270659,-0.465172,-3.47872924804688,-4.36756086349487,8.23798274993896,1.87325537204742,0.91727405786514,1.50818467140198
122,3962680503,0.835491,-0.111131,0.270634,-0.465148,-3.51416444778442,-4.32869195938110,8.28326320648193,1.85253453254700,0.81884443759918,1.51698255538940
123,3962697170,0.835514,-0.111122,0.270667,-0.465089,-3.51475834846497,-4.37958812713623,8.27843284606934,0.82164901494980,0.75103485584259,1.41268777847290
124,3962713837,0.835558,-0.110975,0.270617,-0.465075,-3.49204611778259,-4.38532447814941,8.26276493072510,1.96638286113739,0.69583940505981,1.43157696723938
125,3962730504,0.835592,-0.110866,0.270576,-0.465064,-3.50748157501221,-4.34842205047607,8.27489757537842,1.71276605129242,0.64525437355042,1.33880782127380
126,3962747171,0.835610,-0.110850,0.270589,-0.465027,-3.50640034675598,-4.37175035476685,8.27772521972656,0.95085233449936,0.66763991117477,1.29221832752228
127,3962763838,0.835645,-0.110758,0.270564,-0.465000,-3.48635458946228,-4.34387969970703,8.25347709655762,1.55173921585083,0.68213665485382,1.37398695945740
128,3962780505,0.835670,-0.110673,0.270553,-0.464981,-3.49873018264771,-4.35605287551880,8.25130939483643,1.46035301685333,0.75941014289856,1.31664025783539
129,3962797172,0.835704,-0.110636,0.270534,-0.464941,-3.53292012214661,-4.38363885879517,8.28731632232666,1.18820512294769,0.52871650457382,1.35691595077515
130,3962813839,0.835758,-0.110428,0.270419,-0.464961,-3.52357602119446,-4.30430793762207,8.28983306884766,2.59901666641235,0.52920317649841,1.32962572574615
131,3962830506,0.835772,-0.110461,0.270450,-0.464909,-3.49243640899658,-4.30598592758179,8.26043605804443,0.56036102771759,0.58243918418884,1.34186863899231
132,3962847173,0.835825,-0.110409,0.270459,-0.464820,-3.47988748550415,-4.44301319122314,8.19633674621582,1.09944438934326,0.66013532876968,1.76633512973785
133,3962863840,0.835903,-0.110113,0.270311,-0.464838,-3.52325248718262,-4.36137008666992,8.24827861785889,3.24799156188965,0.60263478755951,1.49948906898499
134,3962880507,0.835927,-0.109999,0.270277,-0.464841,-3.52892374992371,-4.28135204315186,8.29539775848389,1.74629318714142,0.73683255910873,1.22489535808563
135,3962897174,0.835919,-0.110005,0.270320,-0.464830,-3.51464986801147,-4.31625413894653,8.27836227416992,0.77838921546936,0.86452472209930,0.98776018619537
136,3962913841,0.835906,-0.109946,0.270333,-0.464859,-3.50031733512878,-4.33799552917480,8.28502941131592,1.30049133300781,0.91658258438110,0.88614183664322
137,3962930508,0.835899,-0.109946,0.270389,-0.464839,-3.50424933433533,-4.34674453735352,8.26162052154541,0.73580801486969,0.93606090545654,1.09674215316772
138,3962947175,0.835924,-0.109913,0.270386,-0.464803,-3.51446223258972,-4.40359210968018,8.25680541992188,1.10739707946777,0.62582713365555,1.32023870944977
139,3962963842,0.835988,-0.109630,0.270249,-0.464835,-3.50984477996826,-4.31650257110596,8.25748252868652,3.13456535339355,0.62882375717163,1.42084515094757
140,3962980509,0.836001,-0.109631,0.270271,-0.464798,-3.52301549911499,-4.27409934997559,8.30711364746094,0.82025307416916,0.68441617488861,1.24306738376617
141,3962997176,0.835993,-0.109700,0.270321,-0.464768,-3.50875115394592,-4.35094881057739,8.25577926635742,0.33982288837433,0.66874122619629,1.03167319297791
142,3963013843,0.835988,-0.109648,0.270315,-0.464792,-3.51162886619568,-4.33612728118896,8.26402759552002,1.29530489444733,0.73756253719330,0.95674324035645
143,3963030510,0.835985,-0.109648,0.270337,-0.464785,-3.50185298919678,-4.33821105957031,8.26048755645752,0.88011008501053,0.75132936239243,1.00894188880920
144,3963047177,0.835988,-0.109597,0.270349,-0.464784,-3.51897120475769,-4.36177587509155,8.26832866668701,1.20461010932922,0.81692337989807,1.11226344108582
145,3963063844,0.836016,-0.109475,0.270302,-0.464790,-3.50437951087952,-4.34655046463013,8.28783035278320,1.83866536617279,0.67903745174408,1.21896600723267
146,3963080511,0.836006,-0.109440,0.270294,-0.464820,-3.50886392593384,-4.28996419906616,8.28263664245605,1.21947836875916,0.70235782861710,0.86695796251297
147,3963097178,0.835997,-0.109478,0.270346,-0.464797,-3.50377941131592,-4.34833431243896,8.24035358428955,0.51598709821701,0.77988755702972,1.06142234802246
148,3963113845,0.836015,-0.109363,0.270318,-0.464809,-3.49568128585815,-4.35079765319824,8.25795173645020,1.76396572589874,0.81452864408493,1.11355698108673
149,3963130512,0.836034,-0.109268,0.270275,-0.464821,-3.52073025703430,-4.30709075927734,8.26828956604004,1.68222296237946,0.64699602127075,1.09170937538147
150,3963147179,0.836039,-0.109258,0.270282,-0.464812,-3.52390480041504,-4.31047773361206,8.28865146636963,0.97486418485641,0.65703618526459,1.07699477672577
151,3963163846,0.836045,-0.109258,0.270292,-0.464795,-3.52084565162659,-4.32308197021484,8.26515293121338,0.90798944234848,0.65155500173569,1.08268082141876
152,3963180513,0.836046,-0.109277,0.270313,-0.464776,-3.51853966712952,-4.33920049667358,8.28354263305664,0.75428766012192,0.66369557380676,1.04451799392700
153,3963197180,0.836044,-0.109279,0.270322,-0.464773,-3.51629519462585,-4.30195331573486,8.27998256683350,0.91404676437378,0.66236358880997,0.98222774267197
154,3963213847,0.836034,-0.109386,0.270398,-0.464723,-3.51291179656982,-4.33754730224609,8.26981544494629,0.01589908450842,0.70435565710068,1.05308544635773
155,3963230514,0.836023,-0.109398,0.270419,-0.464727,-3.49175715446472,-4.36999511718750,8.22801589965820,0.81096851825714,0.70411235094070,0.92461210489273
156,3963247181,0.836026,-0.109345,0.270415,-0.464737,-3.49973607063293,-4.32768869400024,8.24894809722900,1.29411387443542,0.75742518901825,1.03046941757202
157,3963263848,0.836015,-0.109402,0.270475,-0.464708,-3.51717019081116,-4.34653329849243,8.28041648864746,0.37810108065605,0.77099984884262,1.03924179077148
158,3963280515,0.835999,-0.109365,0.270459,-0.464755,-3.52290320396423,-4.32081317901611,8.28064727783203,1.28751838207245,0.69381594657898,0.72610080242157
159,3963297182,0.835953,-0.109462,0.270531,-0.464773,-3.54228854179382,-4.30702543258667,8.27704620361328,0.15913809835911,0.79420495033264,0.62179303169250
160,3963313849,0.835938,-0.109556,0.270568,-0.464756,-3.52636814117432,-4.37336158752441,8.27714443206787,0.25285497307777,0.53710472583771,0.88943296670914
161,3963330516,0.835922,-0.109454,0.270541,-0.464825,-3.49417185783386,-4.27831220626831,8.28613185882568,1.73985147476196,0.85196155309677,0.70960623025894
162,3963347183,0.835894,-0.109652,0.270668,-0.464755,-3.53019881248474,-4.34165143966675,8.25064182281494,-0.73646754026413,0.70649433135986,1.01595985889435
163,3963363850,0.835890,-0.109541,0.270640,-0.464804,-3.47828483581543,-4.32226562500000,8.23061561584473,1.77535080909729,0.84495663642883,0.86049073934555
164,3963380517,0.835857,-0.109615,0.270762,-0.464775,-3.51664996147156,-4.31905126571655,8.24457740783691,0.04476459324360,1.09214484691620,1.03082799911499
165,3963397184,0.835860,-0.109654,0.270829,-0.464721,-3.52208280563354,-4.43827819824219,8.25689029693604,0.41392043232918,0.82084220647812,1.28909361362457
166,3963413851,0.835872,-0.109447,0.270738,-0.464802,-3.58288502693176,-4.32882213592529,8.31822299957275,2.59108948707581,0.77500820159912,0.88404148817062
167,3963430518,0.835836,-0.109547,0.270791,-0.464812,-3.56596589088440,-4.27278804779053,8.28984928131104,0.21666422486305,0.67979300022125,0.63523972034454
168,3963447185,0.835770,-0.109701,0.270893,-0.464836,-3.49638438224792,-4.32060241699219,8.26002502441406,-0.26498898863792,0.83496761322021,0.42229577898979
169,3963463852,0.835733,-0.109789,0.270953,-0.464846,-3.49603223800659,-4.34320783615112,8.22900581359863,0.24736106395721,0.74874246120453,0.69240736961365
170,3963480519,0.835718,-0.109859,0.270984,-0.464839,-3.50575757026672,-4.33687877655029,8.26333427429199,0.43384706974030,0.59019982814789,0.85422831773758
171,3963497186,0.835711,-0.109884,0.270987,-0.464843,-3.52344536781311,-4.31482410430908,8.27103042602539,0.80670404434204,0.55407315492630,0.89219921827316
172,3963513853,0.835704,-0.110016,0.271024,-0.464803,-3.53086543083191,-4.36689805984497,8.27265739440918,-0.00008964443987,0.38568240404129,0.95799815654755
173,3963530520,0.835703,-0.110060,0.270994,-0.464812,-3.52655386924744,-4.34421920776367,8.26356983184814,0.81780707836151,0.30968955159187,0.80533379316330
174,3963547187,0.835685,-0.110203,0.271034,-0.464787,-3.52763390541077,-4.34508466720581,8.26321125030518,-0.03839343413711,0.41284468770027,0.79615151882172
175,3963563854,0.835681,-0.110270,0.271051,-0.464768,-3.49213695526123,-4.39961290359497,8.24922084808350,0.46660575270653,0.46546602249146,0.98773455619812
176,3963580521,0.835672,-0.110248,0.271028,-0.464803,-3.50568461418152,-4.31263637542725,8.25588321685791,1.21956801414490,0.59536081552505,0.76276546716690
177,3963597188,0.835648,-0.110424,0.271101,-0.464761,-3.52564716339111,-4.37425327301025,8.26328849792480,-0.38191094994545,0.48628908395767,0.85566264390945
178,3963613855,0.835652,-0.110355,0.271018,-0.464819,-3.51958584785461,-4.36458873748779,8.26961517333984,1.73154008388519,0.39249539375305,0.71956962347031
179,3963630522,0.835616,-0.110420,0.271024,-0.464866,-3.54018640518188,-4.24302768707275,8.26842880249023,0.63786512613297,0.54715770483017,0.45036730170250
180,3963647189,0.835561,-0.110673,0.271179,-0.464815,-3.49051594734192,-4.38413619995117,8.22886562347412,-1.14347898960114,0.74011099338531,0.76464796066284
181,3963663856,0.835563,-0.110576,0.271146,-0.464853,-3.50169372558594,-4.40354919433594,8.22587203979492,1.68592393398285,0.74321001768112,0.93631690740585
182,3963680523,0.835540,-0.110601,0.271196,-0.464858,-3.54221224784851,-4.34684514999390,8.28438758850098,0.65045374631882,0.86670172214508,0.85813432931900
183,3963697190,0.835521,-0.110600,0.271207,-0.464886,-3.53774309158325,-4.34501838684082,8.27724075317383,0.96711629629135,0.73739606142044,0.75417232513428
184,3963713857,0.835476,-0.110672,0.271266,-0.464916,-3.52105498313904,-4.34473371505737,8.26744174957275,0.37853649258614,0.82204592227936,0.57118237018585
185,3963730524,0.835464,-0.110748,0.271307,-0.464896,-3.51510620117188,-4.40951824188232,8.24115943908691,0.34201276302338,0.61176568269730,0.94119626283646
186,3963747191,0.835476,-0.110595,0.271222,-0.464960,-3.51466703414917,-4.31077718734741,8.26628971099854,2.24994111061096,0.65079945325851,0.83230388164520
187,3963763858,0.835454,-0.110699,0.271271,-0.464947,-3.53036475181580,-4.30268287658691,8.27649784088135,0.16071327030659,0.58473145961761,0.83176594972610
188,3963780525,0.835438,-0.110767,0.271313,-0.464934,-3.47997975349426,-4.36943101882935,8.23572444915771,0.39467251300812,0.65931564569473,0.89560556411743
189,3963797192,0.835446,-0.110729,0.271309,-0.464931,-3.50280022621155,-4.39873361587524,8.19568824768066,1.19267451763153,0.69055038690567,1.08574151992798
190,3963813859,0.835465,-0.110673,0.271288,-0.464923,-3.50751256942749,-4.36204004287720,8.24841976165771,1.35411143302917,0.63292175531387,1.15593314170837
191,3963830526,0.835469,-0.110651,0.271309,-0.464909,-3.52405500411987,-4.35445070266724,8.26573371887207,0.99399679899216,0.78192365169525,1.12186813354492
192,3963847193,0.835483,-0.110578,0.271283,-0.464916,-3.50992417335510,-4.36944198608398,8.25845623016357,1.47607886791229,0.66778057813644,1.10486125946045
193,3963863860,0.835479,-0.110536,0.271258,-0.464948,-3.50145411491394,-4.32854890823364,8.26779842376709,1.32071256637573,0.61034435033798,0.87948256731033
194,3963880527,0.835468,-0.110603,0.271289,-0.464934,-3.50979161262512,-4.34601783752441,8.25930309295654,0.44525754451752,0.59475886821747,0.88931769132614
195,3963897194,0.835440,-0.110668,0.271306,-0.464958,-3.51257658004761,-4.37019920349121,8.26368236541748,0.54042154550552,0.55026960372925,0.68437767028809
196,3963913861,0.835425,-0.110720,0.271321,-0.464963,-3.51369643211365,-4.38098669052124,8.24488258361816,0.60709136724472,0.55736428499222,0.80605077743530
197,3963930528,0.835423,-0.110716,0.271308,-0.464976,-3.52085781097412,-4.38085508346558,8.26800823211670,1.04600346088409,0.55982315540314,0.89330059289932
198,3963947195,0.835425,-0.110673,0.271242,-0.465021,-3.52239871025085,-4.31226968765259,8.28109264373779,1.49676144123077,0.39257228374481,0.76121586561203
199,3963963862,0.835416,-0.110816,0.271289,-0.464977,-3.50440573692322,-4.37568855285645,8.24325561523438,-0.09725141525269,0.41472721099854,0.95439952611923
200,3963980529,0.835455,-0.110753,0.271209,-0.464967,-3.50500059127808,-4.40961456298828,8.25641250610352,1.59072124958038,0.27935129404068,1.20121622085571
201,3963997196,0.835492,-0.110705,0.271120,-0.464964,-3.53006958961487,-4.32941150665283,8.28724861145020,1.53840744495392,0.17729747295380,1.13628804683685
202,3964013863,0.835529,-0.110737,0.271064,-0.464924,-3.51187729835510,-4.34225082397461,8.25693798065186,0.88787072896957,0.05749411135912,1.26846265792847
203,3964030530,0.835567,-0.110712,0.270973,-0.464913,-3.51171350479126,-4.36184597015381,8.23896980285645,1.39449000358582,0.08419535309076,1.14316534996033
204,3964047197,0.835612,-0.110718,0.270913,-0.464867,-3.49757981300354,-4.35919618606567,8.25742626190186,1.07189786434174,0.13438344001770,1.31786942481995
205,3964063864,0.835651,-0.110614,0.270827,-0.464871,-3.51636767387390,-4.32600736618042,8.26451969146729,1.86512315273285,0.37322190403938,1.20761966705322
206,3964080531,0.835667,-0.110708,0.270852,-0.464806,-3.53048419952393,-4.37781238555908,8.28829765319824,0.23778191208839,0.39188072085381,1.20956623554230
207,3964097198,0.835701,-0.110660,0.270766,-0.464806,-3.49492025375366,-4.41455984115601,8.23621749877930,1.53229880332947,0.20273090898991,1.11711704730988
208,3964113865,0.835727,-0.110518,0.270646,-0.464862,-3.50721526145935,-4.30593776702881,8.27323055267334,2.27488803863525,0.36257976293564,0.91621118783951
209,3964130532,0.835716,-0.110671,0.270694,-0.464818,-3.50848102569580,-4.35966968536377,8.26601600646973,-0.16508664190769,0.38080319762230,0.94711279869080
210,3964147199,0.835743,-0.110534,0.270610,-0.464851,-3.48432254791260,-4.40052413940430,8.23797130584717,2.09317874908447,0.53549116849899,1.07011783123016
211,3964163866,0.835729,-0.110373,0.270591,-0.464926,-3.47635984420776,-4.32953929901123,8.27586841583252,2.04867672920227,1.06787669658661,0.83674776554108
212,3964180533,0.835720,-0.110008,0.270555,-0.465050,-3.49366736412048,-4.40306854248047,8.23829460144043,3.39117980003357,1.68091690540314,0.89056015014648
213,3964197200,0.835740,-0.109177,0.270269,-0.465376,-3.52358770370483,-4.31064081192017,8.26473140716553,7.26507616043091,1.82979106903076,0.50570368766785
214,3964213867,0.835748,-0.108799,0.270174,-0.465506,-3.53347253799438,-4.31252431869507,8.29394531250000,3.69538116455078,1.36768639087677,0.85100132226944
215,3964230534,0.835743,-0.108467,0.270028,-0.465675,-3.54476952552795,-4.33780193328857,8.30716705322266,3.64685821533203,0.96962648630142,0.49237221479416
216,3964247201,0.835727,-0.108056,0.269849,-0.465904,-3.53418421745300,-4.28963470458984,8.30544567108154,4.28965997695923,1.08301377296448,0.26833784580231
217,3964263868,0.835700,-0.107723,0.269716,-0.466106,-3.50216674804688,-4.31271934509277,8.27672958374023,3.64899706840515,1.10247957706451,0.26183226704597
218,3964280535,0.835714,-0.107107,0.269466,-0.466368,-3.47235250473022,-4.31226730346680,8.26676082611084,5.81654882431030,1.34777247905731,0.41185867786407
219,3964297202,0.835752,-0.106577,0.269237,-0.466553,-3.53559231758118,-4.23839807510376,8.30199241638184,5.09758710861206,1.05061376094818,0.85758370161057
220,3964313869,0.835762,-0.106434,0.269154,-0.466616,-3.52686262130737,-4.26305723190308,8.30999469757080,2.16960716247559,0.61650407314301,0.86312884092331
221,3964330536,0.835765,-0.106417,0.269094,-0.466649,-3.52952456474304,-4.26279401779175,8.33612728118896,1.32874202728271,0.36259260773659,0.72563976049423
222,3964347203,0.835733,-0.106692,0.269171,-0.466599,-3.53645706176758,-4.26670837402344,8.31597232818604,-0.97452479600906,0.20643194019794,0.68170118331909
223,3964363870,0.835716,-0.106917,0.269229,-0.466544,-3.50581669807434,-4.30275201797485,8.30321693420410,-0.61634403467178,0.22798505425453,0.82753998041153
224,3964380537,0.835694,-0.107090,0.269284,-0.466513,-3.50524067878723,-4.29181194305420,8.28132534027100,-0.29049924015999,0.39118909835815,0.79789316654205
225,3964397204,0.835684,-0.107360,0.269379,-0.466415,-3.50951385498047,-4.31532430648804,8.28709888458252,-1.07294154167175,0.24358320236206,1.05772125720978
226,3964413871,0.835679,-0.107457,0.269390,-0.466393,-3.52861738204956,-4.28569316864014,8.29146671295166,0.29543608427048,0.32343074679375,0.96823042631149
227,3964430538,0.835639,-0.107683,0.269474,-0.466364,-3.49425148963928,-4.27722024917603,8.31310844421387,-0.69220882654190,0.42367884516716,0.65028721094131
228,3964447205,0.835595,-0.107806,0.269525,-0.466386,-3.53018140792847,-4.34310340881348,8.28553199768066,0.09254508465528,0.60386419296265,0.52400380373001
229,3964463872,0.835568,-0.107817,0.269535,-0.466425,-3.51689124107361,-4.28704071044922,8.28102016448975,0.92394614219666,0.72626733779907,0.63261449337006
230,3964480539,0.835540,-0.107938,0.269623,-0.466398,-3.50415086746216,-4.28445005416870,8.27684593200684,-0.07434085756540,0.78028452396393,0.83847659826279
231,3964497206,0.835553,-0.108018,0.269675,-0.466325,-3.49995684623718,-4.34705686569214,8.27494716644287,0.22502680122852,0.59256899356842,1.27779841423035
232,3964513873,0.835568,-0.107960,0.269638,-0.466333,-3.51107931137085,-4.32103061676025,8.29467296600342,1.43307530879974,0.56214112043381,1.05334138870239
233,3964530540,0.835563,-0.107979,0.269620,-0.466348,-3.52516198158264,-4.25561618804932,8.30488777160645,0.93328183889389,0.47094708681107,0.81799912452698
234,3964547207,0.835519,-0.108139,0.269716,-0.466334,-3.50408983230591,-4.29480981826782,8.29876232147217,-0.32957142591476,0.71333295106888,0.69915634393692
235,3964563874,0.835480,-0.108071,0.269731,-0.466411,-3.49677205085754,-4.31804990768433,8.31410026550293,1.40563130378723,1.03337633609772,0.56357538700104
236,3964580541,0.835443,-0.107994,0.269747,-0.466486,-3.51124691963196,-4.33518981933594,8.27742290496826,1.45788121223450,1.07233321666718,0.58727997541428
237,3964597208,0.835418,-0.107750,0.269669,-0.466634,-3.52030253410339,-4.33084964752197,8.26025199890137,2.86850094795227,1.09742116928101,0.43630599975586
238,3964613875,0.835385,-0.107491,0.269589,-0.466797,-3.53093838691711,-4.28594970703125,8.29172801971436,2.99042963981628,1.17998337745667,0.32693967223167
239,3964630542,0.835336,-0.107468,0.269607,-0.466879,-3.51428174972534,-4.28075695037842,8.26832103729248,1.14171802997589,0.92981135845184,0.40562191605568
240,3964647209,0.835296,-0.107415,0.269630,-0.466950,-3.50543594360352,-4.29729795455933,8.27475643157959,1.30415403842926,1.05262446403503,0.52604001760483
241,3964663876,0.835255,-0.107318,0.269604,-0.467061,-3.49654650688171,-4.31320619583130,8.28902530670166,1.77920532226562,0.93627858161926,0.35169437527657
242,3964680543,0.835213,-0.107132,0.269512,-0.467233,-3.52166509628296,-4.23135948181152,8.32914543151855,2.60671329498291,0.88105767965317,0.13538232445717
243,3964697210,0.835137,-0.107167,0.269537,-0.467346,-3.52555298805237,-4.26457452774048,8.32964420318604,0.81831932067871,0.85821110010147,0.05234595388174
244,3964713877,0.835060,-0.107311,0.269573,-0.467429,-3.51761436462402,-4.27295255661011,8.30162048339844,0.12225580960512,0.56393396854401,-0.00106292695273
245,3964730544,0.834949,-0.107680,0.269723,-0.467457,-3.49472784996033,-4.27560520172119,8.30096054077148,-1.67532670497894,0.51347702741623,-0.11384846270084
246,3964747211,0.834848,-0.108103,0.269900,-0.467437,-3.50599718093872,-4.35875558853149,8.27200984954834,-2.15738344192505,0.42629140615463,0.11966894567013
247,3964763878,0.834763,-0.108417,0.270006,-0.467454,-3.49328684806824,-4.29410123825073,8.28932952880859,-1.24274110794067,0.35125899314880,0.16423505544662
248,3964780545,0.834674,-0.108861,0.270199,-0.467399,-3.50387644767761,-4.31480026245117,8.25795841217041,-2.38048243522644,0.41634082794189,0.31716847419739
249,3964797212,0.834590,-0.109249,0.270353,-0.467370,-3.47712349891663,-4.36438894271851,8.24977970123291,-1.88428783416748,0.37407982349396,0.27477940917015
250,3964813879,0.834498,-0.109552,0.270501,-0.467378,-3.48228454589844,-4.36187553405762,8.26224040985107,-1.31220257282257,0.65556341409683,0.19356155395508
251,3964830546,0.834378,-0.109749,0.270623,-0.467475,-3.51085638999939,-4.38004350662231,8.25962543487549,-0.47487220168114,0.97700273990631,-0.24841755628586
252,3964847213,0.834254,-0.109972,0.270770,-0.467558,-3.49518132209778,-4.32958889007568,8.27487754821777,-0.71582370996475,1.04880797863007,-0.23949156701565
253,3964863880,0.834116,-0.110230,0.270917,-0.467658,-3.51361417770386,-4.37603998184204,8.28181552886963,-0.88376611471176,0.99719834327698,-0.49231448769569
254,3964880547,0.834011,-0.110410,0.271021,-0.467743,-3.48411750793457,-4.38546228408813,8.25806427001953,-0.31540757417679,0.89835900068283,-0.13640041649342
255,3964897214,0.833923,-0.110488,0.271055,-0.467861,-3.47045683860779,-4.40986967086792,8.25962543487549,0.55101245641708,0.80300301313400,-0.09928763657808
256,3964913881,0.833869,-0.110455,0.271041,-0.467973,-3.47337555885315,-4.33413410186768,8.24868488311768,1.36023283004761,0.82818031311035,0.20119418203831
257,3964930548,0.833795,-0.110582,0.271126,-0.468027,-3.49695348739624,-4.38598442077637,8.23399162292480,0.00872752815485,0.87517958879471,0.23992055654526
258,3964947215,0.833783,-0.110358,0.271037,-0.468153,-3.49009108543396,-4.38374567031860,8.24733543395996,2.73663353919983,0.92257583141327,0.60012471675873
259,3964963882,0.833744,-0.110332,0.271059,-0.468215,-3.49104142189026,-4.38972473144531,8.25069904327393,1.12444245815277,0.93543350696564,0.56052756309509
260,3964980549,0.833773,-0.110051,0.270918,-0.468310,-3.50910186767578,-4.42001867294312,8.23002624511719,3.22520852088928,0.73279851675034,0.92790317535400
261,3964997216,0.833821,-0.109738,0.270717,-0.468416,-3.50560617446899,-4.26515340805054,8.28083515167236,3.63887977600098,0.46259739995003,0.93020850419998
262,3965013883,0.833821,-0.109689,0.270689,-0.468444,-3.48154425621033,-4.34693813323975,8.25984668731689,1.37622809410095,0.62280482053757,0.89743703603745
263,3965030550,0.833844,-0.109449,0.270532,-0.468550,-3.48928618431091,-4.42930078506470,8.24634075164795,3.04714918136597,0.51039063930511,0.77876049280167
264,3965047217,0.833885,-0.109079,0.270301,-0.468695,-3.52420353889465,-4.34359073638916,8.27799510955811,4.12190961837769,0.51147925853729,0.80275970697403
265,3965063884,0.833923,-0.108877,0.270172,-0.468750,-3.50608468055725,-4.30715274810791,8.28972530364990,2.66893959045410,0.50096523761749,1.03803801536560
266,3965080551,0.833939,-0.108702,0.270091,-0.468808,-3.47660756111145,-4.32223558425903,8.27247238159180,2.34606552124023,0.72206687927246,0.95657676458359
267,3965097218,0.833964,-0.108551,0.270027,-0.468836,-3.48134016990662,-4.33667707443237,8.25874423980713,2.04121065139771,0.63479161262512,1.25860166549683
268,3965113885,0.834024,-0.108385,0.269932,-0.468822,-3.48840379714966,-4.32736301422119,8.27658939361572,2.24845552444458,0.49247458577156,1.45671570301056
269,3965130552,0.834071,-0.108195,0.269828,-0.468842,-3.49920248985291,-4.30407810211182,8.28751373291016,2.46529245376587,0.57430720329285,1.25017499923706
270,3965147219,0.834119,-0.108065,0.269748,-0.468833,-3.49122309684753,-4.34756946563721,8.26377677917480,1.98578464984894,0.47320106625557,1.36289656162262
271,3965163886,0.834189,-0.107908,0.269624,-0.468816,-3.49656438827515,-4.34868526458740,8.26253890991211,2.29293203353882,0.27748158574104,1.46209454536438
272,3965180553,0.834251,-0.107669,0.269489,-0.468837,-3.48750925064087,-4.31790590286255,8.27067947387695,2.84533357620239,0.50508874654770,1.40034222602844
273,3965197220,0.834315,-0.107349,0.269311,-0.468899,-3.50207805633545,-4.33491373062134,8.30177211761475,3.54402303695679,0.56922304630280,1.25086665153503
274,3965213887,0.834379,-0.106929,0.269075,-0.469017,-3.49989533424377,-4.26703310012817,8.30476951599121,4.40198469161987,0.58655005693436,1.08739364147186
275,3965230554,0.834391,-0.106830,0.269024,-0.469047,-3.50815653800964,-4.30244207382202,8.33899879455566,1.75565457344055,0.64156615734100,0.98371338844299
276,3965247221,0.834423,-0.106649,0.268888,-0.469111,-3.50464987754822,-4.28387260437012,8.27436351776123,2.58019137382507,0.40323993563652,0.92680191993713
277,3965263888,0.834447,-0.106646,0.268869,-0.469079,-3.47558403015137,-4.26526880264282,8.31013679504395,1.02799785137177,0.48646837472916,1.14914584159851
278,3965280555,0.834501,-0.106561,0.268829,-0.469024,-3.46859812736511,-4.37972688674927,8.25070190429688,1.51699542999268,0.51725488901138,1.59230959415436
279,3965297222,0.834595,-0.106100,0.268565,-0.469113,-3.48850536346436,-4.32349729537964,8.29468154907227,4.69244480133057,0.47536522150040,1.41392970085144
280,3965313889,0.834681,-0.105697,0.268314,-0.469195,-3.52970266342163,-4.23035144805908,8.33104610443115,4.33372688293457,0.42116886377335,1.23871362209320
281,3965330556,0.834734,-0.105465,0.268150,-0.469247,-3.49476552009583,-4.24442911148071,8.34512329101562,2.96832633018494,0.37788340449333,1.12026751041412
282,3965347223,0.834780,-0.105151,0.267958,-0.469344,-3.49524569511414,-4.25009155273438,8.30085563659668,3.59080433845520,0.50870025157928,1.00769948959351
283,3965363890,0.834819,-0.104986,0.267838,-0.469382,-3.53574633598328,-4.25628614425659,8.33419704437256,2.39516520500183,0.40984797477722,1.08544707298279
284,3965380557,0.834886,-0.104784,0.267691,-0.469390,-3.47930073738098,-4.27314949035645,8.31686210632324,2.66640377044678,0.31938400864601,1.37558770179749
285,3965397224,0.834964,-0.104646,0.267611,-0.469329,-3.49387383460999,-4.27961444854736,8.31417942047119,1.95609962940216,0.40636470913887,1.77083015441895
286,3965413891,0.835026,-0.104439,0.267489,-0.469334,-3.48694872856140,-4.20522308349609,8.32557392120361,2.59407353401184,0.47518602013588,1.43105208873749
287,3965430558,0.835063,-0.104396,0.267447,-0.469302,-3.50984263420105,-4.21270370483398,8.33945083618164,1.32396495342255,0.43296340107918,1.29625213146210
288,3965447225,0.835075,-0.104413,0.267452,-0.469273,-3.48192787170410,-4.25602340698242,8.32641601562500,0.76760625839233,0.50686895847321,1.21594369411469
289,3965463892,0.835099,-0.104262,0.267373,-0.469309,-3.51071763038635,-4.25766754150391,8.32392597198486,2.17087507247925,0.62769687175751,1.06193459033966
290,3965480559,0.835115,-0.104192,0.267317,-0.469329,-3.52410864830017,-4.23384761810303,8.34220504760742,1.59075975418091,0.50182312726974,0.98942494392395
291,3965497226,0.835124,-0.104127,0.267278,-0.469349,-3.47916555404663,-4.24492692947388,8.30628299713135,1.52383363246918,0.62160092592239,0.92043703794479
292,3965513893,0.835139,-0.104015,0.267194,-0.469395,-3.51209163665771,-4.27690696716309,8.36048030853271,1.95606124401093,0.48231914639473,0.92765998840332
293,3965530560,0.835168,-0.103877,0.267087,-0.469435,-3.50524997711182,-4.20463466644287,8.34289741516113,2.17753386497498,0.40165194869041,1.05088269710541
294,3965547227,0.835171,-0.103912,0.267077,-0.469427,-3.48871421813965,-4.21361684799194,8.32136631011963,0.77608406543732,0.42978751659393,0.95246595144272
295,3965563894,0.835179,-0.103853,0.267017,-0.469461,-3.49196052551270,-4.22562217712402,8.32205390930176,1.59767544269562,0.50813674926758,0.78714865446091
296,3965580561,0.835209,-0.103776,0.266940,-0.469467,-3.47641205787659,-4.24054288864136,8.31779956817627,1.69764149188995,0.38819244503975,1.07135987281799
297,3965597228,0.835232,-0.103753,0.266867,-0.469474,-3.50747656822205,-4.25916433334351,8.34566116333008,1.35672378540039,0.23155800998211,0.99441939592361
298,3965613895,0.835291,-0.103560,0.266696,-0.469508,-3.50824356079102,-4.22980594635010,8.32933330535889,2.72751545906067,0.17175236344337,1.19359660148621
299,3965630562,0.835318,-0.103455,0.266574,-0.469552,-3.50646305084229,-4.18070030212402,8.34991264343262,2.06691288948059,0.23779469728470,0.88287615776062
300,3965647229,0.835356,-0.103345,0.266450,-0.469579,-3.50530600547791,-4.24791955947876,8.34657573699951,2.09174418449402,0.23377352952957,1.00426757335663
301,3965663896,0.835440,-0.102948,0.266110,-0.469710,-3.48828625679016,-4.28565454483032,8.29988193511963,4.64442157745361,-0.10791911929846,0.95251715183258
302,3965680563,0.835528,-0.102331,0.265660,-0.469943,-3.46877264976501,-4.16116571426392,8.33412742614746,6.44221591949463,0.02166194282472,0.73398965597153
303,3965697230,0.835589,-0.101786,0.265332,-0.470139,-3.48675012588501,-4.19794416427612,8.34994411468506,5.57521295547485,0.53910249471664,0.74808937311172
304,3965713897,0.835683,-0.100967,0.264925,-0.470377,-3.48289895057678,-4.25874423980713,8.35376358032227,7.50811433792114,0.94863688945770,1.05336725711823
305,3965730564,0.835776,-0.100226,0.264488,-0.470617,-3.50646662712097,-4.09193420410156,8.40437126159668,7.13384771347046,0.50163120031357,0.92070633172989
306,3965747231,0.835809,-0.100157,0.264413,-0.470615,-3.49524617195129,-4.11790418624878,8.40961170196533,1.63733661174774,0.36348903179169,1.11894834041595
307,3965763898,0.835853,-0.100174,0.264390,-0.470546,-3.46505475044250,-4.13461828231812,8.36812400817871,0.85434353351593,0.32006269693375,1.42709469795227
308,3965780565,0.835872,-0.100157,0.264391,-0.470514,-3.44039034843445,-4.18264484405518,8.30954170227051,1.03838372230530,0.64349985122681,1.18244230747223
309,3965797232,0.835893,-0.100149,0.264384,-0.470483,-3.48329281806946,-4.21564865112305,8.38960933685303,0.99846619367599,0.55899071693420,1.19839894771576
310,3965813899,0.835919,-0.099913,0.264196,-0.470592,-3.54887437820435,-4.16665697097778,8.40705394744873,3.15574693679810,0.33370143175125,0.69688951969147
311,3965830566,0.835889,-0.100078,0.264226,-0.470594,-3.52837920188904,-4.10721683502197,8.40289974212646,-0.10260448604822,0.31319853663445,0.57845646142960
312,3965847233,0.835875,-0.100165,0.264195,-0.470618,-3.46226119995117,-4.17059898376465,8.34896087646484,0.60937088727951,0.21211796998978,0.55773568153381
313,3965863900,0.835888,-0.100076,0.264063,-0.470688,-3.44369244575500,-4.18922996520996,8.35450458526611,2.05144286155701,0.18668457865715,0.64600998163223
314,3965880567,0.835948,-0.100016,0.263950,-0.470657,-3.46198749542236,-4.15241193771362,8.35009002685547,1.68249189853668,0.05160319060087,1.31879162788391
315,3965897234,0.835968,-0.100003,0.263902,-0.470653,-3.46600842475891,-4.10207223892212,8.40358448028564,1.21703231334686,0.36393728852272,0.99531590938568
316,3965913901,0.835976,-0.100187,0.263936,-0.470579,-3.49320340156555,-4.10945892333984,8.39909553527832,-0.27213490009308,0.22812590003014,0.94529426097870
317,3965930568,0.835955,-0.100437,0.264014,-0.470520,-3.46338820457458,-4.17660665512085,8.39378929138184,-0.85488784313202,0.24186713993549,0.85717386007309
318,3965947235,0.835959,-0.100551,0.264014,-0.470489,-3.49814534187317,-4.21412277221680,8.37196063995361,0.24359597265720,0.20890356600285,0.96068745851517
319,3965963902,0.836007,-0.100486,0.263922,-0.470468,-3.48030734062195,-4.18315362930298,8.37444877624512,1.65631568431854,0.22874060273170,1.23346269130707
320,3965980569,0.836019,-0.100467,0.263890,-0.470469,-3.48148488998413,-4.09961557388306,8.41855621337891,1.19651639461517,0.48339486122131,0.97925668954849
321,3965997236,0.836007,-0.100588,0.263909,-0.470455,-3.48823523521423,-4.12237024307251,8.39253520965576,0.17330190539360,0.34381842613220,0.79959642887115
322,3966013903,0.836006,-0.100776,0.263992,-0.470369,-3.46975421905518,-4.21462440490723,8.36090564727783,-0.55541139841080,0.41965770721436,1.19546639919281
323,3966030570,0.836030,-0.100668,0.263967,-0.470363,-3.41414618492126,-4.14071273803711,8.36212730407715,1.68813955783844,0.78963315486908,1.20710730552673
324,3966047237,0.836057,-0.100507,0.263933,-0.470369,-3.47567057609558,-4.17275333404541,8.37599468231201,2.02095079421997,0.89504224061966,1.29509985446930
325,3966063904,0.836115,-0.100198,0.263807,-0.470402,-3.48166012763977,-4.20009565353394,8.40846920013428,3.24893927574158,0.80409157276154,1.44711112976074
326,3966080571,0.836148,-0.099929,0.263668,-0.470478,-3.52281188964844,-4.09597396850586,8.42614364624023,3.14017438888550,0.70467573404312,0.97143197059631
327,3966097238,0.836109,-0.100034,0.263760,-0.470474,-3.48658561706543,-4.11483240127563,8.40896320343018,0.02449214458466,0.86884033679962,0.74208307266235
328,3966113905,0.836115,-0.100029,0.263795,-0.470444,-3.47671389579773,-4.22389984130859,8.36271762847900,0.82305765151978,0.79515266418457,1.18933212757111
329,3966130572,0.836125,-0.099839,0.263727,-0.470506,-3.45368742942810,-4.11140966415405,8.39338397979736,2.39223289489746,0.86382037401199,0.94111949205399
330,3966147239,0.836085,-0.099959,0.263875,-0.470468,-3.49037647247314,-4.08378076553345,8.40746402740479,-0.30545705556870,1.11861550807953,0.94456440210342
331,3966163906,0.836095,-0.100006,0.263943,-0.470402,-3.45755314826965,-4.22635221481323,8.36062431335449,0.35989046096802,0.79149007797241,1.34129226207733
332,3966180573,0.836163,-0.099534,0.263735,-0.470499,-3.44999504089355,-4.16824817657471,8.35486125946045,4.56765985488892,0.88498926162720,1.34267544746399
333,3966197240,0.836167,-0.099337,0.263651,-0.470580,-3.50441336631775,-4.05818796157837,8.41948509216309,2.53015685081482,0.83016520738602,0.78887754678726
334,3966213907,0.836141,-0.099398,0.263746,-0.470560,-3.49806404113770,-4.13781785964966,8.41069507598877,0.23920342326164,0.98837488889694,0.96376115083694
335,3966230574,0.836116,-0.099399,0.263774,-0.470587,-3.50518965721130,-4.18419837951660,8.39047050476074,0.90933406352997,0.85425388813019,0.71335846185684
336,3966247241,0.836089,-0.099326,0.263749,-0.470666,-3.48600888252258,-4.14900970458984,8.38641738891602,1.59680438041687,0.81460535526276,0.52944636344910
337,3966263908,0.836061,-0.099358,0.263808,-0.470676,-3.50805401802063,-4.12270355224609,8.39055061340332,0.62786340713501,0.96437585353851,0.69317579269409
338,3966280575,0.836019,-0.099389,0.263869,-0.470710,-3.46716523170471,-4.10244178771973,8.39094066619873,0.61531305313110,0.95863848924637,0.61688822507858
339,3966297242,0.835990,-0.099335,0.263846,-0.470785,-3.47724771499634,-4.17213058471680,8.35184669494629,1.46575736999512,0.76097255945206,0.52983081340790
340,3966313909,0.835991,-0.099269,0.263814,-0.470816,-3.48313736915588,-4.16828489303589,8.36548709869385,1.49741435050964,0.65695917606354,0.89547753334045
341,3966330576,0.835990,-0.099243,0.263822,-0.470818,-3.47825479507446,-4.09501981735229,8.41303443908691,1.08464014530182,0.75090676546097,1.01027369499207
342,3966347243,0.835982,-0.099265,0.263887,-0.470792,-3.49008679389954,-4.15404033660889,8.38704967498779,0.56100136041641,0.89367198944092,1.12457048892975
343,3966363910,0.836028,-0.099083,0.263822,-0.470784,-3.47215080261230,-4.23544788360596,8.35886669158936,2.26493740081787,0.77754390239716,1.37597179412842
344,3966380577,0.836086,-0.098729,0.263652,-0.470852,-3.49635720252991,-4.10265541076660,8.39874362945557,3.72715449333191,0.75108611583710,1.23645961284637
345,3966397244,0.836089,-0.098700,0.263669,-0.470842,-3.49925684928894,-4.05293750762939,8.43657112121582,1.05175352096558,0.78938984870911,1.10463094711304
346,3966413911,0.836085,-0.098714,0.263714,-0.470821,-3.49783062934875,-4.16811752319336,8.39191532135010,0.69315004348755,0.81934386491776,1.08215570449829
347,3966430578,0.836085,-0.098637,0.263663,-0.470865,-3.49770426750183,-4.12796545028687,8.41818523406982,1.65097522735596,0.59854954481125,0.82027870416641
348,3966447245,0.836093,-0.098619,0.263630,-0.470874,-3.49294710159302,-4.12667036056519,8.38383007049561,1.19035661220551,0.47102397680283,0.95733243227005
349,3966463912,0.836119,-0.098497,0.263534,-0.470907,-3.47668361663818,-4.11258459091187,8.40974330902100,2.05119943618774,0.43362942337990,1.01734292507172
350,3966480579,0.836119,-0.098492,0.263556,-0.470895,-3.47467017173767,-4.10602760314941,8.37821769714355,0.89899933338165,0.74345338344574,1.05825901031494
351,3966497246,0.836154,-0.098338,0.263486,-0.470906,-3.49371337890625,-4.13019943237305,8.37635707855225,2.11434745788574,0.65607571601868,1.24964988231659
352,3966513913,0.836166,-0.098316,0.263501,-0.470880,-3.48930621147156,-4.10281181335449,8.40351390838623,0.99870961904526,0.73389995098114,1.21020650863647
353,3966530580,0.836142,-0.098364,0.263521,-0.470901,-3.50207138061523,-4.14510917663574,8.39600467681885,0.60674560070038,0.58897042274475,0.76955264806747
354,3966547247,0.836119,-0.098429,0.263537,-0.470921,-3.51706147193909,-4.11121749877930,8.43417549133301,0.58103054761887,0.57163065671921,0.62539172172546
355,3966563914,0.836082,-0.098520,0.263572,-0.470948,-3.49466180801392,-4.15394258499146,8.40272140502930,0.34305009245872,0.59807568788528,0.56892848014832
356,3966580581,0.836066,-0.098540,0.263566,-0.470974,-3.49205589294434,-4.14743804931641,8.38132476806641,0.92673802375793,0.59082740545273,0.66003286838531
357,3966597248,0.836069,-0.098547,0.263552,-0.470976,-3.46615886688232,-4.10423421859741,8.38324069976807,0.97318649291992,0.51306724548340,0.93641948699951
358,3966613915,0.836051,-0.098620,0.263609,-0.470961,-3.46063828468323,-4.11179828643799,8.38639450073242,0.32869419455528,0.73815160989761,0.87936717271805
359,3966630582,0.836039,-0.098636,0.263613,-0.470976,-3.48654031753540,-4.11747026443481,8.40481758117676,0.86982649564743,0.61578691005707,0.82136726379395
360,3966647249,0.836033,-0.098702,0.263625,-0.470965,-3.49762892723083,-4.15071725845337,8.39413547515869,0.53783464431763,0.49256423115730,0.85248667001724
361,3966663916,0.836041,-0.098708,0.263618,-0.470955,-3.48351287841797,-4.18691778182983,8.39147567749023,0.93679088354111,0.53377509117126,1.03000819683075
362,3966680583,0.836065,-0.098562,0.263544,-0.470984,-3.48787379264832,-4.08146333694458,8.41072750091553,2.10822606086731,0.63849252462387,1.09330999851227
363,3966697250,0.836035,-0.098757,0.263668,-0.470928,-3.50492119789124,-4.08335590362549,8.42286682128906,-0.66706997156143,0.72921282052994,0.88026374578476
364,3966713917,0.836007,-0.098964,0.263782,-0.470869,-3.48453092575073,-4.17641019821167,8.38098335266113,-0.69809973239899,0.64008057117462,0.86314165592194
365,3966730584,0.835994,-0.099013,0.263767,-0.470890,-3.49194097518921,-4.15552568435669,8.38632106781006,0.76336729526520,0.41527792811394,0.68011319637299
366,3966747251,0.836004,-0.099083,0.263778,-0.470852,-3.47059559822083,-4.14643573760986,8.34151458740234,0.46832185983658,0.40946382284164,1.08355164527893
367,3966763918,0.836006,-0.099113,0.263793,-0.470834,-3.45386838912964,-4.10443162918091,8.38561916351318,0.72117036581039,0.60753965377808,1.00670075416565
368,3966780585,0.836013,-0.099221,0.263842,-0.470772,-3.47756195068359,-4.14171266555786,8.38745212554932,0.10774622857571,0.53339087963104,1.09806132316589
369,3966797252,0.836015,-0.099238,0.263828,-0.470771,-3.50256204605103,-4.16243696212769,8.38703060150146,0.90613251924515,0.46615758538246,0.94314295053482
370,3966813919,0.836004,-0.099262,0.263820,-0.470791,-3.49866032600403,-4.12985754013062,8.41660785675049,0.88962513208389,0.53559362888336,0.74522078037262
371,3966830586,0.835982,-0.099362,0.263877,-0.470776,-3.48726582527161,-4.17052221298218,8.38118648529053,0.17901355028152,0.67159700393677,0.79017090797424
372,3966847253,0.835983,-0.099252,0.263817,-0.470832,-3.48014020919800,-4.14217805862427,8.38322162628174,1.89976441860199,0.67674517631531,0.77316421270370
373,3966863920,0.835983,-0.099286,0.263840,-0.470812,-3.48869371414185,-4.11664628982544,8.39916706085205,0.70210170745850,0.68002355098724,0.92646896839142
374,3966880587,0.835987,-0.099281,0.263846,-0.470802,-3.48026585578918,-4.17544269561768,8.38906383514404,0.96313351392746,0.65471822023392,1.04039418697357
375,3966897254,0.836008,-0.099196,0.263792,-0.470814,-3.48580479621887,-4.11808204650879,8.38696670532227,1.64878547191620,0.54021656513214,1.10132682323456
376,3966913921,0.836021,-0.099298,0.263824,-0.470752,-3.48812508583069,-4.12817907333374,8.39817619323730,0.20145028829575,0.44204315543175,1.12828433513641
377,3966930588,0.836013,-0.099355,0.263855,-0.470735,-3.48680710792542,-4.15954017639160,8.36051464080811,0.49994066357613,0.60549056529999,0.95208162069321
378,3966947255,0.836019,-0.099302,0.263834,-0.470748,-3.49591350555420,-4.15819501876831,8.40174770355225,1.40362083911896,0.71935188770294,0.88105767965317
379,3966963922,0.836010,-0.099224,0.263814,-0.470791,-3.48614788055420,-4.09670209884644,8.40372562408447,1.54709017276764,0.79102897644043,0.82099586725235
380,3966980589,0.835982,-0.099268,0.263862,-0.470806,-3.48600125312805,-4.13232088088989,8.38654232025146,0.55902910232544,0.81178802251816,0.73979073762894
381,3966997256,0.835970,-0.099254,0.263890,-0.470813,-3.46815657615662,-4.18703937530518,8.33944416046143,0.95789575576782,0.84660851955414,0.93641948699951
382,3967013923,0.835986,-0.099086,0.263814,-0.470863,-3.48648285865784,-4.15651273727417,8.38079071044922,2.27304387092590,0.73041659593582,0.98322665691376
383,3967030590,0.836007,-0.099006,0.263762,-0.470872,-3.51880836486816,-4.09564304351807,8.40966320037842,1.65617465972900,0.58278495073318,1.00009262561798
384,3967047257,0.835995,-0.099040,0.263765,-0.470885,-3.48546934127808,-4.08471536636353,8.42138385772705,0.77274155616760,0.54834872484207,0.79689431190491
385,3967063924,0.835979,-0.099141,0.263804,-0.470868,-3.49376630783081,-4.14809274673462,8.39521503448486,0.21337299048901,0.53132903575897,0.85289657115936
386,3967080591,0.835983,-0.099180,0.263816,-0.470847,-3.47624802589417,-4.15270423889160,8.38350009918213,0.66479671001434,0.54138195514679,1.02737021446228
387,3967097258,0.836001,-0.099138,0.263788,-0.470840,-3.47967195510864,-4.13387823104858,8.37347507476807,1.29629075527191,0.54768276214600,1.12328982353210
388,3967113925,0.836014,-0.099144,0.263809,-0.470804,-3.47532033920288,-4.13022184371948,8.38389205932617,0.85498398542404,0.73297786712646,1.09579443931580
389,3967130592,0.836031,-0.099129,0.263827,-0.470766,-3.49352407455444,-4.16437339782715,8.37566852569580,0.93940329551697,0.71330726146698,1.26542723178864
390,3967147259,0.836058,-0.099009,0.263782,-0.470770,-3.48412609100342,-4.13941383361816,8.38364219665527,1.85969316959381,0.74226242303848,1.12782311439514
391,3967163926,0.836066,-0.099005,0.263829,-0.470729,-3.49522376060486,-4.12910604476929,8.37663650512695,0.78636753559113,0.88545030355453,1.20705616474152
392,3967180593,0.836069,-0.098910,0.263834,-0.470742,-3.47458600997925,-4.17245626449585,8.37838840484619,1.54966437816620,0.99270331859589,0.98966825008392
393,3967197260,0.836090,-0.098681,0.263748,-0.470800,-3.49628162384033,-4.12942695617676,8.40536117553711,2.69660115242004,0.88954830169678,1.00755882263184
394,3967213927,0.836076,-0.098645,0.263826,-0.470788,-3.47530364990234,-4.09365034103394,8.38702201843262,0.91820883750916,1.23567819595337,1.03171145915985
395,3967230594,0.836065,-0.098639,0.263928,-0.470753,-3.48832702636719,-4.15521335601807,8.36606025695801,0.61624789237976,1.24301624298096,1.15503668785095
396,3967247261,0.836067,-0.098498,0.264008,-0.470734,-3.46264648437500,-4.10395717620850,8.37022686004639,1.49517321586609,1.52882838249207,1.36899232864380
397,3967263928,0.836031,-0.098601,0.264255,-0.470638,-3.48520660400391,-4.16606330871582,8.34776592254639,-0.59418910741806,1.74316847324371,1.29180848598480
398,3967280595,0.836030,-0.098315,0.264280,-0.470686,-3.50963640213013,-4.21059226989746,8.35306072235107,2.61624073982239,1.72402274608612,1.21696805953979
399,3967297262,0.836043,-0.097895,0.264233,-0.470776,-3.54241228103638,-4.11922359466553,8.39558219909668,3.72050738334656,1.76173758506775,1.17507874965668
400,3967313929,0.836016,-0.097686,0.264282,-0.470839,-3.54209184646606,-4.07466936111450,8.42152881622314,2.14463448524475,1.71280455589294,0.82243013381958
401,3967330596,0.835991,-0.097482,0.264304,-0.470913,-3.52260375022888,-4.10992908477783,8.41690540313721,2.19691014289856,1.51978719234467,0.80761325359344
402,3967347263,0.835977,-0.097430,0.264375,-0.470911,-3.49989438056946,-4.08988094329834,8.39310264587402,1.01966071128845,1.21395862102509,1.07232034206390
403,3967363930,0.835977,-0.097451,0.264455,-0.470861,-3.50330114364624,-4.10889244079590,8.40528869628906,0.49023348093033,0.97154724597931,1.26692569255829
404,3967380597,0.835999,-0.097459,0.264505,-0.470792,-3.50683164596558,-4.12219142913818,8.38177871704102,0.66018658876419,0.81606549024582,1.40450441837311
405,3967397264,0.836012,-0.097567,0.264580,-0.470705,-3.52380728721619,-4.11059236526489,8.38974666595459,-0.06467206776142,0.59113478660583,1.40232741832733
406,3967413931,0.836043,-0.097576,0.264561,-0.470659,-3.52038145065308,-4.09676122665405,8.38228797912598,0.94877761602402,0.44539842009544,1.19409620761871
407,3967430598,0.836066,-0.097696,0.264616,-0.470561,-3.51757550239563,-4.11139488220215,8.39423942565918,-0.05450382828712,0.44941967725754,1.38941860198975
408,3967447265,0.836079,-0.097777,0.264683,-0.470484,-3.50683617591858,-4.14853096008301,8.37651920318604,0.15012243390083,0.66071164608002,1.34175336360931
409,3967463932,0.836101,-0.097822,0.264716,-0.470416,-3.52303743362427,-4.13809919357300,8.38469600677490,0.48669895529747,0.57360273599625,1.37084925174713
410,3967480599,0.836089,-0.097944,0.264790,-0.470372,-3.52894401550293,-4.11734771728516,8.40744209289551,-0.06701562553644,0.63885110616684,1.00525355339050
411,3967497266,0.836080,-0.098056,0.264838,-0.470336,-3.52761697769165,-4.10681104660034,8.38346385955811,0.09511915594339,0.52498990297318,0.97491538524628
412,3967513933,0.836028,-0.098308,0.265005,-0.470283,-3.48986029624939,-4.10665607452393,8.39064216613770,-1.15421068668365,0.81995850801468,0.74244165420532
413,3967530600,0.835984,-0.098515,0.265153,-0.470234,-3.49770760536194,-4.22273921966553,8.35219097137451,-0.82077175378799,0.85059142112732,0.81154471635818
414,3967547267,0.835971,-0.098420,0.265128,-0.470291,-3.51976299285889,-4.17487907409668,8.36307907104492,1.69486272335052,0.84770989418030,0.73840773105621
415,3967563934,0.835946,-0.098432,0.265163,-0.470314,-3.51444649696350,-4.11409902572632,8.35722541809082,0.80849689245224,0.84950274229050,0.74140447378159
416,3967580601,0.835906,-0.098490,0.265238,-0.470330,-3.50737524032593,-4.12413692474365,8.37780094146729,0.37863895297050,0.93234717845917,0.69633889198303
417,3967597268,0.835870,-0.098522,0.265318,-0.470342,-3.51230978965759,-4.12394332885742,8.40198993682861,0.52953618764877,1.06088447570801,0.75620853900909
418,3967613935,0.835836,-0.098598,0.265418,-0.470330,-3.51628112792969,-4.14593124389648,8.36595249176025,0.18414889276028,1.01964795589447,0.79620277881622
419,3967630602,0.835816,-0.098560,0.265458,-0.470352,-3.51410055160522,-4.14552164077759,8.36967658996582,1.09475719928741,1.04271233081818,0.82422316074371
420,3967647269,0.835816,-0.098560,0.265517,-0.470317,-3.52384972572327,-4.13500928878784,8.37862205505371,0.72479462623596,0.95240193605423,1.15837907791138
421,3967663936,0.835803,-0.098520,0.265571,-0.470319,-3.50527906417847,-4.14026975631714,8.35170936584473,1.01273250579834,1.08414089679718,1.02552616596222
422,3967680603,0.835805,-0.098420,0.265570,-0.470336,-3.53361892700195,-4.13711500167847,8.36588478088379,1.58447206020355,0.94866240024567,1.02770328521729
423,3967697270,0.835776,-0.098398,0.265611,-0.470370,-3.53368353843689,-4.12167596817017,8.37890529632568,0.98377734422684,0.98583918809891,0.77851718664169
424,3967713937,0.835763,-0.098334,0.265624,-0.470399,-3.52550935745239,-4.14567279815674,8.35940551757812,1.33319866657257,0.94275873899460,0.86989051103592
425,3967730604,0.835750,-0.098246,0.265611,-0.470447,-3.52312064170837,-4.15561676025391,8.35961532592773,1.61391365528107,0.91174155473709,0.73457854986191
426,3967747271,0.835736,-0.098184,0.265598,-0.470493,-3.53325772285461,-4.11945629119873,8.38065624237061,1.44422984123230,0.79996788501740,0.75779658555984
427,3967763938,0.835713,-0.098244,0.265640,-0.470497,-3.53605151176453,-4.12267827987671,8.38742160797119,0.48242160677910,0.72469216585159,0.74474680423737
428,3967780605,0.835710,-0.098303,0.265653,-0.470483,-3.54046392440796,-4.16341066360474,8.37092113494873,0.56944078207016,0.50840574502945,0.91615986824036
429,3967797272,0.835723,-0.098314,0.265624,-0.470474,-3.51781511306763,-4.11748647689819,8.36295413970947,1.01088833808899,0.40827283263206,0.95900982618332
430,3967813939,0.835701,-0.098453,0.265711,-0.470436,-3.51929688453674,-4.13172149658203,8.35730266571045,-0.19944608211517,0.69116503000259,0.90113794803619
431,3967830606,0.835710,-0.098405,0.265704,-0.470432,-3.49634909629822,-4.14843559265137,8.34793281555176,1.29325568675995,0.74477249383926,1.01762461662292
432,3967847273,0.835721,-0.098282,0.265658,-0.470466,-3.52720355987549,-4.18144750595093,8.35739994049072,1.88896870613098,0.75586283206940,1.00534331798553
433,3967863940,0.835749,-0.098094,0.265555,-0.470512,-3.53628492355347,-4.10662555694580,8.38452816009521,2.47412919998169,0.60552901029587,1.07160329818726
434,3967880607,0.835740,-0.098127,0.265595,-0.470499,-3.52003717422485,-4.08589601516724,8.36916446685791,0.61924457550049,0.74913942813873,0.97294318675995
435,3967897274,0.835738,-0.098212,0.265657,-0.470450,-3.51206994056702,-4.16076564788818,8.37332248687744,0.19436837732792,0.67931926250458,1.09142768383026
436,3967913941,0.835737,-0.098024,0.265583,-0.470533,-3.50852465629578,-4.15229511260986,8.38017463684082,2.44186997413635,0.86511367559433,0.76157432794571
437,3967930608,0.835749,-0.097876,0.265517,-0.470579,-3.53635668754578,-4.11586856842041,8.38323116302490,2.13328814506531,0.74104589223862,0.92699414491653
438,3967947275,0.835740,-0.097873,0.265525,-0.470591,-3.51466894149780,-4.12003231048584,8.37811374664307,1.00302529335022,0.73359251022339,0.80772852897644
439,3967963942,0.835726,-0.097896,0.265553,-0.470595,-3.52572631835938,-4.13624906539917,8.35898590087891,0.75451809167862,0.75660550594330,0.81781983375549
440,3967980609,0.835724,-0.097901,0.265585,-0.470580,-3.53145074844360,-4.15157032012939,8.38080024719238,0.81738442182541,0.79877692461014,1.01165688037872
441,3967997276,0.835728,-0.097888,0.265611,-0.470561,-3.50980401039124,-4.10275697708130,8.39006996154785,0.97595262527466,0.84619873762131,1.00078427791595
442,3968013943,0.835710,-0.098076,0.265743,-0.470481,-3.53524470329285,-4.15100288391113,8.36196517944336,-0.68986523151398,0.75791174173355,1.09099209308624
443,3968030610,0.835720,-0.097880,0.265691,-0.470531,-3.49894094467163,-4.13015651702881,8.35285472869873,2.35153412818909,0.96538746356964,1.03632187843323
444,3968047277,0.835710,-0.097870,0.265767,-0.470509,-3.52678298950195,-4.12920236587524,8.37738895416260,0.73039102554321,1.08722722530365,1.12098467350006
445,3968063944,0.835693,-0.097845,0.265804,-0.470522,-3.52485847473145,-4.18219184875488,8.36161422729492,1.00392186641693,0.96008563041687,0.89209675788879
446,3968080611,0.835679,-0.097807,0.265776,-0.470572,-3.56747937202454,-4.14212989807129,8.39880561828613,1.35317647457123,0.63009154796600,0.68482595682144
447,3968097278,0.835662,-0.097827,0.265767,-0.470603,-3.55353069305420,-4.08309364318848,8.39868164062500,0.94291239976883,0.57636898756027,0.63823646306992
448,3968113945,0.835644,-0.097867,0.265787,-0.470616,-3.52447319030762,-4.13248825073242,8.38464260101318,0.69404655694962,0.66290146112442,0.73640990257263
449,3968130612,0.835633,-0.097953,0.265850,-0.470583,-3.50837421417236,-4.15050125122070,8.35279750823975,0.22816434502602,0.72980195283890,0.92819786071777
450,3968147279,0.835645,-0.097997,0.265882,-0.470533,-3.50381112098694,-4.14363956451416,8.34410858154297,0.52297931909561,0.60633587837219,1.23022282123566
451,3968163946,0.835658,-0.097972,0.265884,-0.470514,-3.51355123519897,-4.13329124450684,8.34661483764648,1.07855737209320,0.67551577091217,1.15031123161316
452,3968180613,0.835671,-0.097937,0.265874,-0.470505,-3.52825689315796,-4.15025806427002,8.36813545227051,1.18924260139465,0.63548314571381,1.12787449359894
453,3968197280,0.835717,-0.097804,0.265761,-0.470514,-3.53763365745544,-4.11938333511353,8.39129066467285,2.18680596351624,0.37959945201874,1.10945892333984
454,3968213947,0.835724,-0.097851,0.265769,-0.470487,-3.53385257720947,-4.09986066818237,8.38497543334961,0.62275356054306,0.47687643766403,1.05761873722076
455,3968230614,0.835729,-0.097915,0.265777,-0.470460,-3.53075957298279,-4.17112970352173,8.36762523651123,0.53150838613510,0.44145414233208,1.00499761104584
456,3968247281,0.835750,-0.097837,0.265712,-0.470475,-3.52429652214050,-4.14740848541260,8.36945343017578,1.70031821727753,0.50708657503128,0.95256829261780
457,3968263948,0.835753,-0.097806,0.265676,-0.470497,-3.50251293182373,-4.10073900222778,8.38045406341553,1.29363989830017,0.50765007734299,0.90185511112213
458,3968280615,0.835745,-0.097742,0.265642,-0.470544,-3.53348898887634,-4.12823581695557,8.38239669799805,1.53875327110291,0.69927144050598,0.71722602844238
459,3968297282,0.835752,-0.097560,0.265616,-0.470584,-3.53656649589539,-4.14798831939697,8.36071205139160,2.17471671104431,1.07033550739288,1.06347131729126
460,3968313949,0.835775,-0.097264,0.265533,-0.470651,-3.50883650779724,-4.15677642822266,8.36089801788330,3.08248186111450,1.11513197422028,1.11323678493500
461,3968330616,0.835835,-0.096643,0.265246,-0.470835,-3.52193570137024,-4.12475728988647,8.36260986328125,5.84097051620483,0.99184548854828,1.03358137607574
462,3968347283,0.835906,-0.096023,0.264921,-0.471018,-3.56177330017090,-4.08245134353638,8.41254043579102,5.98691082000732,0.77682679891586,0.99342060089111
463,3968363950,0.835945,-0.095636,0.264687,-0.471160,-3.54008483886719,-4.06579113006592,8.40247249603271,4.23040485382080,0.55417561531067,0.81082767248154
464,3968380617,0.835957,-0.095406,0.264546,-0.471264,-3.53860569000244,-4.08228111267090,8.38451480865479,2.93531131744385,0.59437477588654,0.73295229673386
465,3968397284,0.835978,-0.095299,0.264470,-0.471291,-3.54079246520996,-4.02438545227051,8.41417217254639,1.88247597217560,0.49594509601593,1.04650294780731
466,3968413951,0.835977,-0.095491,0.264553,-0.471207,-3.51274299621582,-4.08571338653564,8.39718914031982,-0.53228318691254,0.46077886223793,1.06197297573090
467,3968430618,0.836006,-0.095424,0.264476,-0.471212,-3.52205777168274,-4.13910102844238,8.36470508575439,1.61825501918793,0.32693964242935,1.12504410743713
468,3968447285,0.836039,-0.095279,0.264396,-0.471228,-3.52931714057922,-4.08122682571411,8.38879489898682,2.11112046241760,0.57780331373215,1.18084156513214
469,3968463952,0.836051,-0.095334,0.264415,-0.471186,-3.51621913909912,-4.07300472259521,8.38941478729248,0.52575832605362,0.50829046964645,1.13309931755066
470,3968480619,0.836042,-0.095366,0.264393,-0.471207,-3.53350543975830,-4.08369016647339,8.41422080993652,0.87574297189713,0.41568773984909,0.74737221002579
471,3968497286,0.835992,-0.095401,0.264464,-0.471248,-3.54316711425781,-4.03202533721924,8.43658542633057,0.59735858440399,1.05700409412384,0.49027189612389
472,3968513953,0.835965,-0.095575,0.264561,-0.471207,-3.50274062156677,-4.10019016265869,8.38556671142578,-0.42876943945885,0.63963246345520,0.83330285549164
473,3968530620,0.835929,-0.095782,0.264616,-0.471198,-3.52064371109009,-4.15662193298340,8.36807155609131,-0.46301355957985,0.30053302645683,0.60851293802261
474,3968547287,0.835945,-0.095626,0.264446,-0.471296,-3.51818299293518,-4.08302211761475,8.37343502044678,2.61913561820984,0.20894199609756,0.57257831096649
475,3968563954,0.835945,-0.095781,0.264447,-0.471265,-3.53666615486145,-4.02871227264404,8.40902519226074,0.00748531194404,0.09625893831253,0.86608707904816
476,3968580621,0.835927,-0.096023,0.264487,-0.471224,-3.51691460609436,-4.07757663726807,8.41683959960938,-0.63682132959366,0.06389728933573,0.72375726699829
477,3968597288,0.835918,-0.096293,0.264547,-0.471152,-3.52269244194031,-4.09840297698975,8.38082790374756,-0.92431116104126,0.05570121854544,0.89546471834183
478,3968613955,0.835922,-0.096460,0.264566,-0.471101,-3.50127744674683,-4.15101480484009,8.37204074859619,-0.13971725106239,0.15192811191082,0.96221143007278
479,3968630622,0.835956,-0.096450,0.264479,-0.471091,-3.52589726448059,-4.12708187103271,8.38524150848389,1.33705341815948,0.12249915301800,1.01187455654144
480,3968647289,0.835954,-0.096520,0.264472,-0.471083,-3.50457596778870,-4.05341434478760,8.39167499542236,0.54749065637589,0.31847470998764,0.92740386724472
481,3968663956,0.835959,-0.096698,0.264553,-0.470994,-3.51424837112427,-4.12209320068359,8.35141468048096,-0.44352227449417,0.47728621959686,1.13194680213928
482,3968680623,0.835973,-0.096545,0.264468,-0.471047,-3.49719047546387,-4.10362386703491,8.39112854003906,2.25028705596924,0.66710197925568,0.86133593320847
483,3968697290,0.835963,-0.096423,0.264459,-0.471095,-3.53163814544678,-4.04533863067627,8.43099784851074,1.76456785202026,1.00495910644531,0.88328599929810
484,3968713957,0.835932,-0.096538,0.264584,-0.471056,-3.51386857032776,-4.13637638092041,8.37464332580566,-0.19101950526237,0.99254977703094,0.95881789922714
485,3968730624,0.835942,-0.096328,0.264500,-0.471129,-3.50297713279724,-4.17357921600342,8.33702564239502,2.57947421073914,0.84366303682327,0.90285390615463
486,3968747291,0.835974,-0.096118,0.264402,-0.471171,-3.51706266403198,-4.08594942092896,8.39210700988770,2.57754063606262,0.69417458772659,1.15525448322296
487,3968763958,0.835972,-0.095994,0.264362,-0.471222,-3.53712964057922,-4.05680322647095,8.41722393035889,1.88065743446350,0.80231148004532,0.89963978528976
488,3968780625,0.835973,-0.095949,0.264352,-0.471235,-3.51247239112854,-4.06850385665894,8.41526794433594,1.27268874645233,0.70704495906830,0.98711985349655
489,3968797292,0.835972,-0.095920,0.264360,-0.471238,-3.49741172790527,-4.12966537475586,8.38592529296875,1.10309433937073,0.75445419549942,1.01012015342712
490,3968813959,0.835985,-0.095843,0.264283,-0.471274,-3.53187727928162,-4.09436607360840,8.39679050445557,1.72707068920135,0.42311537265778,0.89785951375961
491,3968830626,0.836008,-0.095837,0.264250,-0.471251,-3.51912689208984,-4.02680969238281,8.42922592163086,1.09538471698761,0.40103724598885,1.11998569965363
492,3968847293,0.836010,-0.095985,0.264330,-0.471172,-3.50309729576111,-4.11911296844482,8.41335201263428,-0.29156216979027,0.53818047046661,1.20947659015656
493,3968863960,0.836033,-0.095925,0.264263,-0.471182,-3.53509879112244,-4.17086791992188,8.36822509765625,1.55555522441864,0.39718249440193,1.03887021541595
494,3968880627,0.836076,-0.095730,0.264139,-0.471216,-3.51225543022156,-4.02661991119385,8.41905689239502,2.59233164787292,0.49342221021652,1.14819800853729
495,3968897294,0.836057,-0.095951,0.264290,-0.471120,-3.51523947715759,-4.09519004821777,8.42182922363281,-0.96985048055649,0.75045847892761,1.12722122669220
496,3968913961,0.836078,-0.095898,0.264230,-0.471127,-3.52473235130310,-4.15272760391235,8.37261009216309,1.48971784114838,0.41523945331573,1.03691089153290
497,3968930628,0.836071,-0.095833,0.264168,-0.471187,-3.57400727272034,-4.03937435150146,8.42833614349365,1.63757991790771,0.51605105400085,0.68859094381332
498,3968947295,0.836037,-0.096027,0.264248,-0.471163,-3.54148197174072,-4.05427789688110,8.39778423309326,-0.47738224267960,0.49932596087456,0.69080650806427
499,3968963962,0.835997,-0.096152,0.264322,-0.471167,-3.48337841033936,-4.11963367462158,8.37103366851807,-0.01256303023547,0.71267980337143,0.62079423666000
500,3968980629,0.836012,-0.096139,0.264327,-0.471139,-3.49251556396484,-4.10806608200073,8.37590217590332,0.98480188846588,0.64151489734650,1.19510781764984
501,3968997296,0.836039,-0.096134,0.264314,-0.471100,-3.50762820243835,-4.06130123138428,8.39145946502686,0.99996465444565,0.50534498691559,1.22921109199524
502,3969013963,0.836051,-0.096244,0.264373,-0.471023,-3.53095674514771,-4.05055713653564,8.40148544311523,0.03745217248797,0.55870902538300,1.21511125564575
503,3969030630,0.836039,-0.096493,0.264501,-0.470922,-3.51397037506104,-4.10913515090942,8.41102123260498,-1.08159852027893,0.49835270643234,1.14974761009216
504,3969047297,0.836038,-0.096539,0.264522,-0.470902,-3.51830506324768,-4.11844491958618,8.37333011627197,0.60241717100143,0.58304119110107,0.99422752857208
505,3969063964,0.836045,-0.096560,0.264540,-0.470876,-3.52425479888916,-4.11176490783691,8.36778163909912,0.74901139736176,0.62443113327026,1.09775388240814
506,3969080631,0.836030,-0.096672,0.264610,-0.470840,-3.51971435546875,-4.11365938186646,8.41512203216553,0.00856104400009,0.65816318988800,0.96803832054138
507,3969097298,0.836013,-0.096705,0.264651,-0.470840,-3.51131629943848,-4.11223745346069,8.39833450317383,0.64017027616501,0.78985083103180,0.84796613454819
508,3969113965,0.835985,-0.096849,0.264730,-0.470817,-3.51980781555176,-4.09744262695312,8.38884925842285,-0.19045603275299,0.62796574831009,0.82205879688263
509,3969130632,0.835963,-0.096950,0.264786,-0.470804,-3.51023149490356,-4.13684844970703,8.37880039215088,0.17859096825123,0.66007137298584,0.78201335668564
510,3969147299,0.835949,-0.096948,0.264814,-0.470812,-3.51848864555359,-4.07395410537720,8.38677883148193,0.89240413904190,0.82012504339218,0.88560396432877
511,3969163966,0.835940,-0.097025,0.264912,-0.470758,-3.49453163146973,-4.12801027297974,8.36293315887451,0.10455744713545,0.90969276428223,1.16861140727997
512,3969180633,0.835940,-0.096960,0.264908,-0.470774,-3.53469014167786,-4.12208747863770,8.42119312286377,1.39241516590118,0.83179157972336,0.94606262445450
513,3969197300,0.835943,-0.096903,0.264877,-0.470797,-3.54503679275513,-4.08238554000854,8.39961147308350,1.43641781806946,0.63783943653107,0.92018103599548
514,3969213967,0.835921,-0.096933,0.264923,-0.470804,-3.52252292633057,-4.11976575851440,8.38012504577637,0.63637953996658,0.81938225030899,0.83747768402100
515,3969230634,0.835920,-0.096912,0.264932,-0.470806,-3.51880121231079,-4.12981367111206,8.37752532958984,1.07354998588562,0.75771969556808,0.96332573890686
516,3969247301,0.835919,-0.096920,0.264948,-0.470795,-3.53129911422729,-4.09659957885742,8.40428161621094,0.85641825199127,0.69259935617447,0.99212706089020
517,3969263968,0.835911,-0.096885,0.264968,-0.470806,-3.50886845588684,-4.13916397094727,8.36808872222900,1.11659193038940,0.87350183725357,0.93425518274307
518,3969280635,0.835911,-0.096756,0.264947,-0.470845,-3.51732683181763,-4.11666440963745,8.37655830383301,1.83449041843414,0.92591840028763,0.98353409767151
519,3969297302,0.835909,-0.096712,0.264960,-0.470850,-3.52893018722534,-4.08847808837891,8.38631629943848,1.17974007129669,0.84180617332458,1.01761162281036
520,3969313969,0.835881,-0.096794,0.265053,-0.470830,-3.51808738708496,-4.10145711898804,8.38512039184570,0.12859496474266,0.91345775127411,0.91925907135010
521,3969330636,0.835880,-0.096825,0.265066,-0.470819,-3.53191637992859,-4.15344524383545,8.37346172332764,0.74164772033691,0.60406911373138,0.93622750043869
522,3969347303,0.835884,-0.096835,0.265069,-0.470807,-3.52326440811157,-4.11653137207031,8.37275505065918,0.88988131284714,0.60409474372864,0.99846619367599
523,3969363970,0.835874,-0.096839,0.265090,-0.470813,-3.51171803474426,-4.12539672851562,8.39565086364746,0.91046100854874,0.78841650485992,0.80824065208435
524,3969380637,0.835847,-0.096733,0.265062,-0.470898,-3.51807117462158,-4.08683013916016,8.39745140075684,1.78715813159943,0.88406711816788,0.60043209791183
525,3969397304,0.835827,-0.096778,0.265092,-0.470907,-3.53577566146851,-4.09711074829102,8.39959621429443,0.62147289514542,0.69831097126007,0.76104927062988
526,3969413971,0.835840,-0.096738,0.265050,-0.470917,-3.53887772560120,-4.13567209243774,8.37498474121094,1.36066818237305,0.49612435698509,0.97577333450317
527,3969430638,0.835833,-0.096746,0.265019,-0.470944,-3.51638436317444,-4.07899808883667,8.39030075073242,1.05962944030762,0.44173583388329,0.75709217786789
528,3969447305,0.835825,-0.096815,0.265031,-0.470937,-3.50631260871887,-4.10971021652222,8.37890434265137,0.50470459461212,0.46158564090729,0.86877632141113
529,3969463972,0.835836,-0.096853,0.265034,-0.470909,-3.51048922538757,-4.13430070877075,8.35263156890869,0.69802933931351,0.48043662309647,1.07538127899170
530,3969480639,0.835868,-0.096831,0.265018,-0.470865,-3.51137399673462,-4.12373971939087,8.36613273620605,1.08403837680817,0.51571816205978,1.34327733516693
531,3969497306,0.835872,-0.096820,0.265023,-0.470858,-3.53893375396729,-4.08602476119995,8.40156555175781,0.99399667978287,0.66241472959518,1.05138206481934
532,3969513973,0.835872,-0.096923,0.265059,-0.470816,-3.53959202766418,-4.06627941131592,8.39691734313965,0.20116853713989,0.47919440269470,0.99904239177704
533,3969530640,0.835855,-0.097069,0.265124,-0.470781,-3.52912235260010,-4.13298416137695,8.37124824523926,-0.15938782691956,0.52948498725891,0.87447524070740
534,3969547307,0.835856,-0.097073,0.265106,-0.470788,-3.50949048995972,-4.14316987991333,8.34410667419434,1.01680493354797,0.51348978281021,0.89353102445602
535,3969563974,0.835855,-0.097102,0.265113,-0.470779,-3.52152872085571,-4.12683868408203,8.37020111083984,0.75130367279053,0.55253630876541,0.97336578369141
536,3969580641,0.835858,-0.097126,0.265124,-0.470764,-3.50777077674866,-4.13370513916016,8.36772060394287,0.76733726263046,0.58917540311813,1.01855945587158
537,3969597308,0.835870,-0.097072,0.265097,-0.470768,-3.52428913116455,-4.10500526428223,8.37478637695312,1.36965823173523,0.60607969760895,1.08437120914459
538,3969613975,0.835851,-0.097160,0.265128,-0.470766,-3.51941680908203,-4.11213493347168,8.39470386505127,0.33408567309380,0.53556799888611,0.78328120708466
539,3969630642,0.835831,-0.097255,0.265174,-0.470757,-3.53469014167786,-4.11195468902588,8.38211822509766,0.23160924017429,0.59594988822937,0.82161051034927
540,3969647309,0.835803,-0.097390,0.265243,-0.470739,-3.50619888305664,-4.13102817535400,8.36106872558594,-0.08265218138695,0.61481362581253,0.77549487352371
541,3969663976,0.835805,-0.097416,0.265258,-0.470721,-3.51087474822998,-4.15721988677979,8.36580085754395,0.75638782978058,0.63436895608902,0.97666990756989
542,3969680643,0.835814,-0.097295,0.265197,-0.470765,-3.51285076141357,-4.09469795227051,8.38058567047119,1.94891536235809,0.67305690050125,0.91325289011002
543,3969697310,0.835811,-0.097406,0.265285,-0.470697,-3.52980971336365,-4.10388898849487,8.38161659240723,-0.08748017251492,0.72768878936768,1.19427549839020
544,3969713977,0.835810,-0.097290,0.265272,-0.470730,-3.48538160324097,-4.09629535675049,8.37068843841553,1.70494151115417,0.90349441766739,1.04774510860443
545,3969730644,0.835803,-0.097312,0.265338,-0.470701,-3.52002596855164,-4.15307283401489,8.38866519927979,0.55418837070465,0.90791261196136,1.13444411754608
546,3969747311,0.835794,-0.097290,0.265326,-0.470729,-3.54753088951111,-4.16936063766479,8.39885711669922,1.18388938903809,0.66333687305450,0.78629064559937
547,3969763978,0.835772,-0.097276,0.265300,-0.470785,-3.57016563415527,-4.10178184509277,8.41471004486084,1.20890033245087,0.58731842041016,0.57958340644836
548,3969780645,0.835734,-0.097374,0.265335,-0.470813,-3.53391051292419,-4.11166191101074,8.36931610107422,0.31437668204308,0.59433633089066,0.51245248317719
549,3969797312,0.835701,-0.097450,0.265373,-0.470835,-3.51108980178833,-4.12737846374512,8.37207984924316,0.43634432554245,0.67607921361923,0.58507728576660
550,3969813979,0.835704,-0.097509,0.265403,-0.470799,-3.48008346557617,-4.13895225524902,8.36647510528564,0.46291750669479,0.56334489583969,1.10624444484711
551,3969830646,0.835760,-0.097432,0.265334,-0.470756,-3.50555896759033,-4.11217498779297,8.35876560211182,1.57773590087891,0.33550715446472,1.50235772132874
552,3969847313,0.835784,-0.097474,0.265363,-0.470688,-3.51652336120605,-4.07612276077271,8.40233802795410,0.52359402179718,0.55797904729843,1.37684261798859
553,3969863980,0.835790,-0.097623,0.265448,-0.470599,-3.53797864913940,-4.15035295486450,8.38981723785400,-0.33228629827499,0.54864323139191,1.28353548049927
554,3969880647,0.835797,-0.097636,0.265469,-0.470571,-3.53474640846252,-4.13268136978149,8.40535163879395,0.78412646055222,0.67012429237366,1.11619508266449
555,3969897314,0.835806,-0.097725,0.265498,-0.470521,-3.53301453590393,-4.18007421493530,8.36460781097412,0.28407683968544,0.45931890606880,1.10866487026215
556,3969913981,0.835799,-0.097766,0.265489,-0.470529,-3.54241037368774,-4.16146945953369,8.36457347869873,0.75796300172806,0.43401363492012,0.84335571527481
557,3969930648,0.835801,-0.097847,0.265466,-0.470522,-3.54597258567810,-4.08337354660034,8.41108798980713,0.59942036867142,0.26329216361046,0.74776911735535
558,3969947315,0.835764,-0.098135,0.265544,-0.470483,-3.52502441406250,-4.12265348434448,8.38792610168457,-1.02918219566345,0.18964281678200,0.56593173742294
559,3969963982,0.835750,-0.098258,0.265569,-0.470468,-3.49537801742554,-4.15888404846191,8.35528373718262,0.14745870232582,0.38595137000084,0.78563749790192
560,3969980649,0.835761,-0.098196,0.265571,-0.470461,-3.45147466659546,-4.14031744003296,8.32419872283936,1.30461478233337,0.79809808731079,1.15653502941132
561,3969997316,0.835770,-0.098174,0.265604,-0.470432,-3.52663540840149,-4.14571762084961,8.35878849029541,0.94206732511520,0.84668546915054,1.21130788326263
562,3970013983,0.835785,-0.098153,0.265628,-0.470395,-3.52466750144958,-4.13385915756226,8.38522052764893,0.91742771863937,0.74136608839035,1.34212481975555
563,3970030650,0.835786,-0.098144,0.265639,-0.470389,-3.54354476928711,-4.11561346054077,8.38831710815430,0.99385595321655,0.72757351398468,0.97565805912018
564,3970047317,0.835764,-0.098231,0.265691,-0.470381,-3.53373932838440,-4.12794208526611,8.38353061676025,0.25623589754105,0.65590924024582,0.82935851812363
565,3970063984,0.835744,-0.098278,0.265710,-0.470396,-3.50700402259827,-4.14509534835815,8.36671829223633,0.64698314666748,0.62386775016785,0.74157083034515
566,3970080651,0.835725,-0.098315,0.265735,-0.470408,-3.51636004447937,-4.14142274856567,8.37344169616699,0.66523224115372,0.66461753845215,0.81399083137512
567,3970097318,0.835726,-0.098330,0.265762,-0.470387,-3.51357126235962,-4.15439033508301,8.37376499176025,0.76589012145996,0.72432070970535,1.05189430713654
568,3970113985,0.835747,-0.098275,0.265768,-0.470358,-3.49702596664429,-4.13259601593018,8.34080886840820,1.21546995639801,0.77096146345139,1.29810917377472
569,3970130652,0.835768,-0.098250,0.265781,-0.470318,-3.50167131423950,-4.14082622528076,8.35249423980713,1.00579154491425,0.69982212781906,1.32460546493530
570,3970147319,0.835780,-0.098154,0.265759,-0.470330,-3.53725051879883,-4.11846256256104,8.37061882019043,1.62403082847595,0.79992949962616,1.06996417045593
571,3970163986,0.835777,-0.098160,0.265793,-0.470315,-3.53176426887512,-4.13912057876587,8.38766860961914,0.79246330261230,0.78900569677353,1.05143320560455
572,3970180653,0.835773,-0.098183,0.265819,-0.470302,-3.51889753341675,-4.16989898681641,8.38569545745850,0.73188936710358,0.69846481084824,0.97679793834686
573,3970197320,0.835767,-0.098172,0.265824,-0.470313,-3.52881741523743,-4.11526203155518,8.38403320312500,1.03502845764160,0.70771092176437,0.89420980215073
574,3970213987,0.835756,-0.098241,0.265855,-0.470301,-3.51475596427917,-4.14054441452026,8.37108516693115,0.43360379338264,0.58375817537308,0.88762730360031
575,3970230654,0.835754,-0.098254,0.265852,-0.470302,-3.51356577873230,-4.15149259567261,8.34430217742920,0.89527273178101,0.55700582265854,0.93818676471710
576,3970247321,0.835755,-0.098277,0.265870,-0.470286,-3.51644277572632,-4.15100526809692,8.37608337402344,0.75239223241806,0.63540625572205,1.02101814746857
577,3970263988,0.835749,-0.098288,0.265887,-0.470284,-3.51827335357666,-4.13996791839600,8.36608314514160,0.82560616731644,0.68424969911575,0.96091806888580
578,3970280655,0.835729,-0.098314,0.265929,-0.470292,-3.51815795898438,-4.14591646194458,8.38897705078125,0.68042057752609,0.81192898750305,0.83902728557587
579,3970297322,0.835703,-0.098435,0.266016,-0.470262,-3.52173042297363,-4.12252569198608,8.37958145141602,-0.08630198985338,0.75269949436188,0.89432495832443
580,3970313989,0.835684,-0.098487,0.266070,-0.470256,-3.52106928825378,-4.16983413696289,8.35318183898926,0.45159667730331,0.77841478586197,0.89915311336517
581,3970330656,0.835699,-0.098424,0.266025,-0.470267,-3.52886605262756,-4.15367984771729,8.36674404144287,1.51087391376495,0.54877132177353,1.01079869270325
582,3970347323,0.835715,-0.098397,0.265980,-0.470270,-3.52614569664001,-4.14046621322632,8.35793876647949,1.29042553901672,0.43471798300743,0.99536722898483
583,3970363990,0.835711,-0.098406,0.265977,-0.470277,-3.53128838539124,-4.11110067367554,8.39164447784424,0.94539672136307,0.59338861703873,0.86195057630539
584,3970380657,0.835686,-0.098429,0.266016,-0.470295,-3.51032233238220,-4.15244150161743,8.35998725891113,0.71705949306488,0.81706434488297,0.77604562044144
585,3970397324,0.835678,-0.098392,0.266002,-0.470325,-3.52657294273376,-4.15733861923218,8.36939239501953,1.25296700000763,0.67673236131668,0.85531687736511
586,3970413991,0.835664,-0.098415,0.266018,-0.470336,-3.51055669784546,-4.11962604522705,8.38649845123291,0.80556428432465,0.67947298288345,0.79950684309006
587,3970430658,0.835632,-0.098567,0.266116,-0.470304,-3.51502943038940,-4.16175365447998,8.36149597167969,-0.32069659233093,0.70447081327438,0.87237495183945
588,3970447325,0.835654,-0.098471,0.266061,-0.470317,-3.51895380020142,-4.17213201522827,8.34994125366211,1.75792133808136,0.61661934852600,1.02559018135071
589,3970463992,0.835668,-0.098410,0.266013,-0.470332,-3.54008221626282,-4.12872552871704,8.38885021209717,1.49939942359924,0.51973932981491,1.01019680500031
590,3970480659,0.835685,-0.098390,0.265990,-0.470319,-3.51331114768982,-4.10307836532593,8.36463356018066,1.14831340312958,0.51776707172394,1.09845829010010
591,3970497326,0.835684,-0.098453,0.266057,-0.470269,-3.50817084312439,-4.10293865203857,8.36857604980469,0.30185207724571,0.76946318149567,1.16834235191345
592,3970513993,0.835678,-0.098539,0.266139,-0.470216,-3.52863311767578,-4.19600343704224,8.34621810913086,0.10147111117840,0.78290981054306,1.14092421531677
593,3970530660,0.835678,-0.098521,0.266130,-0.470224,-3.54679560661316,-4.18230295181274,8.36910629272461,1.11164879798889,0.63375425338745,0.94141393899918
594,3970547327,0.835670,-0.098393,0.266047,-0.470312,-3.53825926780701,-4.13038396835327,8.36086082458496,2.11678075790405,0.62245911359787,0.61911666393280
595,3970563994,0.835649,-0.098445,0.266087,-0.470317,-3.52442383766174,-4.13352203369141,8.38768005371094,0.55343282222748,0.74848639965057,0.75437730550766
596,3970580661,0.835640,-0.098486,0.266115,-0.470307,-3.51174449920654,-4.16221475601196,8.33971881866455,0.64438349008560,0.68394225835800,0.86161762475967
597,3970597328,0.835647,-0.098498,0.266119,-0.470290,-3.50957465171814,-4.11473131179810,8.37230396270752,0.82928156852722,0.55434203147888,1.12579965591431
598,3970613995,0.835654,-0.098632,0.266199,-0.470205,-3.51573920249939,-4.13115406036377,8.36771869659424,-0.22630099952221,0.55608367919922,1.30245053768158
599,3970630662,0.835668,-0.098744,0.266205,-0.470153,-3.52039480209351,-4.16676712036133,8.37194538116455,0.21846991777420,0.23569446802139,1.10578346252441
600,3970647329,0.835688,-0.098821,0.266197,-0.470106,-3.51004123687744,-4.13105964660645,8.36951160430908,0.47492983937263,0.25051140785217,1.14652049541473
601,3970663996,0.835715,-0.098945,0.266174,-0.470046,-3.53198719024658,-4.16661262512207,8.37720108032227,0.24522238969803,0.00419407943264,1.13188278675079
602,3970680663,0.835747,-0.098969,0.266088,-0.470032,-3.52176499366760,-4.13696336746216,8.37485122680664,1.09811258316040,-0.02168115042150,1.04706645011902
603,3970697330,0.835759,-0.099133,0.266081,-0.469980,-3.52115321159363,-4.16797256469727,8.37948513031006,-0.03989177569747,-0.00338087603450,0.97675943374634
604,3970713997,0.835775,-0.099243,0.266047,-0.469947,-3.50792908668518,-4.16972875595093,8.36487293243408,0.38828209042549,0.00518016796559,1.00065600872040
605,3970730664,0.835789,-0.099447,0.266061,-0.469871,-3.53768181800842,-4.15354204177856,8.35555934906006,-0.38845497369766,-0.03925145789981,1.08326983451843
606,3970747331,0.835809,-0.099489,0.266022,-0.469848,-3.48667001724243,-4.14465141296387,8.35753726959229,0.82479923963547,0.21070927381516,1.04720723628998
607,3970763998,0.835813,-0.099498,0.265981,-0.469863,-3.47989392280579,-4.16023921966553,8.35626983642578,1.08111858367920,0.36097896099091,0.83532619476318
608,3970780665,0.835832,-0.099498,0.265965,-0.469839,-3.49366641044617,-4.18876647949219,8.39224624633789,0.98047333955765,0.47016590833664,1.14766025543213
609,3970797332,0.835848,-0.099441,0.265923,-0.469845,-3.53410935401917,-4.16795015335083,8.38168334960938,1.45012056827545,0.53911525011063,1.05650460720062
610,3970813999,0.835845,-0.099411,0.265908,-0.469866,-3.52602887153625,-4.15710687637329,8.38016223907471,1.22499787807465,0.65045374631882,0.86786717176437
611,3970830666,0.835825,-0.099447,0.265922,-0.469886,-3.50805401802063,-4.15209865570068,8.36351299285889,0.73160761594772,0.63087284564972,0.73085200786591
612,3970847333,0.835822,-0.099436,0.265926,-0.469891,-3.51283669471741,-4.13609218597412,8.37063884735107,1.02637124061584,0.69165176153183,0.92990100383759
613,3970864000,0.835815,-0.099477,0.265946,-0.469884,-3.48982238769531,-4.16715574264526,8.36766529083252,0.65935420989990,0.61089491844177,0.91079407930374
614,3970880667,0.835814,-0.099478,0.265967,-0.469873,-3.50016069412231,-4.16229295730591,8.36618518829346,0.90827107429504,0.77975940704346,0.92987543344498
615,3970897334,0.835814,-0.099492,0.266004,-0.469850,-3.51024150848389,-4.13834333419800,8.35186958312988,0.73131293058395,0.77795368432999,1.08200204372406
616,3970914001,0.835803,-0.099580,0.266093,-0.469800,-3.50510191917419,-4.14205408096313,8.35729312896729,0.06784164160490,0.82397985458374,1.12661945819855
617,3970930668,0.835784,-0.099669,0.266198,-0.469756,-3.51927018165588,-4.18743515014648,8.33953380584717,0.02168755419552,0.94896972179413,1.05021667480469
618,3970947335,0.835757,-0.099715,0.266270,-0.469754,-3.52838182449341,-4.17011451721191,8.38086318969727,0.42342272400856,0.90013909339905,0.89939641952515
619,3970964002,0.835728,-0.099837,0.266351,-0.469733,-3.52822613716125,-4.13543462753296,8.39219284057617,-0.06103505939245,0.73261922597885,0.82587504386902
620,3970980669,0.835695,-0.100012,0.266479,-0.469681,-3.51279067993164,-4.17318868637085,8.37169361114502,-0.56542593240738,0.81342732906342,0.90442919731140
621,3970997336,0.835684,-0.100103,0.266537,-0.469649,-3.50904822349548,-4.21104145050049,8.35438632965088,0.16971614956856,0.63299864530563,1.03164744377136
622,3971014003,0.835702,-0.099894,0.266425,-0.469726,-3.50196456909180,-4.19580745697021,8.33957672119141,2.68287277221680,0.67775684595108,0.87776643037796
623,3971030670,0.835718,-0.099838,0.266388,-0.469730,-3.53049159049988,-4.14777374267578,8.35971927642822,1.42801654338837,0.56046336889267,1.05218875408173
624,3971047337,0.835741,-0.099821,0.266370,-0.469702,-3.50506305694580,-4.15458965301514,8.38662147521973,1.10206973552704,0.52575832605362,1.18483722209930
625,3971064004,0.835768,-0.099744,0.266318,-0.469701,-3.50748300552368,-4.19190788269043,8.34981441497803,1.57696735858917,0.50599801540375,1.18760299682617
626,3971080671,0.835799,-0.099589,0.266218,-0.469735,-3.51554799079895,-4.15567684173584,8.34893417358398,2.25216937065125,0.49937716126442,1.09298992156982
627,3971097338,0.835801,-0.099580,0.266218,-0.469732,-3.53666186332703,-4.15667390823364,8.36593151092529,1.01220750808716,0.64234727621078,1.00611162185669
628,3971114005,0.835816,-0.099521,0.266176,-0.469743,-3.50938701629639,-4.15713548660278,8.35822582244873,1.44175791740417,0.51199144124985,1.08565187454224
629,3971130672,0.835828,-0.099476,0.266146,-0.469747,-3.50528979301453,-4.16633415222168,8.34879779815674,1.33869266510010,0.57749599218369,1.03208303451538
630,3971147339,0.835854,-0.099404,0.266085,-0.469751,-3.52690625190735,-4.15880107879639,8.36169815063477,1.62285256385803,0.47718381881714,1.07137286663055
631,3971164006,0.835855,-0.099434,0.266089,-0.469740,-3.51687288284302,-4.13718938827515,8.37238597869873,0.75613164901733,0.53508126735687,0.97563242912292
632,3971180673,0.835867,-0.099371,0.266068,-0.469745,-3.49972343444824,-4.19229173660278,8.34032821655273,1.40578484535217,0.67511862516403,1.09325873851776
633,3971197340,0.835912,-0.099124,0.265945,-0.469787,-3.53056907653809,-4.17508077621460,8.31529331207275,2.88972043991089,0.65775322914124,1.21758270263672
634,3971214007,0.835941,-0.098888,0.265833,-0.469848,-3.51602005958557,-4.11507987976074,8.37968444824219,2.81988835334778,0.73587214946747,1.04586267471313
635,3971230674,0.835943,-0.098901,0.265842,-0.469836,-3.53542375564575,-4.09701871871948,8.38799762725830,0.83663237094879,0.60737311840057,1.03136575222015
636,3971247341,0.835919,-0.099009,0.265908,-0.469819,-3.50651502609253,-4.15046930313110,8.37273216247559,0.05187211930752,0.65195208787918,0.89385122060776
637,3971264008,0.835919,-0.099010,0.265914,-0.469816,-3.51636528968811,-4.19023895263672,8.33975601196289,0.93088716268539,0.64273148775101,0.98804193735123
638,3971280675,0.835949,-0.098778,0.265830,-0.469859,-3.47366857528687,-4.16049909591675,8.38138961791992,2.67403626441956,0.86385881900787,1.17692291736603
639,3971297342,0.835981,-0.098642,0.265797,-0.469849,-3.51858139038086,-4.15304422378540,8.34780788421631,1.87249982357025,0.81425976753235,1.31715238094330
640,3971314009,0.836012,-0.098422,0.265733,-0.469876,-3.49437928199768,-4.08459091186523,8.37110996246338,2.49472188949585,0.91233080625534,1.27685081958771
641,3971330676,0.836003,-0.098453,0.265839,-0.469825,-3.50562191009521,-4.13203287124634,8.35317134857178,0.35691940784454,1.11775743961334,1.22512602806091
642,3971347343,0.836002,-0.098385,0.265867,-0.469827,-3.53247499465942,-4.18211841583252,8.37793445587158,1.26974308490753,1.01187455654144,1.07389569282532
643,3971364010,0.835982,-0.098304,0.265877,-0.469873,-3.55256414413452,-4.13540077209473,8.38928985595703,1.49605691432953,1.03612971305847,0.72963535785675
644,3971380677,0.835932,-0.098339,0.265980,-0.469895,-3.52839136123657,-4.11647605895996,8.38439178466797,0.44106987118721,1.20472538471222,0.67250621318817
645,3971397344,0.835908,-0.098317,0.266049,-0.469904,-3.49487400054932,-4.20704317092896,8.33300209045410,0.86635601520538,1.13197255134583,0.92352354526520
646,3971414011,0.835939,-0.097961,0.265908,-0.470002,-3.51485228538513,-4.12582731246948,8.36132526397705,3.66220021247864,0.96966487169266,1.05069053173065
647,3971430678,0.835950,-0.097883,0.265911,-0.469997,-3.53295016288757,-4.04730796813965,8.41438102722168,1.40227615833282,0.86841773986816,1.16227233409882
648,3971447345,0.835945,-0.098022,0.265998,-0.469929,-3.52516245841980,-4.16952371597290,8.36664772033691,-0.24493424594402,0.63032209873199,1.14503490924835
649,3971464012,0.835957,-0.097908,0.265927,-0.469972,-3.53682684898376,-4.15532636642456,8.37752056121826,1.93697977066040,0.58333569765091,0.91774785518646
650,3971480679,0.835961,-0.097898,0.265901,-0.469981,-3.53965616226196,-4.09983634948730,8.38160991668701,1.13207495212555,0.50903320312500,0.90595322847366
651,3971497346,0.835955,-0.097992,0.265948,-0.469945,-3.52887582778931,-4.12812185287476,8.36739158630371,0.19993913173676,0.57014507055283,1.01227164268494
652,3971514013,0.835951,-0.097979,0.265929,-0.469965,-3.51431727409363,-4.20424890518188,8.36747455596924,1.13288164138794,0.57134884595871,0.84630113840103
653,3971530680,0.835982,-0.097789,0.265798,-0.470024,-3.52750349044800,-4.14607429504395,8.39186000823975,2.62420678138733,0.47696605324745,0.95493739843369
654,3971547347,0.835970,-0.097781,0.265767,-0.470065,-3.52493309974670,-4.06330394744873,8.39992141723633,1.16752290725708,0.50330877304077,0.69747865200043
655,3971564014,0.835953,-0.097916,0.265820,-0.470037,-3.53799653053284,-4.12645959854126,8.37196159362793,-0.05773102119565,0.48769780993462,0.88390058279037
656,3971580681,0.835952,-0.097914,0.265819,-0.470041,-3.50629043579102,-4.13263797760010,8.34346485137939,0.99682706594467,0.63751924037933,0.90750271081924
657,3971597348,0.835953,-0.097996,0.265874,-0.469990,-3.51176953315735,-4.14575672149658,8.35039138793945,0.21982741355896,0.62658274173737,1.15476787090302
658,3971614015,0.835976,-0.097887,0.265841,-0.469990,-3.52001929283142,-4.18322944641113,8.37201786041260,1.73221898078918,0.76327770948410,1.16888034343719
659,3971630682,0.836011,-0.097758,0.265735,-0.470015,-3.55523204803467,-4.14195728302002,8.38153743743896,2.11710095405579,0.37924084067345,1.09835577011108
660,3971647349,0.836014,-0.097761,0.265714,-0.470022,-3.53238558769226,-4.06832218170166,8.40646839141846,1.03470826148987,0.48681420087814,0.90217536687851
661,3971664016,0.835981,-0.097937,0.265800,-0.469995,-3.51917052268982,-4.13760137557983,8.37029647827148,-0.42012515664101,0.55593007802963,0.81186497211456
662,3971680683,0.835989,-0.097966,0.265776,-0.469988,-3.51993846893311,-4.12764120101929,8.35683345794678,0.87653696537018,0.38428652286530,0.92096221446991
663,3971697350,0.835981,-0.098109,0.265866,-0.469921,-3.49639821052551,-4.12838840484619,8.37031173706055,-0.26848512887955,0.65323275327682,1.10441327095032
664,3971714017,0.835985,-0.098240,0.265955,-0.469836,-3.52673935890198,-4.17415523529053,8.33446502685547,-0.22791461646557,0.64282113313675,1.28361248970032
665,3971730684,0.835976,-0.098315,0.266006,-0.469809,-3.52871346473694,-4.11552333831787,8.37777328491211,0.30416998267174,0.65742033720016,1.00065624713898
666,3971747351,0.835948,-0.098616,0.266214,-0.469677,-3.53524637222290,-4.13527536392212,8.39088439941406,-1.68490600585938,0.81728208065033,1.19013905525208
667,3971764018,0.835912,-0.098837,0.266376,-0.469602,-3.51362633705139,-4.18254137039185,8.37067699432373,-0.99912595748901,0.83965468406677,1.00315344333649
668,3971780685,0.835902,-0.099015,0.266449,-0.469542,-3.53021454811096,-4.14367294311523,8.39116477966309,-0.41271021962166,0.44306764006615,0.99463713169098
669,3971797352,0.835884,-0.099218,0.266562,-0.469467,-3.51682567596436,-4.13099575042725,8.37472248077393,-0.70465666055679,0.59948450326920,1.02980339527130
670,3971814019,0.835861,-0.099449,0.266673,-0.469395,-3.51027131080627,-4.14992570877075,8.33840656280518,-0.87904071807861,0.49644458293915,0.96194261312485
671,3971830686,0.835855,-0.099502,0.266700,-0.469380,-3.51633310317993,-4.17175006866455,8.35948181152344,0.56795519590378,0.62736380100250,0.90524893999100
672,3971847353,0.835844,-0.099624,0.266773,-0.469332,-3.53428006172180,-4.15789699554443,8.36584281921387,-0.06883413344622,0.63605940341949,1.01985287666321
673,3971864020,0.835845,-0.099704,0.266819,-0.469286,-3.51471018791199,-4.18147468566895,8.33435249328613,0.28586974740028,0.61081808805466,1.07899260520935
674,3971880687,0.835847,-0.099642,0.266802,-0.469307,-3.52384901046753,-4.17162513732910,8.33064460754395,1.40883278846741,0.71612465381622,0.97733575105667
675,3971897354,0.835852,-0.099639,0.266792,-0.469303,-3.53445029258728,-4.16893291473389,8.36777782440186,1.00348627567291,0.55552023649216,1.01029932498932
676,3971914021,0.835844,-0.099618,0.266791,-0.469323,-3.51960873603821,-4.15666532516479,8.35989570617676,1.13635230064392,0.72768890857697,0.81656485795975
677,3971930688,0.835826,-0.099750,0.266862,-0.469286,-3.51840376853943,-4.17441797256470,8.36041164398193,-0.10224589705467,0.60441488027573,0.92518830299377
678,3971947355,0.835817,-0.099731,0.266874,-0.469300,-3.50843358039856,-4.21050739288330,8.34102725982666,1.04559350013733,0.76441740989685,0.91137027740479
679,3971964022,0.835812,-0.099672,0.266856,-0.469332,-3.53350973129272,-4.17695045471191,8.35653495788574,1.41988492012024,0.74684715270996,0.84335577487946
680,3971980689,0.835792,-0.099680,0.266867,-0.469359,-3.52976441383362,-4.15811204910278,8.35067462921143,0.91299664974213,0.70484226942062,0.75298130512238
681,3971997356,0.835773,-0.099667,0.266860,-0.469400,-3.52023434638977,-4.16260242462158,8.35435390472412,1.12664520740509,0.68116337060928,0.68240565061569
682,3972014023,0.835748,-0.099702,0.266870,-0.469431,-3.52727127075195,-4.17084169387817,8.36582851409912,0.76787519454956,0.62484109401703,0.65059465169907
683,3972030690,0.835734,-0.099691,0.266830,-0.469481,-3.52689766883850,-4.15266895294189,8.37075042724609,1.22629117965698,0.47557017207146,0.64577937126160
684,3972047357,0.835714,-0.099782,0.266843,-0.469490,-3.51668596267700,-4.16336727142334,8.36794948577881,0.41315203905106,0.44541123509407,0.67059808969498
685,3972064024,0.835697,-0.099693,0.266795,-0.469566,-3.50196266174316,-4.18122911453247,8.33962059020996,1.75341331958771,0.71193701028824,0.61232912540436
686,3972080691,0.835680,-0.099709,0.266817,-0.469581,-3.52561450004578,-4.20381164550781,8.34197139739990,0.81715404987335,0.73854863643646,0.79625403881073
687,3972097358,0.835709,-0.099595,0.266726,-0.469604,-3.52163290977478,-4.20064783096313,8.37190532684326,1.98230123519897,0.43058153986931,1.05989825725555
688,3972114025,0.835713,-0.099587,0.266690,-0.469620,-3.50592088699341,-4.12964153289795,8.39482402801514,1.15334630012512,0.43437221646309,0.89048320055008
689,3972130692,0.835726,-0.099702,0.266728,-0.469551,-3.51711988449097,-4.17576074600220,8.34686756134033,0.08611629903316,0.42055416107178,1.15478062629700
690,3972147359,0.835735,-0.099680,0.266715,-0.469547,-3.49895715713501,-4.12986469268799,8.35172843933105,1.12259829044342,0.58354055881500,1.07061731815338
691,3972164026,0.835714,-0.099944,0.266879,-0.469435,-3.52647829055786,-4.18137216567993,8.36284255981445,-1.30186784267426,0.66464310884476,1.17702519893646
692,3972180693,0.835705,-0.100126,0.266964,-0.469363,-3.54133892059326,-4.23558950424194,8.33442592620850,-0.48762744665146,0.49944126605988,1.04403138160706
693,3972197360,0.835684,-0.100241,0.266999,-0.469357,-3.55428266525269,-4.15444564819336,8.35518646240234,0.15072433650494,0.46825781464577,0.77138411998749
694,3972214027,0.835631,-0.100451,0.267120,-0.469338,-3.52265739440918,-4.14514303207397,8.34413433074951,-0.73318922519684,0.68140673637390,0.67134094238281
695,3972230694,0.835597,-0.100601,0.267234,-0.469301,-3.47991657257080,-4.20197105407715,8.33712387084961,-0.32753518223763,0.85604685544968,0.81016165018082
696,3972247361,0.835613,-0.100581,0.267237,-0.469274,-3.49114751815796,-4.23121500015259,8.33572959899902,1.03644990921021,0.66164654493332,1.18912732601166
697,3972264028,0.835661,-0.100450,0.267166,-0.469259,-3.52167534828186,-4.16112518310547,8.34512710571289,1.97498893737793,0.56252533197403,1.34558236598969
698,3972280695,0.835680,-0.100472,0.267186,-0.469208,-3.52721238136292,-4.16312932968140,8.37688255310059,0.69577544927597,0.59724330902100,1.27284240722656
699,3972297362,0.835674,-0.100448,0.267180,-0.469228,-3.51874208450317,-4.18503427505493,8.34984970092773,1.15024721622467,0.67962664365768,0.87742060422897
700,3972314029,0.835676,-0.100429,0.267165,-0.469237,-3.53260779380798,-4.17064762115479,8.33369350433350,1.14069354534149,0.60139262676239,0.93608653545380
701,3972330696,0.835684,-0.100366,0.267144,-0.469247,-3.50189709663391,-4.21376609802246,8.31325531005859,1.41396820545197,0.68509489297867,1.05266261100769
702,3972347363,0.835700,-0.100185,0.267079,-0.469295,-3.52918219566345,-4.20927286148071,8.34485149383545,2.29962992668152,0.82341641187668,1.04485082626343
703,3972364030,0.835710,-0.100003,0.267007,-0.469357,-3.52700066566467,-4.14289188385010,8.36871337890625,2.36642813682556,0.81554037332535,0.91945117712021
704,3972380697,0.835698,-0.099994,0.266998,-0.469386,-3.53354454040527,-4.16382408142090,8.36956787109375,1.08091354370117,0.62979710102081,0.78789150714874
705,3972397364,0.835705,-0.099934,0.266979,-0.469397,-3.52259087562561,-4.19728994369507,8.33170127868652,1.40022695064545,0.70202481746674,0.99809479713440
706,3972414031,0.835710,-0.099891,0.266986,-0.469393,-3.50685715675354,-4.17444276809692,8.31808185577393,1.17948400974274,0.77158898115158,1.11454308032990
707,3972430698,0.835731,-0.099869,0.266995,-0.469355,-3.50951981544495,-4.15638065338135,8.35112857818604,0.98398238420486,0.65216982364655,1.34227848052979
708,3972447365,0.835720,-0.099843,0.267021,-0.469366,-3.53032302856445,-4.14822769165039,8.37960720062256,1.04249453544617,0.87707483768463,0.93390935659409
709,3972464032,0.835704,-0.099822,0.267035,-0.469391,-3.52274751663208,-4.19002342224121,8.34190654754639,1.05704236030579,0.79611301422119,0.84511017799377
710,3972480699,0.835708,-0.099731,0.266997,-0.469423,-3.53165960311890,-4.21461915969849,8.34478759765625,1.69226300716400,0.73201727867126,0.89269858598709
711,3972497366,0.835721,-0.099532,0.266929,-0.469483,-3.52597427368164,-4.17591810226440,8.38046741485596,2.44298410415649,0.88320910930634,0.98711973428726
712,3972514033,0.835721,-0.099518,0.266946,-0.469475,-3.53754496574402,-4.13242864608765,8.38188552856445,0.99363821744919,0.78182119131088,0.99134594202042
713,3972530700,0.835715,-0.099653,0.267046,-0.469400,-3.51085782051086,-4.17558097839355,8.35524559020996,-0.26187703013420,0.72889256477356,1.16159367561340
714,3972547367,0.835721,-0.099675,0.267089,-0.469360,-3.50743770599365,-4.21233272552490,8.32485866546631,0.64939081668854,0.78209018707275,1.15355122089386
715,3972564034,0.835722,-0.099575,0.267069,-0.469392,-3.51581573486328,-4.14395332336426,8.33322238922119,1.64973306655884,0.82604151964188,0.98959141969681
716,3972580701,0.835706,-0.099656,0.267163,-0.469349,-3.53187131881714,-4.15101194381714,8.32879066467285,0.10138147324324,0.89736020565033,1.07661068439484
717,3972597368,0.835678,-0.099651,0.267226,-0.469364,-3.51785635948181,-4.19582891464233,8.34591388702393,0.80044162273407,1.05898904800415,0.84329164028168
718,3972614035,0.835658,-0.099659,0.267251,-0.469384,-3.54545474052429,-4.19472169876099,8.37790012359619,0.86320567131042,0.78416484594345,0.77732628583908
719,3972630702,0.835656,-0.099610,0.267251,-0.469397,-3.52932548522949,-4.15931844711304,8.37040901184082,1.28796660900116,0.81773024797440,0.91624951362610
720,3972647369,0.835635,-0.099639,0.267292,-0.469406,-3.52670025825500,-4.16878223419189,8.37056350708008,0.65662640333176,0.79475563764572,0.84245938062668
721,3972664036,0.835626,-0.099652,0.267319,-0.469403,-3.53321743011475,-4.17312669754028,8.34005069732666,0.79414099454880,0.74771791696548,0.93875014781952
722,3972680703,0.835621,-0.099697,0.267341,-0.469391,-3.51899409294128,-4.16446924209595,8.32918262481689,0.63436895608902,0.62513560056686,0.90166312456131
723,3972697370,0.835624,-0.099625,0.267313,-0.469416,-3.50804519653320,-4.19396829605103,8.33413791656494,1.49787533283234,0.68688774108887,0.97784787416458
724,3972714037,0.835650,-0.099517,0.267253,-0.469427,-3.52563238143921,-4.17706251144409,8.34257984161377,1.80922365188599,0.56951761245728,1.15215539932251
725,3972730704,0.835672,-0.099450,0.267231,-0.469415,-3.53934717178345,-4.14570188522339,8.35378456115723,1.42288148403168,0.67350512742996,1.19209825992584
726,3972747371,0.835683,-0.099449,0.267234,-0.469393,-3.54399228096008,-4.15607643127441,8.36091613769531,0.92710942029953,0.60335195064545,1.12391722202301
727,3972764038,0.835692,-0.099477,0.267228,-0.469374,-3.53353595733643,-4.21521186828613,8.33598136901855,0.81310725212097,0.48678860068321,0.99795407056808
728,3972780705,0.835715,-0.099346,0.267145,-0.469410,-3.52401971817017,-4.17555236816406,8.36233806610107,2.04653811454773,0.51716524362564,1.07457447052002
729,3972797372,0.835723,-0.099403,0.267148,-0.469380,-3.53501296043396,-4.14494466781616,8.35661506652832,0.59318375587463,0.44296523928642,1.01082432270050
730,3972814039,0.835724,-0.099472,0.267171,-0.469351,-3.52206492424011,-4.18020963668823,8.33936691284180,0.42510041594505,0.48502129316330,1.05358481407166
731,3972830706,0.835720,-0.099445,0.267146,-0.469377,-3.52244663238525,-4.16535282135010,8.33746337890625,1.24838232994080,0.59486138820648,0.82365959882736
732,3972847373,0.835715,-0.099488,0.267165,-0.469368,-3.52953743934631,-4.17072963714600,8.33789634704590,0.63274252414703,0.58323323726654,0.94458997249603
733,3972864040,0.835719,-0.099435,0.267137,-0.469387,-3.53473305702209,-4.20473337173462,8.35755443572998,1.40266036987305,0.63872313499451,0.94022315740585
734,3972880707,0.835731,-0.099392,0.267100,-0.469396,-3.51374983787537,-4.15399742126465,8.36579322814941,1.35178077220917,0.52826833724976,0.99941396713257
735,3972897374,0.835725,-0.099432,0.267109,-0.469394,-3.54193973541260,-4.15868997573853,8.35345554351807,0.68884718418121,0.54209917783737,0.90727227926254
736,3972914041,0.835708,-0.099571,0.267148,-0.469371,-3.54053759574890,-4.16494417190552,8.36002445220947,-0.00106292695273,0.41763424873352,0.78242307901382
737,3972930708,0.835708,-0.099529,0.267106,-0.469404,-3.50587821006775,-4.18336057662964,8.33545207977295,1.39888226985931,0.53606736660004,0.83504444360733
738,3972947375,0.835704,-0.099544,0.267113,-0.469406,-3.50635051727295,-4.17989873886108,8.35031604766846,0.85427963733673,0.61728537082672,0.91377794742584
739,3972964042,0.835737,-0.099303,0.267016,-0.469453,-3.50225639343262,-4.16434860229492,8.35584735870361,2.77619266510010,0.81751263141632,1.16165781021118
740,3972980709,0.835739,-0.099237,0.267030,-0.469455,-3.52690219879150,-4.14196586608887,8.36449909210205,1.31256747245789,0.91712021827698,1.07066845893860
741,3972997376,0.835761,-0.099179,0.266986,-0.469454,-3.53555727005005,-4.19704771041870,8.37398624420166,1.44830191135406,0.51078760623932,1.12084352970123
742,3973014043,0.835765,-0.099047,0.266861,-0.469544,-3.58209562301636,-4.16000127792358,8.39488887786865,2.29688930511475,0.37854927778244,0.62101197242737
743,3973030710,0.835766,-0.099001,0.266761,-0.469610,-3.56277418136597,-4.13650417327881,8.37233924865723,1.67716455459595,0.24098351597786,0.57930165529251
744,3973047377,0.835761,-0.098980,0.266708,-0.469654,-3.50565385818481,-4.15832471847534,8.34522533416748,1.33574712276459,0.42857086658478,0.69540405273438
745,3973064044,0.835777,-0.098923,0.266664,-0.469661,-3.49276757240295,-4.16681241989136,8.33065891265869,1.46465575695038,0.53002279996872,1.03304338455200
746,3973080711,0.835813,-0.098812,0.266593,-0.469662,-3.49767851829529,-4.13875436782837,8.33121299743652,1.85964214801788,0.50302708148956,1.22215485572815
747,3973097378,0.835851,-0.098776,0.266570,-0.469614,-3.52348470687866,-4.14803075790405,8.36395454406738,1.20439231395721,0.52858847379684,1.35861921310425
748,3973114045,0.835868,-0.098796,0.266547,-0.469593,-3.54328489303589,-4.20579767227173,8.38785266876221,0.90156054496765,0.38244244456291,1.07917177677155
749,3973130712,0.835889,-0.098711,0.266449,-0.469628,-3.53424191474915,-4.12145614624023,8.37001705169678,1.83876764774323,0.29601237177849,0.94891840219498
750,3973147379,0.835871,-0.098842,0.266499,-0.469605,-3.53666257858276,-4.13734197616577,8.36294364929199,-0.00519937789068,0.49967172741890,0.83275204896927
751,3973164046,0.835852,-0.098930,0.266525,-0.469605,-3.51876378059387,-4.19151163101196,8.37747097015381,0.36391159892082,0.52349150180817,0.75017666816711
752,3973180713,0.835836,-0.098923,0.266513,-0.469642,-3.50908946990967,-4.17590141296387,8.35394763946533,1.08420491218567,0.61013936996460,0.73466825485229
753,3973197380,0.835811,-0.098946,0.266511,-0.469683,-3.52231431007385,-4.15483617782593,8.34707164764404,0.90184229612350,0.61468553543091,0.59146767854691
754,3973214047,0.835770,-0.099027,0.266547,-0.469718,-3.52143716812134,-4.14733695983887,8.34825420379639,0.42415270209312,0.66395157575607,0.49111706018448
755,3973230714,0.835742,-0.099018,0.266574,-0.469755,-3.49944090843201,-4.14259910583496,8.37380313873291,0.98003792762756,0.88060939311981,0.68965393304825
756,3973247381,0.835714,-0.099053,0.266647,-0.469755,-3.48603558540344,-4.17614650726318,8.35106563568115,0.52059727907181,0.99575132131577,0.83168917894363
757,3973264048,0.835719,-0.098943,0.266621,-0.469784,-3.52708053588867,-4.19354486465454,8.36096191406250,1.72879958152771,0.82865417003632,1.00325584411621
758,3973280715,0.835703,-0.098839,0.266566,-0.469866,-3.55332803726196,-4.10384750366211,8.39566326141357,1.87267911434174,0.71663695573807,0.60855132341385
759,3973297382,0.835676,-0.099022,0.266649,-0.469830,-3.52864694595337,-4.13882923126221,8.35536193847656,-0.39228409528732,0.58099216222763,0.70183277130127
760,3973314049,0.835663,-0.099036,0.266660,-0.469843,-3.49077796936035,-4.20036220550537,8.35020256042480,0.86576682329178,0.67336428165436,0.81379866600037
761,3973330716,0.835666,-0.098982,0.266620,-0.469872,-3.50640368461609,-4.16353082656860,8.35840892791748,1.47624576091766,0.59258180856705,0.84779965877533
