sep=,
DeviceTag:,B
FirmwareVersion:,3.0.0
AppVersion:,2023.6.0
StartTime: ,2024-03-14_12:01:38_000 EDT
© Movella Technologies B. V. 2005-2024

PacketCounter,SampleTimeFine,Quat_W,Quat_X,Quat_Y,Quat_Z,Acc_X,Acc_Y,Acc_Z,Gyr_X,Gyr_Y,Gyr_Z
0,3960663796,0.113634,-0.690765,0.105671,-0.706231,0.00000000000000,0.00000000000000,0.00000000000000,0.00000000000000,0.00000000000000,0.00000000000000
1,3960680463,0.113707,-0.690804,0.105638,-0.706186,9.54688453674316,-3.22068476676941,0.30130928754807,3.53748583793640,2.85564994812012,1.43596339225769
2,3960697130,0.113820,-0.690841,0.105626,-0.706133,9.49864387512207,-3.20645046234131,0.28156059980392,3.62679624557495,2.81659007072449,1.73798811435699
3,3960713797,0.113915,-0.690897,0.105678,-0.706056,9.52771282196045,-3.18465518951416,0.28488141298294,3.18555426597595,2.67149472236633,1.95577323436737
4,3960730464,0.113977,-0.690979,0.105798,-0.705947,9.56658267974854,-3.22192811965942,0.23167964816093,2.66682004928589,2.47276544570923,2.12836432456970
5,3960747131,0.114074,-0.691045,0.105934,-0.705847,9.57938289642334,-3.28914284706116,0.23843044042587,2.77081394195557,2.57649040222168,2.37475180625916
6,3960763798,0.114248,-0.691088,0.106025,-0.705762,9.55081462860107,-3.30123877525330,0.27645877003670,3.38233661651611,2.66730642318726,2.53960132598877
7,3960780465,0.114502,-0.691109,0.106063,-0.705695,9.53726291656494,-3.25389957427979,0.29155170917511,4.05181360244751,2.76170206069946,2.68257188796997
8,3960797132,0.114776,-0.691131,0.106122,-0.705620,9.50801563262939,-3.23079872131348,0.27878609299660,4.04035282135010,2.72633123397827,2.87789440155029
9,3960813799,0.115010,-0.691169,0.106263,-0.705524,9.49128437042236,-3.19992446899414,0.29042074084282,3.42435431480408,2.63422799110413,3.09039044380188
10,3960830466,0.115152,-0.691214,0.106500,-0.705420,9.53964996337891,-3.26209998130798,0.22688624262810,2.50537705421448,2.70918989181519,3.08948779106140
11,3960847133,0.115240,-0.691240,0.106754,-0.705342,9.61059284210205,-3.34756064414978,0.19834205508232,2.20626544952393,2.97578620910645,2.90705490112305
12,3960863800,0.115238,-0.691285,0.107008,-0.705260,9.60688400268555,-3.33654117584229,0.21578490734100,1.76266586780548,2.93370437622070,2.46036863327026
13,3960880467,0.115104,-0.691376,0.107335,-0.705143,9.55987644195557,-3.35032224655151,0.23788100481033,0.71345454454422,2.69413566589355,2.15935540199280
14,3960897134,0.114973,-0.691462,0.107633,-0.705034,9.51850128173828,-3.41665077209473,0.22223496437073,0.87736940383911,2.74053931236267,2.03181028366089
15,3960913801,0.114952,-0.691514,0.107765,-0.704966,9.50243568420410,-3.42331600189209,0.25836297869682,2.26224827766418,2.88183259963989,1.76632249355316
16,3960930468,0.115086,-0.691528,0.107723,-0.704938,9.52190780639648,-3.39679169654846,0.29806610941887,3.90327930450439,3.00301909446716,1.69248092174530
17,3960947135,0.115356,-0.691497,0.107547,-0.704951,9.52921867370605,-3.31861162185669,0.30469012260437,5.27079391479492,3.21241593360901,1.71507167816162
18,3960963802,0.115648,-0.691463,0.107384,-0.704961,9.48360633850098,-3.24413228034973,0.32338139414787,5.30880308151245,3.20921421051025,1.88316750526428
19,3960980469,0.115856,-0.691461,0.107373,-0.704931,9.46583938598633,-3.18901181221008,0.29247483611107,4.11658859252930,3.03812718391418,2.21457648277283
20,3960997136,0.115977,-0.691461,0.107530,-0.704886,9.48451423645020,-3.19425559043884,0.23757307231426,2.87429571151733,3.16353988647461,2.59375977516174
21,3961013803,0.116040,-0.691399,0.107814,-0.704894,9.52262115478516,-3.26190185546875,0.18378885090351,2.07599902153015,3.85409688949585,2.92498326301575
22,3961030470,0.116081,-0.691295,0.108143,-0.704939,9.51341152191162,-3.32464170455933,0.21046878397465,1.80894184112549,4.28852033615112,3.02874684333801
23,3961047137,0.116158,-0.691174,0.108446,-0.704998,9.46866989135742,-3.33989381790161,0.21153441071510,2.13125205039978,4.38993358612061,3.08769416809082
24,3961063804,0.116208,-0.691100,0.108716,-0.705021,9.48454189300537,-3.32993245124817,0.21571719646454,2.10442924499512,3.98335194587708,2.78613710403442
25,3961080471,0.116222,-0.691093,0.108972,-0.704986,9.47227287292480,-3.34885048866272,0.21460685133934,1.90731394290924,3.40234017372131,2.54870700836182
26,3961097138,0.116206,-0.691153,0.109179,-0.704897,9.48440361022949,-3.34267425537109,0.18478274345398,1.89738905429840,2.80192756652832,2.16341543197632
27,3961113805,0.116184,-0.691228,0.109383,-0.704796,9.55516338348389,-3.37737655639648,0.23590599000454,1.86806249618530,2.67701411247253,2.10947537422180
28,3961130472,0.116136,-0.691319,0.109599,-0.704681,9.59824085235596,-3.40280246734619,0.23821122944355,1.65442681312561,2.56013035774231,2.04563522338867
29,3961147139,0.115953,-0.691430,0.109841,-0.704565,9.63588142395020,-3.41402387619019,0.27483159303665,0.88393265008926,2.58071017265320,1.50557851791382
30,3961163806,0.115723,-0.691560,0.110090,-0.704436,9.60453414916992,-3.42851996421814,0.32016724348068,0.60034888982773,2.46718168258667,1.29718077182770
31,3961180473,0.115495,-0.691708,0.110315,-0.704293,9.57007026672363,-3.46129631996155,0.38041099905968,0.69530147314072,2.29108786582947,1.19430100917816
32,3961197140,0.115330,-0.691860,0.110465,-0.704147,9.50614452362061,-3.49391365051270,0.39538377523422,1.35908031463623,2.15741515159607,1.14453554153442
33,3961213807,0.115311,-0.691943,0.110437,-0.704073,9.52828979492188,-3.48374772071838,0.38062614202499,3.01498603820801,2.57311558723450,0.99956119060516
34,3961230474,0.115420,-0.691913,0.110317,-0.704104,9.54683494567871,-3.45170760154724,0.36392590403557,4.24883985519409,3.45334815979004,1.17877340316772
35,3961247141,0.115600,-0.691805,0.110159,-0.704205,9.54833316802979,-3.40316033363342,0.31913390755653,4.88113451004028,4.07954645156860,1.34405851364136
36,3961263808,0.115770,-0.691647,0.110046,-0.704349,9.55111217498779,-3.36916661262512,0.32279333472252,4.69104957580566,4.56946563720703,1.52101671695709
37,3961280475,0.115889,-0.691468,0.109992,-0.704515,9.55420017242432,-3.35350465774536,0.30567070841789,4.18797731399536,4.86442136764526,1.54816615581512
38,3961297142,0.115945,-0.691312,0.109988,-0.704659,9.54000377655029,-3.34415197372437,0.26773235201836,3.61678886413574,4.73332309722900,1.48430061340332
39,3961313809,0.115973,-0.691191,0.110004,-0.704771,9.50868320465088,-3.36782121658325,0.24427947402000,3.32835125923157,4.44614076614380,1.44095134735107
40,3961330476,0.116022,-0.691097,0.109968,-0.704860,9.50247383117676,-3.38945913314819,0.22884568572044,3.64274787902832,4.14795827865601,1.29112982749939
41,3961347143,0.116128,-0.691012,0.109880,-0.704940,9.51511001586914,-3.37928509712219,0.25108584761620,4.15399026870728,3.98712301254272,1.32192921638489
42,3961363810,0.116236,-0.690929,0.109758,-0.705023,9.49744606018066,-3.37391185760498,0.21716891229153,4.33419418334961,3.95082354545593,1.16571104526520
43,3961380477,0.116352,-0.690859,0.109611,-0.705095,9.47861671447754,-3.33880043029785,0.23474223911762,4.46618938446045,3.81505036354065,1.08754098415375
44,3961397144,0.116424,-0.690818,0.109472,-0.705145,9.46864318847656,-3.33609294891357,0.24551621079445,4.19082689285278,3.60578155517578,0.90579313039780
45,3961413811,0.116462,-0.690785,0.109349,-0.705189,9.49149036407471,-3.32273721694946,0.26126909255981,3.92916154861450,3.58234000205994,0.81597590446472
46,3961430478,0.116496,-0.690742,0.109252,-0.705241,9.47857856750488,-3.33842301368713,0.26605501770973,3.80070114135742,3.69069457054138,0.91923356056213
47,3961447145,0.116537,-0.690713,0.109187,-0.705273,9.51040744781494,-3.33032894134521,0.24880884587765,3.65858864784241,3.55195021629333,1.10918998718262
48,3961463812,0.116572,-0.690684,0.109163,-0.705300,9.53182983398438,-3.32927775382996,0.27111557126045,3.42122936248779,3.55901288986206,1.28442585468292
49,3961480479,0.116579,-0.690657,0.109158,-0.705325,9.55122947692871,-3.36345005035400,0.24532605707645,3.19532489776611,3.57594251632690,1.23460888862610
50,3961497146,0.116575,-0.690641,0.109157,-0.705341,9.54714679718018,-3.36379957199097,0.25872644782066,3.10491871833801,3.49710059165955,1.19934666156769
51,3961513813,0.116583,-0.690623,0.109158,-0.705358,9.53111362457275,-3.36521005630493,0.27047199010849,3.16093349456787,3.50518107414246,1.26842403411865
52,3961530480,0.116614,-0.690588,0.109144,-0.705389,9.54028034210205,-3.37797021865845,0.28164970874786,3.36235213279724,3.62156558036804,1.31261897087097
53,3961547147,0.116677,-0.690561,0.109102,-0.705411,9.54333019256592,-3.35671186447144,0.26448667049408,3.63951420783997,3.49154901504517,1.33421695232391
54,3961563814,0.116721,-0.690514,0.109079,-0.705454,9.55913162231445,-3.36625623703003,0.26527029275894,3.48984575271606,3.71624970436096,1.32969629764557
55,3961580481,0.116731,-0.690452,0.109077,-0.705514,9.56707477569580,-3.37348866462708,0.29097026586533,3.25018167495728,3.91744399070740,1.25953662395477
56,3961597148,0.116691,-0.690396,0.109085,-0.705573,9.57148933410645,-3.37748932838440,0.27785670757294,2.96260857582092,3.92864251136780,1.06066036224365
57,3961613815,0.116636,-0.690353,0.109072,-0.705627,9.55794525146484,-3.38691711425781,0.28517347574234,2.97168779373169,3.83217191696167,0.89031022787094
58,3961630482,0.116623,-0.690304,0.109015,-0.705686,9.54280853271484,-3.40189814567566,0.30583542585373,3.39765286445618,3.82494997978210,0.87910473346710
59,3961647149,0.116701,-0.690230,0.108893,-0.705764,9.52580070495605,-3.38719367980957,0.31122103333473,4.18228435516357,3.90947103500366,1.01930856704712
60,3961663816,0.116842,-0.690121,0.108743,-0.705870,9.51194667816162,-3.34866738319397,0.32373908162117,4.66668605804443,4.14555692672729,1.18780195713043
61,3961680483,0.116952,-0.689988,0.108590,-0.706006,9.49258518218994,-3.32411861419678,0.31483033299446,4.56765413284302,4.42353153228760,1.02850365638733
62,3961697150,0.117014,-0.689873,0.108501,-0.706122,9.46651458740234,-3.30494117736816,0.31173005700111,4.00520610809326,4.33144712448120,1.09149181842804
63,3961713817,0.117023,-0.689748,0.108458,-0.706249,9.50751495361328,-3.34974122047424,0.28610113263130,3.54173731803894,4.50855255126953,1.05637025833130
64,3961730484,0.117015,-0.689615,0.108398,-0.706389,9.58725833892822,-3.40662741661072,0.26601392030716,3.56469917297363,4.60431909561157,0.88278025388718
65,3961747151,0.116991,-0.689515,0.108275,-0.706509,9.56864070892334,-3.38841199874878,0.30711495876312,3.75082659721375,4.31333303451538,0.50610697269440
66,3961763818,0.116951,-0.689448,0.108145,-0.706602,9.55574798583984,-3.37442851066589,0.31326574087143,3.66145110130310,4.02799463272095,0.38864716887474
67,3961780485,0.116955,-0.689365,0.107961,-0.706710,9.53256607055664,-3.37925076484680,0.31542330980301,4.16197395324707,4.10129785537720,0.34703928232193
68,3961797152,0.117048,-0.689278,0.107702,-0.706819,9.50858402252197,-3.36742138862610,0.31911465525627,4.94668388366699,4.00031995773315,0.42077830433846
69,3961813819,0.117163,-0.689187,0.107430,-0.706930,9.52794075012207,-3.34359121322632,0.34004539251328,5.12044095993042,4.00508403778076,0.47660121321678
70,3961830486,0.117283,-0.689069,0.107181,-0.707062,9.55732345581055,-3.32034301757812,0.33044391870499,5.07131528854370,4.24937772750854,0.60549706220627
71,3961847153,0.117357,-0.688935,0.107023,-0.707206,9.52552032470703,-3.30029964447021,0.34152212738991,4.43514680862427,4.48926639556885,0.81672507524490
72,3961863820,0.117350,-0.688829,0.106973,-0.707317,9.50475215911865,-3.27497386932373,0.33109644055367,3.47364616394043,4.34187793731689,0.94266271591187
73,3961880487,0.117269,-0.688737,0.107006,-0.707415,9.51661491394043,-3.29780864715576,0.32817092537880,2.70080804824829,4.33830547332764,0.97319310903549
74,3961897154,0.117200,-0.688640,0.107071,-0.707511,9.53343772888184,-3.33021235466003,0.34867179393768,2.61687541007996,4.36632585525513,1.18782746791840
75,3961913821,0.117156,-0.688550,0.107117,-0.707599,9.53518104553223,-3.34789347648621,0.34052133560181,2.80588436126709,4.26372098922729,1.22472262382507
76,3961930488,0.117145,-0.688464,0.107078,-0.707690,9.51524162292480,-3.36296463012695,0.32466381788254,3.37481904029846,4.16215372085571,0.97011953592300
77,3961947155,0.117155,-0.688410,0.106955,-0.707760,9.50023078918457,-3.36105084419250,0.32162725925446,3.84405660629272,3.82728028297424,0.67570149898529
78,3961963822,0.117185,-0.688408,0.106764,-0.707786,9.44418525695801,-3.32513141632080,0.35442188382149,4.18908548355103,3.30004310607910,0.44509756565094
79,3961980489,0.117228,-0.688418,0.106590,-0.707795,9.44978427886963,-3.28130626678467,0.33963492512703,4.15537977218628,3.15323138237000,0.59324145317078
80,3961997156,0.117286,-0.688359,0.106471,-0.707860,9.53499126434326,-3.30180644989014,0.32520464062691,4.04737043380737,3.79975938796997,0.93317312002182
81,3962013823,0.117300,-0.688294,0.106392,-0.707933,9.57254123687744,-3.30536127090454,0.36427226662636,3.66764903068542,3.92519760131836,0.90384662151337
82,3962030490,0.117225,-0.688268,0.106393,-0.707971,9.56029319763184,-3.28417372703552,0.36707463860512,2.78466415405273,3.70127916336060,0.85180157423019
83,3962047157,0.117103,-0.688266,0.106440,-0.707986,9.53844451904297,-3.30855917930603,0.33919483423233,2.30105781555176,3.55168771743774,0.83683097362518
84,3962063824,0.116968,-0.688304,0.106495,-0.707963,9.50390148162842,-3.35628795623779,0.33986201882362,2.14768290519714,3.18083524703979,0.81821709871292
85,3962080491,0.116874,-0.688338,0.106507,-0.707943,9.52306556701660,-3.37539482116699,0.35739424824715,2.55598092079163,3.16023540496826,0.81239634752274
86,3962097158,0.116891,-0.688305,0.106416,-0.707987,9.52304458618164,-3.36019754409790,0.35465300083160,3.68647480010986,3.62173867225647,0.86091971397400
87,3962113825,0.116959,-0.688215,0.106302,-0.708080,9.51297950744629,-3.33092904090881,0.37025362253189,4.11191463470459,4.07396936416626,1.00696349143982
88,3962130492,0.117014,-0.688128,0.106220,-0.708168,9.50737953186035,-3.30817890167236,0.36164093017578,3.89769625663757,4.07748413085938,1.09300279617310
89,3962147159,0.116998,-0.688063,0.106160,-0.708243,9.52853775024414,-3.29768776893616,0.35689339041710,3.42142796516418,3.97301054000854,0.85183370113373
90,3962163826,0.116936,-0.688022,0.106137,-0.708296,9.55637454986572,-3.31061172485352,0.34714362025261,2.99514293670654,3.81184244155884,0.79581856727600
91,3962180493,0.116857,-0.688015,0.106117,-0.708319,9.56721115112305,-3.32183218002319,0.35744157433510,2.84934902191162,3.52186155319214,0.72802829742432
92,3962197160,0.116785,-0.688042,0.106077,-0.708311,9.54420948028564,-3.31039285659790,0.34906280040741,2.92422747612000,3.18875575065613,0.66731327772141
93,3962213827,0.116748,-0.688087,0.106021,-0.708281,9.55202484130859,-3.31352066993713,0.35103052854538,3.14550876617432,2.96561789512634,0.76825296878815
94,3962230494,0.116705,-0.688153,0.105937,-0.708237,9.53272247314453,-3.30108237266541,0.36903303861618,3.22128367424011,2.77418828010559,0.60115563869476
95,3962247161,0.116671,-0.688213,0.105869,-0.708194,9.51800346374512,-3.28745865821838,0.35311037302017,3.18753886222839,2.81099367141724,0.72670906782150
96,3962263828,0.116625,-0.688256,0.105848,-0.708164,9.52547359466553,-3.28329467773438,0.38710159063339,2.93799448013306,3.00447225570679,0.89060485363007
97,3962280495,0.116561,-0.688295,0.105853,-0.708135,9.51909351348877,-3.29256463050842,0.37856328487396,2.71623969078064,3.06329154968262,0.92998439073563
98,3962297162,0.116495,-0.688332,0.105874,-0.708107,9.53868770599365,-3.32250189781189,0.35445722937584,2.64402484893799,3.08531832695007,0.99475878477097
99,3962313829,0.116441,-0.688355,0.105870,-0.708094,9.54571533203125,-3.32385110855103,0.33472469449043,2.83605599403381,3.20615935325623,0.93503004312515
100,3962330496,0.116409,-0.688376,0.105837,-0.708084,9.54570674896240,-3.31834983825684,0.33521994948387,3.08679175376892,3.18095707893372,0.89889067411423
101,3962347163,0.116395,-0.688397,0.105796,-0.708072,9.53817844390869,-3.30041885375977,0.32470211386681,3.20631313323975,3.16426992416382,0.95485436916351
102,3962363830,0.116366,-0.688421,0.105778,-0.708056,9.51939678192139,-3.28148794174194,0.32902169227600,3.02055692672729,3.14826202392578,0.99183899164200
103,3962380497,0.116329,-0.688435,0.105793,-0.708046,9.53228855133057,-3.28303194046021,0.31332269310951,2.84048652648926,3.26453065872192,1.10637891292572
104,3962397164,0.116289,-0.688453,0.105820,-0.708031,9.52781295776367,-3.28623199462891,0.32166808843613,2.75648355484009,3.22921729087830,1.15157914161682
105,3962413831,0.116250,-0.688481,0.105850,-0.708006,9.53380489349365,-3.27761244773865,0.32526078820229,2.72912931442261,3.13510346412659,1.17484831809998
106,3962430498,0.116196,-0.688519,0.105901,-0.707970,9.54442214965820,-3.26921033859253,0.33659231662750,2.54433965682983,3.06891345977783,1.19991648197174
107,3962447165,0.116148,-0.688561,0.105958,-0.707929,9.54997062683105,-3.28100109100342,0.31394541263580,2.52962517738342,3.01885366439819,1.25817263126373
108,3962463832,0.116124,-0.688621,0.106008,-0.707867,9.52986335754395,-3.29741859436035,0.31587249040604,2.66010928153992,2.81048130989075,1.34636986255646
109,3962480499,0.116123,-0.688669,0.106030,-0.707817,9.54685974121094,-3.33632802963257,0.29553738236427,2.91640949249268,2.88728761672974,1.32830667495728
110,3962497166,0.116159,-0.688709,0.105999,-0.707777,9.54060363769531,-3.31377744674683,0.32433372735977,3.36250591278076,2.90535759925842,1.25057220458984
111,3962513833,0.116196,-0.688725,0.105980,-0.707758,9.51498222351074,-3.25974202156067,0.32698628306389,3.34466052055359,3.12176585197449,1.31376516819000
112,3962530500,0.116226,-0.688719,0.105986,-0.707758,9.47987747192383,-3.28351974487305,0.33039870858192,3.21805644035339,3.35058927536011,1.40111708641052
113,3962547167,0.116255,-0.688693,0.106006,-0.707776,9.51176834106445,-3.29512619972229,0.31657934188843,3.17598795890808,3.54703903198242,1.45729851722717
114,3962563834,0.116256,-0.688660,0.106021,-0.707806,9.60078239440918,-3.30891990661621,0.28790360689163,3.09043502807617,3.65490055084229,1.29990220069885
115,3962580501,0.116243,-0.688640,0.106047,-0.707823,9.67083072662354,-3.32291340827942,0.27755433320999,2.94240641593933,3.54297280311584,1.28274178504944
116,3962597168,0.116131,-0.688659,0.106141,-0.707809,9.62631130218506,-3.30388617515564,0.33620601892471,2.09095644950867,3.33934521675110,1.11303818225861
117,3962613835,0.115929,-0.688721,0.106353,-0.707750,9.53538513183594,-3.30547165870667,0.37547948956490,1.01471114158630,3.07926130294800,1.24477720260620
118,3962630502,0.115749,-0.688751,0.106527,-0.707724,9.51110744476318,-3.37061619758606,0.34307819604874,1.36486220359802,3.34405779838562,1.16823351383209
119,3962647169,0.115703,-0.688719,0.106548,-0.707759,9.50951671600342,-3.40352201461792,0.34153100848198,2.83200335502625,3.71010875701904,1.08753466606140
120,3962663836,0.115767,-0.688656,0.106430,-0.707828,9.53986072540283,-3.35127019882202,0.36031320691109,4.08160209655762,3.83340191841125,0.96565002202988
121,3962680503,0.115906,-0.688565,0.106264,-0.707919,9.59588623046875,-3.30035877227783,0.35496297478676,4.70742321014404,3.97603917121887,1.10456073284149
122,3962697170,0.116019,-0.688491,0.106162,-0.707988,9.58240032196045,-3.26611495018005,0.35204511880875,4.24298763275146,3.86170363426208,1.28282487392426
123,3962713837,0.116029,-0.688438,0.106166,-0.708036,9.58531761169434,-3.26645064353943,0.31497281789780,3.21265888214111,3.82113957405090,1.28920900821686
124,3962730504,0.115954,-0.688395,0.106263,-0.708076,9.57120609283447,-3.27044534683228,0.31379547715187,2.34564971923828,3.87047648429871,1.31586551666260
125,3962747171,0.115848,-0.688341,0.106423,-0.708122,9.54043960571289,-3.28496503829956,0.34669959545135,1.90333104133606,4.02679109573364,1.46321535110474
126,3962763838,0.115764,-0.688295,0.106606,-0.708153,9.53877162933350,-3.31096720695496,0.34481394290924,1.87172496318817,3.91549062728882,1.68447053432465
127,3962780505,0.115697,-0.688254,0.106740,-0.708184,9.55994129180908,-3.31569027900696,0.35091769695282,2.19461178779602,3.84321165084839,1.53619861602783
128,3962797172,0.115664,-0.688235,0.106789,-0.708201,9.49381637573242,-3.33389353752136,0.35169202089310,2.73715281486511,3.57350969314575,1.28885686397552
129,3962813839,0.115701,-0.688187,0.106797,-0.708240,9.46408176422119,-3.30901670455933,0.31403577327728,3.30551171302795,3.73908329010010,1.44268679618835
130,3962830506,0.115796,-0.688104,0.106759,-0.708311,9.52346897125244,-3.32283878326416,0.31361645460129,3.85873889923096,3.98106551170349,1.50735211372375
131,3962847173,0.115865,-0.688019,0.106710,-0.708390,9.58126068115234,-3.32885909080505,0.31717339158058,3.80410075187683,4.03707408905029,1.32098782062531
132,3962863840,0.115806,-0.687951,0.106742,-0.708460,9.58215904235840,-3.28709530830383,0.36005616188049,2.76603722572327,4.06781530380249,1.07712292671204
133,3962880507,0.115655,-0.687897,0.106838,-0.708523,9.55351543426514,-3.30436992645264,0.33137059211731,2.02171969413757,4.09274959564209,0.93096417188644
134,3962897174,0.115499,-0.687872,0.106938,-0.708557,9.52689456939697,-3.32591485977173,0.35892882943153,1.92761194705963,3.81245064735413,0.92075103521347
135,3962913841,0.115400,-0.687848,0.106969,-0.708592,9.52788925170898,-3.35818815231323,0.34857353568077,2.52537417411804,3.72253775596619,0.87102407217026
136,3962930508,0.115388,-0.687777,0.106872,-0.708678,9.53550338745117,-3.35233926773071,0.35565578937531,3.63985896110535,4.02274322509766,0.68545979261398
137,3962947175,0.115444,-0.687680,0.106740,-0.708782,9.53231620788574,-3.31274867057800,0.36827349662781,4.16556072235107,4.15768432617188,0.85570764541626
138,3962963842,0.115471,-0.687595,0.106643,-0.708875,9.54516887664795,-3.26447248458862,0.36251384019852,3.83661627769470,4.10029888153076,0.88066709041595
139,3962980509,0.115403,-0.687523,0.106643,-0.708956,9.53839015960693,-3.25966548919678,0.33805832266808,2.90552401542664,4.12564945220947,0.87902152538300
140,3962997176,0.115261,-0.687468,0.106710,-0.709023,9.52923965454102,-3.27133226394653,0.34228184819221,2.20159745216370,4.07889318466187,0.82939690351486
141,3963013843,0.115098,-0.687421,0.106801,-0.709081,9.52018165588379,-3.28782796859741,0.35051560401917,1.97554624080658,4.03260469436646,0.84133881330490
142,3963030510,0.114997,-0.687379,0.106839,-0.709132,9.51728916168213,-3.31625771522522,0.38752034306526,2.51124882698059,3.88794445991516,0.89635497331619
143,3963047177,0.114967,-0.687339,0.106821,-0.709179,9.51900291442871,-3.30926489830017,0.34627181291580,3.11988925933838,3.76670002937317,0.97669547796249
144,3963063844,0.114941,-0.687322,0.106776,-0.709206,9.53988552093506,-3.30173611640930,0.36875948309898,3.24172878265381,3.53186941146851,0.86907088756561
145,3963080511,0.114886,-0.687310,0.106741,-0.709231,9.55796623229980,-3.28298115730286,0.36536484956741,3.04003572463989,3.53291392326355,0.77513003349304
146,3963097178,0.114820,-0.687283,0.106719,-0.709272,9.53892326354980,-3.29738259315491,0.35586482286453,2.95657682418823,3.69838452339172,0.78426092863083
147,3963113845,0.114742,-0.687254,0.106733,-0.709310,9.54168319702148,-3.27854084968567,0.38415661454201,2.72263050079346,3.72777557373047,0.89323025941849
148,3963130512,0.114637,-0.687214,0.106756,-0.709363,9.53728389739990,-3.29487180709839,0.38870808482170,2.57306504249573,3.88068294525146,0.80352169275284
149,3963147179,0.114539,-0.687180,0.106776,-0.709409,9.51447200775146,-3.29761004447937,0.38585767149925,2.60097646713257,3.81560707092285,0.81774318218231
150,3963163846,0.114451,-0.687157,0.106783,-0.709443,9.53243637084961,-3.29576492309570,0.38768047094345,2.70656490325928,3.67869520187378,0.81501549482346
151,3963180513,0.114399,-0.687110,0.106751,-0.709502,9.52444362640381,-3.30867314338684,0.36571952700615,3.09744620323181,3.86227989196777,0.79993587732315
152,3963197180,0.114385,-0.687058,0.106696,-0.709563,9.53155517578125,-3.28850483894348,0.36010065674782,3.39719223976135,3.84369850158691,0.87804180383682
153,3963213847,0.114379,-0.687000,0.106615,-0.709633,9.53378868103027,-3.27401518821716,0.32900550961494,3.56446838378906,3.89637064933777,0.79532551765442
154,3963230514,0.114405,-0.686966,0.106526,-0.709675,9.54784202575684,-3.26866412162781,0.35252267122269,3.71817016601562,3.61428523063660,0.91592305898666
155,3963247181,0.114424,-0.686970,0.106450,-0.709679,9.53954601287842,-3.24881482124329,0.35203564167023,3.57238245010376,3.27034497261047,0.94408404827118
156,3963263848,0.114390,-0.686997,0.106417,-0.709664,9.54835224151611,-3.22249555587769,0.36502760648727,3.08059310913086,3.13194656372070,0.89063048362732
157,3963280515,0.114319,-0.687032,0.106461,-0.709635,9.54417324066162,-3.23149514198303,0.35758903622627,2.50730371475220,3.11802601814270,1.07195556163788
158,3963297182,0.114210,-0.687067,0.106540,-0.709607,9.54769802093506,-3.27999114990234,0.35359454154968,2.16208338737488,3.17573165893555,1.05662643909454
159,3963313849,0.114123,-0.687112,0.106622,-0.709565,9.54237556457520,-3.27150297164917,0.36967948079109,2.23169875144958,3.05080580711365,1.18271780014038
160,3963330516,0.114030,-0.687128,0.106714,-0.709551,9.52832317352295,-3.29598069190979,0.38426131010056,2.20800662040710,3.33611774444580,1.19640755653381
161,3963347183,0.113988,-0.687137,0.106757,-0.709542,9.48946857452393,-3.29955029487610,0.40391048789024,2.69069099426270,3.31707525253296,1.21875476837158
162,3963363850,0.113956,-0.687142,0.106783,-0.709538,9.53060150146484,-3.29010963439941,0.36893066763878,2.82033014297485,3.33944821357727,1.18421614170074
163,3963380517,0.113963,-0.687097,0.106733,-0.709588,9.62086963653564,-3.35012602806091,0.30879956483841,3.45930266380310,3.75480914115906,1.00520896911621
164,3963397184,0.113984,-0.687049,0.106620,-0.709648,9.64202117919922,-3.34353709220886,0.33680891990662,3.84072685241699,3.75644826889038,0.77565509080887
165,3963413851,0.113887,-0.687053,0.106571,-0.709667,9.60134887695312,-3.26058530807495,0.39190182089806,2.90262365341187,3.43730163574219,0.49234020709991
166,3963430518,0.113782,-0.687055,0.106572,-0.709682,9.55934143066406,-3.30058217048645,0.36337363719940,2.62240743637085,3.47885775566101,0.70044326782227
167,3963447185,0.113726,-0.687040,0.106524,-0.709713,9.56284904479980,-3.34919905662537,0.35980388522148,3.11397337913513,3.56546115875244,0.70011687278748
168,3963463852,0.113737,-0.686987,0.106402,-0.709781,9.57752037048340,-3.31485033035278,0.38026571273804,3.84527325630188,3.81740641593933,0.68335962295532
169,3963480519,0.113837,-0.686884,0.106230,-0.709890,9.57951545715332,-3.24439930915833,0.38617080450058,4.58371353149414,4.15576362609863,0.87779855728149
170,3963497186,0.113958,-0.686771,0.106112,-0.709998,9.57936954498291,-3.22511482238770,0.38084340095520,4.42546510696411,4.22007703781128,1.24876022338867
171,3963513853,0.114030,-0.686688,0.106059,-0.710074,9.54483795166016,-3.20997238159180,0.37117260694504,3.82948350906372,4.00886154174805,1.31868290901184
172,3963530520,0.114025,-0.686650,0.106102,-0.710105,9.53584671020508,-3.22459983825684,0.34966915845871,2.93069481849670,3.71104979515076,1.40074563026428
173,3963547187,0.113983,-0.686613,0.106211,-0.710132,9.54664039611816,-3.25422477722168,0.33621156215668,2.43111944198608,3.76286435127258,1.53249752521515
174,3963563854,0.113953,-0.686576,0.106305,-0.710157,9.53565597534180,-3.27403426170349,0.37220907211304,2.55937528610229,3.73246240615845,1.52112567424774
175,3963580521,0.113927,-0.686552,0.106369,-0.710176,9.54406452178955,-3.27640628814697,0.35720226168633,2.71189856529236,3.61679577827454,1.39386868476868
176,3963597188,0.113928,-0.686539,0.106377,-0.710187,9.55191802978516,-3.29772973060608,0.35777056217194,3.09368157386780,3.46465587615967,1.26339781284332
177,3963613855,0.113932,-0.686547,0.106354,-0.710182,9.54592990875244,-3.29335045814514,0.36924368143082,3.23041534423828,3.26150894165039,1.12581908702850
178,3963630522,0.113928,-0.686569,0.106326,-0.710166,9.50318717956543,-3.29652976989746,0.36968091130257,3.19788694381714,3.13873410224915,1.06025063991547
179,3963647189,0.113999,-0.686549,0.106259,-0.710183,9.52179908752441,-3.29875540733337,0.36681956052780,3.79950356483459,3.40967798233032,1.24616050720215
180,3963663856,0.114043,-0.686510,0.106217,-0.710220,9.56746673583984,-3.29207611083984,0.37166213989258,3.57923412322998,3.64070463180542,1.23280334472656
181,3963680523,0.114005,-0.686459,0.106216,-0.710276,9.57042694091797,-3.24582529067993,0.42164668440819,3.01836705207825,3.88023424148560,1.01916766166687
182,3963697190,0.113913,-0.686426,0.106246,-0.710318,9.54752254486084,-3.25942039489746,0.38409593701363,2.58663964271545,3.78822135925293,0.89947980642319
183,3963713857,0.113809,-0.686423,0.106285,-0.710332,9.55861377716064,-3.27567791938782,0.37425488233566,2.44384837150574,3.52994251251221,0.88676291704178
184,3963730524,0.113748,-0.686432,0.106319,-0.710328,9.52090740203857,-3.26666855812073,0.41459560394287,2.64091944694519,3.34622907638550,1.07292246818542
185,3963747191,0.113743,-0.686422,0.106324,-0.710337,9.53926753997803,-3.28151488304138,0.40337187051773,3.08397459983826,3.43995261192322,1.21773052215576
186,3963763858,0.113769,-0.686358,0.106295,-0.710399,9.53873252868652,-3.28270125389099,0.39629343152046,3.48107385635376,3.90475869178772,1.20250356197357
187,3963780525,0.113790,-0.686296,0.106257,-0.710462,9.54710578918457,-3.27688097953796,0.36768862605095,3.48143243789673,3.89642238616943,1.13445067405701
188,3963797192,0.113792,-0.686246,0.106213,-0.710517,9.54291343688965,-3.27064490318298,0.38482075929642,3.42134499549866,3.80670094490051,1.00814163684845
189,3963813859,0.113768,-0.686214,0.106202,-0.710552,9.55983924865723,-3.26681089401245,0.39659169316292,3.10445165634155,3.67141413688660,1.04420423507690
190,3963830526,0.113754,-0.686196,0.106188,-0.710575,9.55088043212891,-3.25176024436951,0.37068355083466,3.14313936233521,3.53543591499329,1.07957530021667
191,3963847193,0.113768,-0.686171,0.106175,-0.710598,9.54430294036865,-3.24574542045593,0.37544801831245,3.27614593505859,3.55003571510315,1.22213542461395
192,3963863860,0.113781,-0.686150,0.106194,-0.710614,9.56931781768799,-3.25491952896118,0.40946787595749,3.10486125946045,3.52652311325073,1.37164974212646
193,3963880527,0.113782,-0.686133,0.106217,-0.710627,9.58072662353516,-3.25651717185974,0.39315366744995,3.03642439842224,3.49888706207275,1.33029818534851
194,3963897194,0.113768,-0.686123,0.106260,-0.710632,9.57972145080566,-3.25642609596252,0.37953230738640,2.85141730308533,3.45600509643555,1.35312545299530
195,3963913861,0.113744,-0.686127,0.106312,-0.710625,9.55535411834717,-3.26588225364685,0.38464385271072,2.73553919792175,3.34587717056274,1.34750986099243
196,3963930528,0.113756,-0.686120,0.106345,-0.710624,9.54326152801514,-3.27563834190369,0.38594374060631,3.01625442504883,3.38418054580688,1.43574559688568
197,3963947195,0.113821,-0.686107,0.106350,-0.710626,9.53914833068848,-3.27833485603333,0.37915891408920,3.40015006065369,3.37620186805725,1.56471824645996
198,3963963862,0.113943,-0.686061,0.106330,-0.710654,9.55976486206055,-3.26215028762817,0.41412186622620,3.84330725669861,3.58917784690857,1.73308992385864
199,3963980529,0.114105,-0.685997,0.106314,-0.710692,9.56529998779297,-3.24365377426147,0.40347260236740,4.04237556457520,3.70363521575928,1.94402933120728
200,3963997196,0.114296,-0.685931,0.106335,-0.710722,9.58061695098877,-3.24849796295166,0.38872206211090,3.98492670059204,3.67941832542419,2.27388262748718
201,3964013863,0.114461,-0.685843,0.106418,-0.710767,9.54038715362549,-3.25868391990662,0.39248576760292,3.59356451034546,3.92866802215576,2.43877744674683
202,3964030530,0.114541,-0.685735,0.106577,-0.710835,9.54057693481445,-3.28317666053772,0.39358261227608,2.84511685371399,4.26126861572266,2.38412642478943
203,3964047197,0.114579,-0.685619,0.106780,-0.710910,9.56346225738525,-3.30701613426208,0.37998762726784,2.44971394538879,4.38958215713501,2.38419675827026
204,3964063864,0.114592,-0.685492,0.106976,-0.711002,9.56733798980713,-3.33643221855164,0.37154597043991,2.39089441299438,4.54001760482788,2.22507786750793
205,3964080531,0.114606,-0.685368,0.107111,-0.711098,9.53757762908936,-3.33344507217407,0.37360700964928,2.68650364875793,4.49510574340820,1.93830525875092
206,3964097198,0.114636,-0.685251,0.107171,-0.711197,9.48940563201904,-3.32889533042908,0.38621437549591,3.12807297706604,4.40444374084473,1.64888811111450
207,3964113865,0.114699,-0.685150,0.107147,-0.711288,9.49615764617920,-3.33178019523621,0.34681299328804,3.67380309104919,4.20129632949829,1.41348171234131
208,3964130532,0.114772,-0.685063,0.107079,-0.711370,9.48323822021484,-3.28340172767639,0.36208266019821,3.92232871055603,4.04432249069214,1.25370323657990
209,3964147199,0.114795,-0.684977,0.107055,-0.711453,9.49540328979492,-3.24632620811462,0.39906331896782,3.47403001785278,4.11815071105957,1.20530807971954
210,3964163866,0.114752,-0.684877,0.107104,-0.711549,9.48827362060547,-3.22718191146851,0.40885204076767,2.82908320426941,4.35068225860596,1.23670303821564
211,3964180533,0.114661,-0.684813,0.107224,-0.711606,9.45064353942871,-3.22902178764343,0.40417897701263,2.18749713897705,4.08419466018677,1.34051096439362
212,3964197200,0.114556,-0.684746,0.107358,-0.711668,9.54550552368164,-3.30254483222961,0.38291007280350,2.06421732902527,4.14216279983521,1.32613611221313
213,3964213867,0.114480,-0.684682,0.107430,-0.711730,9.61422443389893,-3.36400818824768,0.38539469242096,2.50335979461670,4.06026601791382,1.18087339401245
214,3964230534,0.114409,-0.684643,0.107437,-0.711779,9.59278106689453,-3.32504987716675,0.41138905286789,2.81550145149231,3.81953191757202,0.89250010251999
215,3964247201,0.114305,-0.684628,0.107467,-0.711805,9.56491851806641,-3.29812097549438,0.45349976420403,2.51227283477783,3.64108896255493,0.83594733476639
216,3964263868,0.114251,-0.684566,0.107449,-0.711877,9.50690460205078,-3.33306574821472,0.41913652420044,3.04601001739502,4.01139116287231,0.85225635766983
217,3964280535,0.114285,-0.684488,0.107338,-0.711962,9.47315216064453,-3.33084273338318,0.44831719994545,3.94944047927856,4.00690221786499,0.85345363616943
218,3964297202,0.114397,-0.684400,0.107171,-0.712055,9.52960872650146,-3.31092548370361,0.46078398823738,4.60249996185303,3.99846291542053,0.97059327363968
219,3964313869,0.114544,-0.684312,0.107001,-0.712141,9.57281589508057,-3.27164340019226,0.41378664970398,4.76900863647461,3.93325328826904,1.12921285629272
220,3964330536,0.114641,-0.684232,0.106893,-0.712218,9.57024288177490,-3.22253417968750,0.45048481225967,4.22049951553345,3.94125699996948,1.17873489856720
221,3964347203,0.114661,-0.684190,0.106904,-0.712254,9.53630256652832,-3.22349166870117,0.43907424807549,3.21748065948486,3.71288156509399,1.36623275279999
222,3964363870,0.114577,-0.684149,0.107034,-0.712287,9.52602386474609,-3.24619436264038,0.43595731258392,2.13677787780762,3.86108899116516,1.42170989513397
223,3964380537,0.114472,-0.684100,0.107206,-0.712325,9.52176761627197,-3.30425763130188,0.42530798912048,1.84043931961060,3.97414398193359,1.51328814029694
224,3964397204,0.114404,-0.684057,0.107310,-0.712362,9.51862907409668,-3.32705473899841,0.42661842703819,2.35184812545776,3.85290622711182,1.37282800674438
225,3964413871,0.114374,-0.684030,0.107317,-0.712391,9.53023719787598,-3.32405042648315,0.45246788859367,2.98827171325684,3.64131903648376,1.09594178199768
226,3964430538,0.114384,-0.684026,0.107233,-0.712406,9.52550029754639,-3.31586766242981,0.45620250701904,3.59598493576050,3.36009144783020,0.86029213666916
227,3964447205,0.114425,-0.684057,0.107091,-0.712391,9.45932102203369,-3.28860521316528,0.45226156711578,3.95830178260803,2.97860336303711,0.73325318098068
228,3964463872,0.114519,-0.684073,0.106946,-0.712382,9.46578979492188,-3.26975440979004,0.42203879356384,4.24133539199829,3.04527306556702,0.99203109741211
229,3964480539,0.114640,-0.684048,0.106817,-0.712407,9.52413177490234,-3.27166414260864,0.41031283140182,4.35450506210327,3.38575577735901,1.19017100334167
230,3964497206,0.114705,-0.684031,0.106735,-0.712425,9.53682041168213,-3.24526572227478,0.43409922719002,3.84893584251404,3.40000939369202,1.14937007427216
231,3964513873,0.114654,-0.684051,0.106777,-0.712407,9.54584121704102,-3.22589445114136,0.46431273221970,2.61991047859192,3.23725342750549,1.15765559673309
232,3964530540,0.114522,-0.684080,0.106912,-0.712381,9.54600811004639,-3.26156139373779,0.44224560260773,1.79249227046967,3.28247308731079,1.20683217048645
233,3964547207,0.114398,-0.684142,0.107047,-0.712321,9.50369071960449,-3.30277013778687,0.43053317070007,1.78027486801147,2.95042943954468,1.23933458328247
234,3964563874,0.114341,-0.684210,0.107088,-0.712258,9.51976490020752,-3.33489155769348,0.41203942894936,2.54144620895386,2.79490923881531,1.12638258934021
235,3964580541,0.114392,-0.684238,0.106993,-0.712237,9.51753902435303,-3.34516024589539,0.38993403315544,3.79464960098267,2.98600578308105,1.01613271236420
236,3964597208,0.114523,-0.684251,0.106824,-0.712229,9.50984096527100,-3.30701756477356,0.42394375801086,4.56274890899658,3.00615024566650,1.05529451370239
237,3964613875,0.114678,-0.684290,0.106650,-0.712193,9.51715850830078,-3.25626087188721,0.44456553459167,4.65469884872437,2.73351550102234,1.15481281280518
238,3964630542,0.114824,-0.684328,0.106539,-0.712150,9.56266307830811,-3.23828697204590,0.43871033191681,4.28217506408691,2.75450515747070,1.41455113887787
239,3964647209,0.114922,-0.684355,0.106522,-0.712111,9.56491470336914,-3.24245691299438,0.43540734052658,3.63167572021484,2.93803262710571,1.62302553653717
240,3964663876,0.114983,-0.684347,0.106570,-0.712101,9.56546401977539,-3.25299549102783,0.45579996705055,3.17182540893555,3.32788395881653,1.75467503070831
241,3964680543,0.115053,-0.684319,0.106646,-0.712105,9.58168315887451,-3.26158356666565,0.47666612267494,3.09360456466675,3.50170493125916,1.92950713634491
242,3964697210,0.115099,-0.684303,0.106727,-0.712101,9.57107067108154,-3.29355239868164,0.47495198249817,2.94062614440918,3.43611645698547,1.83417010307312
243,3964713877,0.115203,-0.684291,0.106797,-0.712085,9.56972694396973,-3.32366943359375,0.46228975057602,3.25064897537231,3.30829000473022,2.06777739524841
244,3964730544,0.115350,-0.684259,0.106833,-0.712086,9.58725738525391,-3.31903243064880,0.44727778434753,3.67035150527954,3.42489242553711,2.12935066223145
245,3964747211,0.115533,-0.684204,0.106858,-0.712106,9.56249237060547,-3.30506229400635,0.42159858345985,3.91193628311157,3.59360885620117,2.25036382675171
246,3964763878,0.115725,-0.684155,0.106850,-0.712123,9.51207923889160,-3.30896878242493,0.41936853528023,4.11802244186401,3.51100182533264,2.13971042633057
247,3964780545,0.115880,-0.684155,0.106823,-0.712102,9.49121856689453,-3.28669428825378,0.41624355316162,3.99673390388489,3.10255646705627,1.86238944530487
248,3964797212,0.115986,-0.684201,0.106805,-0.712044,9.50625514984131,-3.26227188110352,0.39919790625572,3.59740638732910,2.75558090209961,1.66059935092926
249,3964813879,0.116023,-0.684272,0.106843,-0.711963,9.52114009857178,-3.26042437553406,0.36393406987190,3.01730394363403,2.60869193077087,1.58723175525665
250,3964830546,0.116003,-0.684355,0.106881,-0.711881,9.50749492645264,-3.28942012786865,0.34288510680199,2.73826694488525,2.58867597579956,1.29510641098022
251,3964847213,0.115984,-0.684445,0.106882,-0.711798,9.50309944152832,-3.30919742584229,0.37714195251465,2.91662120819092,2.51696038246155,1.12971234321594
252,3964863880,0.115979,-0.684565,0.106857,-0.711687,9.50305557250977,-3.29771232604980,0.38773685693741,3.02806782722473,2.22581434249878,1.07016909122467
253,3964880547,0.115972,-0.684705,0.106838,-0.711556,9.51445198059082,-3.28159475326538,0.41947862505913,2.97444105148315,2.03109979629517,1.09390544891357
254,3964897214,0.115950,-0.684827,0.106873,-0.711437,9.55673408508301,-3.27262187004089,0.42462545633316,2.91163921356201,2.14608836174011,1.28861343860626
255,3964913881,0.115903,-0.684944,0.106930,-0.711324,9.57783603668213,-3.27761840820312,0.41757389903069,2.47740793228149,2.30812072753906,1.25838398933411
256,3964930548,0.115818,-0.685053,0.107033,-0.711217,9.54752254486084,-3.28521013259888,0.40730944275856,2.18453907966614,2.41104483604431,1.29306352138519
257,3964947215,0.115732,-0.685122,0.107142,-0.711148,9.55019092559814,-3.32186794281006,0.42986813187599,2.08686518669128,2.82043862342834,1.31082606315613
258,3964963882,0.115708,-0.685188,0.107184,-0.711082,9.52126121520996,-3.30903339385986,0.42104521393776,2.72622203826904,2.75572800636292,1.30010700225830
259,3964980549,0.115726,-0.685262,0.107223,-0.711002,9.51514625549316,-3.29765939712524,0.41918072104454,2.93229556083679,2.61395525932312,1.49699819087982
260,3964997216,0.115777,-0.685298,0.107254,-0.710954,9.59125709533691,-3.31021142005920,0.35994192957878,3.16332244873047,2.92315220832825,1.62292325496674
261,3965013883,0.115776,-0.685327,0.107293,-0.710920,9.61959266662598,-3.32567882537842,0.36863404512405,2.95057034492493,3.04683589935303,1.40174484252930
262,3965030550,0.115707,-0.685373,0.107350,-0.710879,9.60629177093506,-3.31254601478577,0.41391831636429,2.32793855667114,3.06098699569702,1.13368225097656
263,3965047217,0.115593,-0.685381,0.107466,-0.710872,9.56547355651855,-3.32341456413269,0.43632471561432,2.03139424324036,3.43765950202942,1.20404005050659
264,3965063884,0.115536,-0.685351,0.107539,-0.710900,9.48614215850830,-3.37637591362000,0.43082329630852,2.58846449851990,3.70551180839539,1.28379189968109
265,3965080551,0.115562,-0.685326,0.107491,-0.710927,9.50148582458496,-3.37193417549133,0.40142375230789,3.52905249595642,3.53189563751221,1.11077797412872
266,3965097218,0.115684,-0.685278,0.107332,-0.710977,9.55519104003906,-3.33045244216919,0.41016539931297,4.57914113998413,3.58267879486084,1.05533301830292
267,3965113885,0.115844,-0.685200,0.107160,-0.711052,9.55211162567139,-3.28711318969727,0.41569712758064,4.85970354080200,3.82425832748413,1.18372941017151
268,3965130552,0.115927,-0.685119,0.107078,-0.711129,9.53870105743408,-3.26117205619812,0.41252624988556,4.05061006546021,3.96420550346375,1.22942233085632
269,3965147219,0.115913,-0.685059,0.107119,-0.711182,9.51212024688721,-3.24462318420410,0.38527289032936,2.96933150291443,3.92121505737305,1.34099149703979
270,3965163886,0.115837,-0.685027,0.107258,-0.711205,9.52159786224365,-3.27085065841675,0.40537384152412,2.15374636650085,3.76415824890137,1.50520706176758
271,3965180553,0.115776,-0.685008,0.107381,-0.711215,9.55013179779053,-3.30507993698120,0.38633817434311,2.08212018013000,3.68442559242249,1.49468016624451
272,3965197220,0.115760,-0.684967,0.107441,-0.711248,9.56626987457275,-3.35442233085632,0.37979543209076,2.66456580162048,3.80075788497925,1.41063225269318
273,3965213887,0.115739,-0.684931,0.107472,-0.711281,9.55888271331787,-3.33181309700012,0.40901127457619,2.95178651809692,3.70752787590027,1.25869762897491
274,3965230554,0.115740,-0.684910,0.107437,-0.711307,9.49931144714355,-3.32174515724182,0.41418096423149,3.50700640678406,3.48828315734863,1.05423152446747
275,3965247221,0.115759,-0.684911,0.107355,-0.711315,9.46302318572998,-3.30171489715576,0.38713869452477,3.73606061935425,3.26374983787537,0.91956001520157
276,3965263888,0.115841,-0.684887,0.107247,-0.711341,9.52400112152100,-3.34222245216370,0.38417172431946,4.17178440093994,3.40642571449280,1.10433006286621
277,3965280555,0.115799,-0.684832,0.107246,-0.711401,9.56433773040771,-3.31817221641541,0.39354833960533,4.24330711364746,3.54634737968445,1.05722820758820
278,3965297222,0.115815,-0.684787,0.107189,-0.711450,9.59413051605225,-3.24492216110229,0.45458951592445,3.64409852027893,3.70741295814514,1.02098631858826
279,3965313889,0.115727,-0.684734,0.107257,-0.711506,9.55630874633789,-3.25208163261414,0.43623501062393,2.67009830474854,3.91729617118835,1.10576426982880
280,3965330556,0.115633,-0.684717,0.107342,-0.711524,9.52853202819824,-3.28332781791687,0.43275457620621,1.85309159755707,3.78175330162048,1.12853395938873
281,3965347223,0.115485,-0.684700,0.107491,-0.711542,9.50315093994141,-3.32682299613953,0.41707658767700,1.74418663978577,3.73850655555725,1.19248890876770
282,3965363890,0.115416,-0.684643,0.107553,-0.711599,9.51517868041992,-3.36765575408936,0.43070155382156,2.52076363563538,4.00403356552124,1.15896189212799
283,3965380557,0.115426,-0.684573,0.107548,-0.711665,9.50878810882568,-3.32678079605103,0.42217960953712,3.46267127990723,3.93464875221252,1.25267887115479
284,3965397224,0.115473,-0.684514,0.107492,-0.711723,9.55513191223145,-3.29698276519775,0.39796578884125,3.66584324836731,3.84195637702942,1.17070543766022
285,3965413891,0.115515,-0.684469,0.107405,-0.711772,9.57084083557129,-3.28667926788330,0.39772292971611,3.56483364105225,3.77095174789429,0.99240899085999
286,3965430558,0.115509,-0.684434,0.107360,-0.711814,9.53691291809082,-3.27663302421570,0.39903536438942,3.37714982032776,3.68002009391785,0.95760780572891
287,3965447225,0.115464,-0.684423,0.107347,-0.711833,9.53822135925293,-3.27959704399109,0.37268728017807,3.01657438278198,3.50924801826477,0.93219989538193
288,3965463892,0.115405,-0.684415,0.107334,-0.711853,9.53199958801270,-3.29650330543518,0.38806048035622,2.92469525337219,3.50584769248962,0.84315103292465
289,3965480559,0.115381,-0.684401,0.107304,-0.711874,9.52976131439209,-3.30764031410217,0.41295373439789,3.23364162445068,3.49299573898315,0.95553290843964
290,3965497226,0.115399,-0.684408,0.107230,-0.711876,9.56194686889648,-3.30978536605835,0.40787088871002,3.41382694244385,3.29778838157654,0.93736076354980
291,3965513893,0.115433,-0.684420,0.107148,-0.711871,9.55321025848389,-3.29734110832214,0.42913615703583,3.54236483573914,3.20937395095825,0.98382228612900
292,3965530560,0.115439,-0.684427,0.107097,-0.711871,9.58290576934814,-3.28131580352783,0.43984326720238,3.59027314186096,3.20743989944458,1.00187921524048
293,3965547227,0.115483,-0.684442,0.107017,-0.711861,9.55303478240967,-3.27874255180359,0.42958518862724,3.56266236305237,3.16850852966309,1.04435777664185
294,3965563894,0.115513,-0.684455,0.106986,-0.711849,9.56996726989746,-3.29282236099243,0.42439544200897,3.48941016197205,3.15040016174316,1.21614205837250
295,3965580561,0.115551,-0.684449,0.106956,-0.711853,9.58616352081299,-3.30893826484680,0.43980675935745,3.52999377250671,3.31375837326050,1.26452457904816
296,3965597228,0.115583,-0.684447,0.106936,-0.711853,9.55096912384033,-3.29854297637939,0.43260195851326,3.26004815101624,3.34847640991211,1.26504957675934
297,3965613895,0.115622,-0.684445,0.106923,-0.711851,9.57053852081299,-3.31084942817688,0.43638893961906,2.89624619483948,3.45508980751038,1.32141065597534
298,3965630562,0.115546,-0.684398,0.107019,-0.711894,9.54291725158691,-3.33311057090759,0.41172838211060,3.06157588958740,3.69026494026184,1.32963204383850
299,3965647229,0.115561,-0.684344,0.107020,-0.711943,9.54460620880127,-3.34974837303162,0.41427123546600,3.35625028610229,3.80380678176880,1.29734742641449
300,3965663896,0.115596,-0.684274,0.106972,-0.712011,9.52411746978760,-3.30789303779602,0.41252207756042,3.78749108314514,3.89192676544189,1.16231715679169
301,3965680563,0.115652,-0.684211,0.106925,-0.712071,9.55538272857666,-3.26711463928223,0.40789395570755,3.47894740104675,3.93124222755432,1.25004076957703
302,3965697230,0.115633,-0.684154,0.106948,-0.712125,9.55538368225098,-3.29132580757141,0.41742029786110,3.11076498031616,3.87541913986206,1.23474991321564
303,3965713897,0.115599,-0.684100,0.106970,-0.712178,9.52892589569092,-3.28754377365112,0.39704847335815,2.92873573303223,3.90559101104736,1.14215993881226
304,3965730564,0.115542,-0.684030,0.107006,-0.712250,9.50632858276367,-3.28155088424683,0.39077070355415,2.94368076324463,4.04830551147461,1.10545706748962
305,3965747231,0.115516,-0.683960,0.107010,-0.712320,9.45443534851074,-3.26915025711060,0.41171008348465,3.19112491607666,4.00526332855225,1.10459899902344
306,3965763898,0.115529,-0.683889,0.106965,-0.712393,9.48564052581787,-3.30003929138184,0.40626311302185,3.44959545135498,4.00995016098022,1.05669045448303
307,3965780565,0.115568,-0.683798,0.106861,-0.712491,9.59582710266113,-3.29979848861694,0.37479108572006,3.96498680114746,4.13673257827759,0.89905697107315
308,3965797232,0.115525,-0.683740,0.106760,-0.712568,9.65210914611816,-3.25719165802002,0.37648177146912,3.58310794830322,3.92412805557251,0.51409173011780
309,3965813899,0.115342,-0.683732,0.106777,-0.712602,9.59500408172607,-3.23708629608154,0.41986727714539,2.18136978149414,3.69632244110107,0.37219095230103
310,3965830566,0.115117,-0.683748,0.106920,-0.712602,9.50864505767822,-3.27551341056824,0.41814196109772,1.48469138145447,3.50226783752441,0.77966338396072
311,3965847233,0.114986,-0.683759,0.106952,-0.712608,9.48418807983398,-3.34443974494934,0.44008758664131,2.24154639244080,3.47571992874146,0.70159578323364
312,3965863900,0.114933,-0.683730,0.106876,-0.712656,9.50906181335449,-3.33652687072754,0.44790604710579,3.19980764389038,3.72488093376160,0.57154738903046
313,3965880567,0.114920,-0.683629,0.106782,-0.712768,9.49613094329834,-3.26467752456665,0.46350041031837,3.84554219245911,4.25405168533325,0.69967490434647
314,3965897234,0.114923,-0.683525,0.106702,-0.712880,9.53890991210938,-3.24921607971191,0.46025910973549,3.97730660438538,4.22946357727051,0.85094362497330
315,3965913901,0.114926,-0.683450,0.106610,-0.712965,9.55027389526367,-3.26308751106262,0.43957361578941,3.79162716865540,4.01139688491821,0.78595125675201
316,3965930568,0.114935,-0.683398,0.106537,-0.713024,9.57994174957275,-3.25925517082214,0.44932216405869,3.64262580871582,3.80033564567566,0.90503764152527
317,3965947235,0.114885,-0.683357,0.106525,-0.713074,9.56415939331055,-3.24918127059937,0.40790334343910,3.17025017738342,3.76068735122681,0.91542357206345
318,3965963902,0.114824,-0.683314,0.106583,-0.713117,9.54381465911865,-3.25126123428345,0.46278074383736,2.72274494171143,3.81229662895203,1.18205153942108
319,3965980569,0.114720,-0.683289,0.106698,-0.713140,9.54482078552246,-3.25214266777039,0.47288784384727,2.20698237419128,3.71172809600830,1.25155174732208
320,3965997236,0.114602,-0.683283,0.106812,-0.713147,9.50084114074707,-3.26498627662659,0.46962338685989,2.04120421409607,3.57692885398865,1.16491687297821
321,3966013903,0.114497,-0.683296,0.106869,-0.713143,9.44372558593750,-3.28044557571411,0.44384685158730,2.35158514976501,3.38357210159302,0.96314632892609
322,3966030570,0.114472,-0.683245,0.106875,-0.713196,9.48837852478027,-3.31530785560608,0.43545851111412,3.19644618034363,3.82134485244751,1.11861562728882
323,3966047237,0.114577,-0.683168,0.106739,-0.713273,9.53719615936279,-3.33053278923035,0.40913885831833,4.19253015518188,3.96446204185486,1.07283914089203
324,3966063904,0.114684,-0.683111,0.106585,-0.713333,9.56306362152100,-3.25908279418945,0.46301478147507,4.36207342147827,3.73974895477295,1.00534975528717
325,3966080571,0.114679,-0.683078,0.106536,-0.713373,9.58165454864502,-3.22444343566895,0.44921654462814,3.50928640365601,3.62611842155457,0.95093566179276
326,3966097238,0.114647,-0.683073,0.106532,-0.713383,9.54172897338867,-3.25307869911194,0.45662379264832,2.82746291160583,3.49001264572144,1.02472579479218
327,3966113905,0.114616,-0.683111,0.106558,-0.713347,9.52570438385010,-3.26298761367798,0.44282862544060,2.59014821052551,3.09386014938354,1.17021858692169
328,3966130572,0.114576,-0.683110,0.106601,-0.713349,9.52880001068115,-3.27718997001648,0.44025489687920,2.80610203742981,3.39939451217651,1.21975386142731
329,3966147239,0.114624,-0.683067,0.106573,-0.713386,9.51100540161133,-3.27636790275574,0.42446064949036,3.56083154678345,3.67233610153198,1.31409811973572
330,3966163906,0.114700,-0.683014,0.106512,-0.713434,9.49211978912354,-3.24930381774902,0.40966516733170,4.03116989135742,3.66985177993774,1.31029450893402
331,3966180573,0.114771,-0.682991,0.106456,-0.713453,9.53624629974365,-3.21777772903442,0.43499076366425,3.86216473579407,3.42313766479492,1.30433964729309
332,3966197240,0.114751,-0.682984,0.106495,-0.713457,9.54874610900879,-3.22621846199036,0.44192904233932,3.19066381454468,3.33765530586243,1.32079589366913
333,3966213907,0.114766,-0.683011,0.106526,-0.713424,9.55425357818604,-3.24339938163757,0.40332448482513,2.88391327857971,3.10487413406372,1.42874050140381
334,3966230574,0.114735,-0.683072,0.106591,-0.713361,9.56133365631104,-3.25507211685181,0.43395906686783,2.59429764747620,2.81388831138611,1.37211084365845
335,3966247241,0.114678,-0.683141,0.106684,-0.713290,9.57865142822266,-3.27715849876404,0.45472574234009,2.39198303222656,2.75852656364441,1.37693893909454
336,3966263908,0.114629,-0.683208,0.106774,-0.713220,9.54549884796143,-3.28741669654846,0.44684416055679,2.46111845970154,2.76094079017639,1.40328800678253
337,3966280575,0.114600,-0.683281,0.106839,-0.713145,9.53413486480713,-3.29999256134033,0.46309775114059,2.45122551918030,2.74219822883606,1.37967956066132
338,3966297242,0.114586,-0.683328,0.106879,-0.713097,9.54029178619385,-3.31058812141418,0.47697976231575,2.84007692337036,2.91391849517822,1.33507478237152
339,3966313909,0.114555,-0.683347,0.106930,-0.713076,9.54370307922363,-3.29691839218140,0.46579024195671,3.03651404380798,3.10711550712585,1.31712031364441
340,3966330576,0.114516,-0.683330,0.106991,-0.713089,9.55214691162109,-3.29108786582947,0.47251510620117,3.11134123802185,3.43114161491394,1.33293628692627
341,3966347243,0.114521,-0.683292,0.107007,-0.713122,9.53957653045654,-3.29765105247498,0.46942907571793,3.22803282737732,3.66455030441284,1.32126975059509
342,3966363910,0.114506,-0.683257,0.107021,-0.713157,9.55555343627930,-3.29002308845520,0.46339198946953,3.02972006797791,3.71044135093689,1.19911623001099
343,3966380577,0.114475,-0.683234,0.107044,-0.713180,9.56141853332520,-3.31901955604553,0.44971403479576,2.83368682861328,3.62976837158203,1.16266298294067
344,3966397244,0.114472,-0.683214,0.107062,-0.713197,9.55601692199707,-3.30136442184448,0.43335774540901,3.20137000083923,3.48737382888794,1.28909993171692
345,3966413911,0.114508,-0.683193,0.107018,-0.713218,9.58236789703369,-3.28763461112976,0.42622670531273,3.44739913940430,3.51899957656860,1.17831873893738
346,3966430578,0.114530,-0.683151,0.106953,-0.713264,9.58922576904297,-3.29936575889587,0.44404205679893,3.58369112014771,3.70754122734070,1.00788545608521
347,3966447245,0.114579,-0.683116,0.106892,-0.713299,9.53708076477051,-3.25720882415771,0.44234880805016,3.77727174758911,3.57359933853149,1.16285502910614
348,3966463912,0.114596,-0.683087,0.106871,-0.713327,9.51526069641113,-3.22632598876953,0.45299813151360,3.58676409721375,3.51858377456665,1.21110939979553
349,3966480579,0.114666,-0.683059,0.106847,-0.713346,9.50890731811523,-3.23011970520020,0.47249254584312,3.42409801483154,3.56097221374512,1.43337643146515
350,3966497246,0.114724,-0.683009,0.106863,-0.713382,9.53165435791016,-3.26045942306519,0.42760077118874,3.38748502731323,3.73257756233215,1.57697415351868
351,3966513913,0.114723,-0.682949,0.106898,-0.713435,9.60517215728760,-3.28759741783142,0.39211392402649,3.10564231872559,3.89283609390259,1.37663137912750
352,3966530580,0.114678,-0.682906,0.106931,-0.713478,9.63507652282715,-3.25843334197998,0.41753846406937,2.61667037010193,3.87904381752014,1.13264489173889
353,3966547247,0.114575,-0.682923,0.107006,-0.713467,9.58188533782959,-3.26067066192627,0.45001041889191,1.86169791221619,3.46651315689087,1.03584170341492
354,3966563914,0.114529,-0.682959,0.107030,-0.713436,9.51659965515137,-3.31759977340698,0.44096186757088,2.01528429985046,3.30414128303528,1.05533301830292
355,3966580581,0.114557,-0.682923,0.106985,-0.713474,9.52207565307617,-3.35428094863892,0.44639146327972,3.28015470504761,3.72523975372314,1.12364208698273
356,3966597248,0.114717,-0.682858,0.106780,-0.713540,9.53442859649658,-3.31724238395691,0.46880555152893,4.45159053802490,3.86379146575928,0.99792212247849
357,3966613915,0.114858,-0.682775,0.106590,-0.713626,9.53279781341553,-3.25268030166626,0.46747970581055,4.99388837814331,3.86056423187256,1.01436543464661
358,3966630582,0.114918,-0.682706,0.106499,-0.713696,9.56094837188721,-3.20978832244873,0.47636252641678,4.28622102737427,3.79477763175964,1.08883416652679
359,3966647249,0.114934,-0.682653,0.106486,-0.713746,9.54154109954834,-3.21966195106506,0.46194902062416,3.38940572738647,3.80609869956970,1.23001158237457
360,3966663916,0.114885,-0.682605,0.106573,-0.713786,9.54963302612305,-3.23672914505005,0.47512611746788,2.80729913711548,3.79110884666443,1.40143096446991
361,3966680583,0.114812,-0.682550,0.106709,-0.713831,9.56174373626709,-3.24068307876587,0.44117847084999,2.40492343902588,3.91971039772034,1.50718569755554
362,3966697250,0.114693,-0.682483,0.106903,-0.713884,9.56960201263428,-3.29090142250061,0.45465651154518,2.29908561706543,3.98149442672729,1.56929004192352
363,3966713917,0.114632,-0.682439,0.107035,-0.713916,9.58189487457275,-3.30479216575623,0.47482752799988,2.55670475959778,3.76609802246094,1.55675935745239
364,3966730584,0.114657,-0.682425,0.107037,-0.713925,9.53229618072510,-3.29636311531067,0.47273555397987,3.10064768791199,3.48844957351685,1.33880126476288
365,3966747251,0.114767,-0.682412,0.106956,-0.713933,9.47042369842529,-3.26980733871460,0.48238983750343,3.63472437858582,3.43459963798523,1.35132634639740
366,3966763918,0.114952,-0.682373,0.106825,-0.713960,9.54634857177734,-3.28747248649597,0.44808858633041,4.12769222259521,3.60039043426514,1.48149001598358
367,3966780585,0.115058,-0.682311,0.106752,-0.714013,9.56033897399902,-3.28645873069763,0.46245336532593,4.06442832946777,3.76711654663086,1.39120519161224
368,3966797252,0.115091,-0.682254,0.106705,-0.714069,9.55063438415527,-3.24938464164734,0.47426620125771,3.55716967582703,3.84340429306030,1.14867866039276
369,3966813919,0.115127,-0.682222,0.106660,-0.714100,9.54214191436768,-3.24723553657532,0.47571757435799,2.92403531074524,3.78400731086731,1.13950908184052
370,3966830586,0.115060,-0.682218,0.106731,-0.714104,9.52713203430176,-3.26072049140930,0.48905438184738,2.24189853668213,3.56336021423340,1.19871914386749
371,3966847253,0.114952,-0.682218,0.106849,-0.714104,9.52440834045410,-3.29550886154175,0.49547067284584,2.15941309928894,3.48156642913818,1.24420738220215
372,3966863920,0.114867,-0.682182,0.106926,-0.714141,9.52243232727051,-3.30686545372009,0.49536514282227,3.06208157539368,3.61383008956909,1.18911433219910
373,3966880587,0.114917,-0.682134,0.106885,-0.714185,9.52085018157959,-3.29431557655334,0.46590623259544,3.68429756164551,3.69890952110291,1.26490890979767
374,3966897254,0.115004,-0.682085,0.106795,-0.714231,9.52713489532471,-3.26115489006042,0.46915647387505,3.86440587043762,3.72681474685669,1.20250344276428
375,3966913921,0.114975,-0.682042,0.106818,-0.714274,9.54488563537598,-3.25516843795776,0.45715278387070,3.42513537406921,3.65193581581116,1.20341277122498
376,3966930588,0.114931,-0.682023,0.106867,-0.714291,9.53792667388916,-3.25294756889343,0.45326837897301,2.84079432487488,3.54925441741943,1.23250877857208
377,3966947255,0.114829,-0.682027,0.106996,-0.714285,9.52836704254150,-3.25056385993958,0.47483238577843,2.18094706535339,3.42341923713684,1.32431745529175
378,3966963922,0.114780,-0.682048,0.107076,-0.714261,9.52377319335938,-3.26069188117981,0.46283543109894,2.14913582801819,3.33011174201965,1.33671379089355
379,3966980589,0.114815,-0.682080,0.107056,-0.714227,9.53651809692383,-3.30069303512573,0.46632480621338,2.31880712509155,3.31418085098267,1.23257267475128
380,3966997256,0.114767,-0.682089,0.107096,-0.714221,9.54834079742432,-3.30359911918640,0.47366270422935,2.83820724487305,3.29301214218140,1.17046189308167
381,3967013923,0.114739,-0.682109,0.107099,-0.714205,9.55407142639160,-3.29880046844482,0.46369615197182,3.03653931617737,3.17470693588257,1.09061443805695
382,3967030590,0.114765,-0.682127,0.107049,-0.714191,9.52213287353516,-3.29413533210754,0.48547726869583,3.34951424598694,3.16530776023865,1.09021747112274
383,3967047257,0.114779,-0.682141,0.107018,-0.714181,9.52833938598633,-3.28911399841309,0.47663462162018,3.27213811874390,3.21587967872620,1.12840592861176
384,3967063924,0.114737,-0.682148,0.107013,-0.714181,9.55306625366211,-3.27478384971619,0.49895629286766,3.10527110099792,3.28864526748657,0.98384797573090
385,3967080591,0.114726,-0.682153,0.107020,-0.714177,9.54431438446045,-3.26819586753845,0.50615370273590,2.82003521919250,3.38474440574646,1.18412649631500
386,3967097258,0.114683,-0.682144,0.107053,-0.714187,9.54796886444092,-3.27488803863525,0.46559885144234,2.74434971809387,3.50789046287537,1.14429879188538
387,3967113925,0.114580,-0.682110,0.107156,-0.714221,9.54022502899170,-3.29673957824707,0.47484815120697,2.75086832046509,3.65690517425537,1.21894693374634
388,3967130592,0.114536,-0.682079,0.107170,-0.714255,9.53958511352539,-3.32359623908997,0.46908032894135,3.11899924278259,3.62692475318909,1.06874108314514
389,3967147259,0.114547,-0.682069,0.107105,-0.714274,9.54474067687988,-3.29100275039673,0.46144467592239,3.35199785232544,3.47998476028442,0.94592815637589
390,3967163926,0.114516,-0.682061,0.107086,-0.714289,9.54256725311279,-3.28418898582458,0.48092433810234,3.27838039398193,3.41200256347656,0.96940863132477
391,3967180593,0.114479,-0.682065,0.107054,-0.714296,9.54612255096436,-3.26159524917603,0.47968417406082,3.32047533988953,3.29456830024719,0.88624435663223
392,3967197260,0.114396,-0.682061,0.107056,-0.714312,9.53295803070068,-3.25188755989075,0.46567180752754,3.08138108253479,3.40020823478699,0.81614238023758
393,3967213927,0.114356,-0.682050,0.107010,-0.714337,9.49222469329834,-3.25851106643677,0.46951529383659,3.19937920570374,3.50944662094116,0.79346239566803
394,3967230594,0.114331,-0.682069,0.106922,-0.714336,9.46836376190186,-3.24792742729187,0.45887306332588,3.15706038475037,3.28411197662354,0.64478701353073
395,3967247261,0.114350,-0.682065,0.106797,-0.714355,9.53103542327881,-3.27038955688477,0.42069634795189,3.39575695991516,3.48710489273071,0.67539405822754
396,3967263928,0.114321,-0.682036,0.106665,-0.714407,9.58804607391357,-3.31993055343628,0.41896983981133,3.71037149429321,3.64616036415100,0.43286752700806
397,3967280595,0.114233,-0.682059,0.106505,-0.714423,9.56247138977051,-3.26199650764465,0.47007244825363,3.50630187988281,3.24856138229370,0.00030735245673
398,3967297262,0.114072,-0.682137,0.106378,-0.714393,9.54166412353516,-3.24459958076477,0.49525260925293,2.93141174316406,2.83725953102112,-0.20759731531143
399,3967313929,0.113919,-0.682227,0.106259,-0.714350,9.49694633483887,-3.26636981964111,0.44459420442581,2.89850020408630,2.71591973304749,-0.13017016649246
400,3967330596,0.113767,-0.682311,0.106179,-0.714306,9.53347969055176,-3.25275087356567,0.49011814594269,2.99270343780518,2.68870639801025,0.07799068093300
401,3967347263,0.113673,-0.682343,0.106101,-0.714301,9.61014080047607,-3.23972797393799,0.49917173385620,3.16813707351685,3.13998889923096,0.36790081858635
402,3967363930,0.113569,-0.682298,0.106090,-0.714362,9.62481117248535,-3.22857570648193,0.50671279430389,3.06336855888367,3.82757496833801,0.65074187517166
403,3967380597,0.113461,-0.682271,0.106110,-0.714403,9.59648227691650,-3.20712709426880,0.50135582685471,2.31213569641113,3.85021686553955,0.74237138032913
404,3967397264,0.113285,-0.682248,0.106222,-0.714436,9.56315994262695,-3.23115134239197,0.48898619413376,1.76233315467834,3.84189224243164,0.86408293247223
405,3967413931,0.113118,-0.682230,0.106338,-0.714462,9.54126262664795,-3.24694061279297,0.46478977799416,1.78082537651062,3.77546525001526,0.92547643184662
406,3967430598,0.112958,-0.682194,0.106470,-0.714502,9.52502727508545,-3.28026556968689,0.44976449012756,2.22404074668884,3.80398559570312,1.06279909610748
407,3967447265,0.112848,-0.682156,0.106489,-0.714553,9.53051853179932,-3.26685380935669,0.44888204336166,2.72198987007141,3.81971216201782,0.75364094972610
408,3967463932,0.112766,-0.682126,0.106442,-0.714601,9.54788875579834,-3.25463652610779,0.44427698850632,2.98750996589661,3.76175618171692,0.57416623830795
409,3967480599,0.112675,-0.682137,0.106364,-0.714616,9.52598857879639,-3.24223470687866,0.46318402886391,3.27566623687744,3.31308627128601,0.38701432943344
410,3967497266,0.112625,-0.682192,0.106256,-0.714589,9.49918079376221,-3.20642757415771,0.42964646220207,3.22477984428406,2.94414162635803,0.42718142271042
411,3967513933,0.112580,-0.682235,0.106158,-0.714569,9.54404067993164,-3.21375155448914,0.41678720712662,3.33295488357544,3.00360131263733,0.51779913902283
412,3967530600,0.112469,-0.682255,0.106097,-0.714576,9.57479858398438,-3.21412539482117,0.45599305629730,3.15640687942505,3.24260663986206,0.36888697743416
413,3967547267,0.112376,-0.682299,0.106037,-0.714558,9.58387470245361,-3.19627809524536,0.48029327392578,2.59263277053833,3.17561602592468,0.43582567572594
414,3967563934,0.112176,-0.682340,0.106074,-0.714544,9.58541584014893,-3.19026613235474,0.48375028371811,2.16055965423584,3.19519758224487,0.39407703280449
415,3967580601,0.112000,-0.682407,0.106121,-0.714502,9.56227016448975,-3.20972895622253,0.47086092829704,2.07542276382446,2.95580792427063,0.55450218915939
416,3967597268,0.111865,-0.682494,0.106175,-0.714431,9.56451225280762,-3.25110101699829,0.47448158264160,1.93881726264954,2.77987432479858,0.77982980012894
417,3967613935,0.111773,-0.682542,0.106157,-0.714402,9.56747245788574,-3.25131630897522,0.45780697464943,2.77158856391907,3.02067184448242,0.66111499071121
418,3967630602,0.111727,-0.682558,0.106106,-0.714402,9.55175590515137,-3.24986100196838,0.43547922372818,3.46876645088196,3.16556358337402,0.75293666124344
419,3967647269,0.111741,-0.682575,0.106001,-0.714399,9.56932544708252,-3.20794892311096,0.44543185830116,3.50047492980957,3.22189855575562,0.76820170879364
420,3967663936,0.111675,-0.682597,0.105989,-0.714390,9.57915973663330,-3.17809677124023,0.43339917063713,3.11510634422302,3.14967060089111,0.83543497323990
421,3967680603,0.111563,-0.682606,0.106043,-0.714391,9.58571815490723,-3.20011806488037,0.45732280611992,2.63570046424866,3.34139442443848,0.92319697141647
422,3967697270,0.111360,-0.682627,0.106200,-0.714379,9.59298610687256,-3.19391393661499,0.45989432930946,2.09075212478638,3.23581933975220,0.98553848266602
423,3967713937,0.111226,-0.682671,0.106290,-0.714345,9.57169437408447,-3.21203565597534,0.46489697694778,1.85131168365479,3.18286466598511,0.95796638727188
424,3967730604,0.111070,-0.682703,0.106405,-0.714321,9.57881832122803,-3.25035047531128,0.45889362692833,2.16679000854492,3.16647934913635,0.99859446287155
425,3967747271,0.111069,-0.682732,0.106340,-0.714303,9.55988788604736,-3.26602816581726,0.46040752530098,2.91510915756226,3.22896742820740,0.86505603790283
426,3967763938,0.110996,-0.682737,0.106324,-0.714312,9.54922008514404,-3.23154425621033,0.44989654421806,3.27583932876587,3.27969384193420,0.78687345981598
427,3967780605,0.110980,-0.682738,0.106267,-0.714322,9.55160713195801,-3.19981694221497,0.46102049946785,3.35053849220276,3.35680079460144,0.85879391431808
428,3967797272,0.111035,-0.682751,0.106177,-0.714315,9.54840183258057,-3.19778585433960,0.47314363718033,3.10709595680237,3.36392784118652,1.01619040966034
429,3967813939,0.110947,-0.682741,0.106219,-0.714332,9.54935932159424,-3.19976234436035,0.46518328785896,2.89493989944458,3.45940542221069,0.99087870121002
430,3967830606,0.110844,-0.682738,0.106277,-0.714343,9.55154132843018,-3.20452570915222,0.44931483268738,2.57125878334045,3.46962404251099,0.97740614414215
431,3967847273,0.110784,-0.682732,0.106268,-0.714358,9.56141376495361,-3.21239256858826,0.44901451468468,2.55791497230530,3.59449934959412,0.85122531652451
432,3967863940,0.110705,-0.682731,0.106273,-0.714371,9.57032203674316,-3.22074389457703,0.43723911046982,2.75833392143250,3.46817708015442,0.83827799558640
433,3967880607,0.110622,-0.682718,0.106272,-0.714396,9.56238365173340,-3.23076558113098,0.42604377865791,3.17559099197388,3.47000861167908,0.80349612236023
434,3967897274,0.110609,-0.682709,0.106211,-0.714416,9.55009269714355,-3.20963859558105,0.47025686502457,3.40030384063721,3.44512605667114,0.85719305276871
435,3967913941,0.110591,-0.682711,0.106154,-0.714425,9.59892368316650,-3.17605066299438,0.44008159637451,3.34980845451355,3.34307241439819,0.84237617254257
436,3967930608,0.110550,-0.682704,0.106141,-0.714440,9.55702114105225,-3.19166779518127,0.46115633845329,3.02792096138000,3.47079038619995,0.94448125362396
437,3967947275,0.110476,-0.682704,0.106159,-0.714449,9.55286026000977,-3.17877674102783,0.45316576957703,2.71851921081543,3.45742011070251,0.92401647567749
438,3967963942,0.110370,-0.682717,0.106189,-0.714449,9.55462074279785,-3.18829298019409,0.44978129863739,2.48706960678101,3.37944197654724,0.82289755344391
439,3967980609,0.110272,-0.682732,0.106235,-0.714443,9.54878139495850,-3.19431400299072,0.45223376154900,2.44190192222595,3.35402131080627,0.94043433666229
440,3967997276,0.110190,-0.682714,0.106271,-0.714468,9.53955364227295,-3.21893620491028,0.42606377601624,2.61464715003967,3.63489055633545,0.96967130899429
441,3968013943,0.110161,-0.682712,0.106245,-0.714477,9.50899791717529,-3.19192576408386,0.47084298729897,3.14649510383606,3.40045762062073,0.94375115633011
442,3968030610,0.110148,-0.682725,0.106227,-0.714470,9.54369926452637,-3.18574476242065,0.44544306397438,3.15916013717651,3.23923873901367,1.05558907985687
443,3968047277,0.110123,-0.682712,0.106199,-0.714491,9.64369773864746,-3.21825861930847,0.41962036490440,3.18846082687378,3.50637841224670,0.94872003793716
444,3968063944,0.110051,-0.682724,0.106183,-0.714492,9.67247200012207,-3.20018982887268,0.45029434561729,2.87722826004028,3.33171296119690,0.77908712625504
445,3968080611,0.109888,-0.682761,0.106254,-0.714471,9.62556743621826,-3.18329262733459,0.47098425030708,1.98507392406464,3.23645925521851,0.72705489397049
446,3968097278,0.109729,-0.682797,0.106324,-0.714451,9.55200672149658,-3.23190665245056,0.44765150547028,2.04576349258423,3.23491001129150,0.75129747390747
447,3968113945,0.109665,-0.682814,0.106291,-0.714450,9.50195312500000,-3.26497626304626,0.47579649090767,2.98176646232605,3.28340744972229,0.73082000017166
448,3968130612,0.109754,-0.682815,0.106139,-0.714457,9.54498100280762,-3.24082708358765,0.48365917801857,4.31460046768188,3.19454431533813,0.92967700958252
449,3968147279,0.109868,-0.682771,0.105984,-0.714505,9.59927558898926,-3.18512797355652,0.46288859844208,4.80519962310791,3.49883627891541,1.05279731750488
450,3968163946,0.109965,-0.682707,0.105878,-0.714567,9.61689186096191,-3.13360524177551,0.46622818708420,4.21165037155151,3.79201173782349,1.19038867950439
451,3968180613,0.109941,-0.682676,0.105909,-0.714595,9.58028984069824,-3.11832451820374,0.44608587026596,2.92239594459534,3.67289924621582,1.23836100101471
452,3968197280,0.109857,-0.682667,0.106046,-0.714596,9.55729866027832,-3.15182781219482,0.42565637826920,2.08529639244080,3.55806469917297,1.44859015941620
453,3968213947,0.109762,-0.682677,0.106207,-0.714578,9.55738162994385,-3.19927787780762,0.42746278643608,1.88783502578735,3.39881777763367,1.50588560104370
454,3968230614,0.109736,-0.682679,0.106306,-0.714566,9.56808185577393,-3.20525002479553,0.44637885689735,2.48002648353577,3.39008450508118,1.55380725860596
455,3968247281,0.109798,-0.682675,0.106308,-0.714559,9.59096908569336,-3.21911525726318,0.45190674066544,2.98112654685974,3.42755556106567,1.50619339942932
456,3968263948,0.109800,-0.682680,0.106311,-0.714554,9.58665084838867,-3.22249817848206,0.44146975874901,3.21626400947571,3.27316236495972,1.24080741405487
457,3968280615,0.109800,-0.682715,0.106285,-0.714524,9.52058124542236,-3.21525239944458,0.46449312567711,3.34708094596863,2.97427511215210,1.09051203727722
458,3968297282,0.109811,-0.682735,0.106261,-0.714507,9.53491687774658,-3.21141505241394,0.43468740582466,3.61698698997498,3.03664135932922,1.17219066619873
459,3968313949,0.109895,-0.682721,0.106198,-0.714517,9.59271240234375,-3.23469471931458,0.43555644154549,3.79750537872314,3.37485766410828,1.32763445377350
460,3968330616,0.109923,-0.682689,0.106190,-0.714544,9.61087417602539,-3.17842388153076,0.45054614543915,3.49975800514221,3.55743765830994,1.31934869289398
461,3968347283,0.109901,-0.682661,0.106214,-0.714571,9.59601020812988,-3.17196488380432,0.45426034927368,2.90437746047974,3.67028665542603,1.20926499366760
462,3968363950,0.109758,-0.682634,0.106328,-0.714601,9.58372974395752,-3.20412921905518,0.45811936259270,2.39316082000732,3.67168259620667,1.06986808776855
463,3968380617,0.109637,-0.682632,0.106438,-0.714605,9.57061672210693,-3.21602535247803,0.47192269563675,2.18462228775024,3.50091028213501,1.13681972026825
464,3968397284,0.109586,-0.682630,0.106460,-0.714612,9.57354259490967,-3.22707843780518,0.43209806084633,2.73579478263855,3.46516799926758,1.05557620525360
465,3968413951,0.109703,-0.682581,0.106330,-0.714661,9.57561969757080,-3.21288633346558,0.45907962322235,3.74525570869446,3.83582234382629,1.13706302642822
466,3968430618,0.109765,-0.682518,0.106215,-0.714728,9.56259727478027,-3.18739843368530,0.44153031706810,4.13973569869995,3.82434129714966,0.97805303335190
467,3968447285,0.109857,-0.682470,0.106069,-0.714781,9.57960700988770,-3.15941023826599,0.44009593129158,3.91362714767456,3.79155707359314,0.94706165790558
468,3968463952,0.109846,-0.682443,0.106032,-0.714814,9.56601142883301,-3.14463329315186,0.42778843641281,3.29131507873535,3.62308931350708,0.97296887636185
469,3968480619,0.109769,-0.682445,0.106102,-0.714814,9.58136081695557,-3.12810111045837,0.43057057261467,2.49520206451416,3.42394447326660,1.16309833526611
470,3968497286,0.109697,-0.682467,0.106180,-0.714793,9.58259487152100,-3.18024754524231,0.43823042511940,2.24420380592346,3.30286622047424,1.21573889255524
471,3968513953,0.109625,-0.682483,0.106262,-0.714776,9.58213996887207,-3.19732499122620,0.47112905979156,2.38053369522095,3.29917168617249,1.24106323719025
472,3968530620,0.109625,-0.682493,0.106299,-0.714761,9.58837795257568,-3.19572877883911,0.46182617545128,2.94771456718445,3.25254440307617,1.39258825778961
473,3968547287,0.109685,-0.682495,0.106301,-0.714749,9.60676002502441,-3.19372081756592,0.46163368225098,3.40460658073425,3.23658752441406,1.52495455741882
474,3968563954,0.109775,-0.682477,0.106290,-0.714755,9.60696697235107,-3.19069433212280,0.45826178789139,3.64615988731384,3.38946962356567,1.60801672935486
475,3968580621,0.109835,-0.682442,0.106305,-0.714777,9.57315063476562,-3.20257616043091,0.46348601579666,3.39963841438293,3.58821177482605,1.58458101749420
476,3968597288,0.109869,-0.682397,0.106347,-0.714808,9.56764030456543,-3.19491982460022,0.48151513934135,3.15405011177063,3.71417403221130,1.58975458145142
477,3968613955,0.109871,-0.682361,0.106423,-0.714831,9.55784416198730,-3.21748399734497,0.44637030363083,2.83272600173950,3.69504141807556,1.58207070827484
478,3968630622,0.109837,-0.682306,0.106506,-0.714876,9.58045959472656,-3.21880459785461,0.44386884570122,2.77379131317139,3.87059140205383,1.44477391242981
479,3968647289,0.109832,-0.682251,0.106556,-0.714922,9.55792522430420,-3.20991015434265,0.43512913584709,2.90450572967529,3.89561510086060,1.42541074752808
480,3968663956,0.109831,-0.682177,0.106608,-0.714986,9.55601215362549,-3.20574736595154,0.44074019789696,3.19494128227234,3.98190474510193,1.46678829193115
481,3968680623,0.109794,-0.682118,0.106659,-0.715039,9.54237079620361,-3.19459795951843,0.46170011162758,3.31350255012512,3.79258799552917,1.29961407184601
482,3968697290,0.109790,-0.682102,0.106650,-0.715057,9.56064128875732,-3.18265819549561,0.44528004527092,3.20062685012817,3.50265169143677,1.14947223663330
483,3968713957,0.109853,-0.682098,0.106562,-0.715064,9.57178211212158,-3.18716144561768,0.44523158669472,3.14767289161682,3.51698207855225,1.06309342384338
484,3968730624,0.109762,-0.682094,0.106629,-0.715072,9.56338024139404,-3.17086267471313,0.44570082426071,3.06066679954529,3.31397628784180,1.10996472835541
485,3968747291,0.109757,-0.682100,0.106620,-0.715068,9.57615566253662,-3.18536925315857,0.42788541316986,3.06814575195312,3.32623219490051,1.13941955566406
486,3968763958,0.109715,-0.682106,0.106658,-0.715063,9.57265663146973,-3.15790224075317,0.45037898421288,2.77292084693909,3.34472417831421,1.18016910552979
487,3968780625,0.109666,-0.682108,0.106725,-0.715059,9.56206321716309,-3.16955757141113,0.46302369236946,2.72921252250671,3.36011719703674,1.29410731792450
488,3968797292,0.109632,-0.682115,0.106774,-0.715050,9.57751750946045,-3.17877697944641,0.46723860502243,2.59894657135010,3.37949347496033,1.26954472064972
489,3968813959,0.109604,-0.682126,0.106816,-0.715038,9.58138179779053,-3.21955037117004,0.47618710994720,2.68944859504700,3.31827878952026,1.26456296443939
490,3968830626,0.109605,-0.682139,0.106840,-0.715021,9.55758476257324,-3.20061922073364,0.45472425222397,3.00983190536499,3.21546363830566,1.33579850196838
491,3968847293,0.109676,-0.682136,0.106760,-0.715025,9.53635883331299,-3.20090723037720,0.47895416617393,3.51045083999634,3.38594746589661,1.16003763675690
492,3968863960,0.109719,-0.682139,0.106709,-0.715023,9.49711513519287,-3.17092800140381,0.47626614570618,3.62125158309937,3.24188923835754,1.18810904026031
493,3968880627,0.109752,-0.682131,0.106683,-0.715030,9.56906127929688,-3.19359326362610,0.44758296012878,3.36558580398560,3.40008616447449,1.24714648723602
494,3968897294,0.109730,-0.682108,0.106693,-0.715054,9.65800380706787,-3.22136044502258,0.41637569665909,3.27284216880798,3.52248907089233,1.16446864604950
495,3968913961,0.109759,-0.682120,0.106581,-0.715055,9.63810634613037,-3.18945884704590,0.44396778941154,2.91340613365173,3.46816444396973,0.76498740911484
496,3968930628,0.109626,-0.682160,0.106614,-0.715032,9.58811950683594,-3.19317531585693,0.46421289443970,2.16076445579529,3.21416401863098,0.69095391035080
497,3968947295,0.109522,-0.682208,0.106629,-0.715000,9.51344108581543,-3.24755239486694,0.45866736769676,2.53401827812195,3.04782199859619,0.76038986444473
498,3968963962,0.109590,-0.682243,0.106494,-0.714976,9.49959850311279,-3.22925901412964,0.46668794751167,3.76574540138245,3.00846767425537,0.88758248090744
499,3968980629,0.109762,-0.682235,0.106289,-0.714988,9.55493068695068,-3.18716788291931,0.46692523360252,4.94408416748047,3.17017388343811,1.09062743186951
500,3968997296,0.109916,-0.682183,0.106128,-0.715038,9.61619186401367,-3.14113783836365,0.46420311927795,4.90925025939941,3.54615521430969,1.22017621994019
501,3969013963,0.109994,-0.682142,0.106050,-0.715077,9.60593891143799,-3.11386680603027,0.45903444290161,3.81729149818420,3.65941524505615,1.22470986843109
502,3969030630,0.109939,-0.682131,0.106131,-0.715084,9.57454490661621,-3.11727094650269,0.46856543421745,2.73675560951233,3.46419525146484,1.33329474925995
503,3969047297,0.109855,-0.682154,0.106297,-0.715049,9.57030200958252,-3.15321230888367,0.45592567324638,1.89359807968140,3.25784564018250,1.58775675296783
504,3969063964,0.109740,-0.682164,0.106500,-0.715028,9.58617305755615,-3.20410656929016,0.41587135195732,1.67779815196991,3.40939593315125,1.61018073558807
505,3969080631,0.109624,-0.682165,0.106679,-0.715018,9.57458972930908,-3.21988248825073,0.44708159565926,2.17080426216125,3.37625312805176,1.51258361339569
506,3969097298,0.109645,-0.682194,0.106688,-0.714985,9.57045364379883,-3.22863888740540,0.45779335498810,3.07864665985107,3.06194710731506,1.35625672340393
507,3969113965,0.109685,-0.682250,0.106608,-0.714938,9.54968357086182,-3.21386361122131,0.45857480168343,3.64998960494995,2.76504492759705,1.02708220481873
508,3969130632,0.109774,-0.682320,0.106492,-0.714875,9.50831604003906,-3.18347477912903,0.46812933683395,3.85198378562927,2.60929417610168,1.09134447574615
509,3969147299,0.109946,-0.682356,0.106359,-0.714834,9.56323337554932,-3.19099354743958,0.43277445435524,3.96231102943420,2.93064403533936,1.40923655033112
510,3969163966,0.109947,-0.682345,0.106381,-0.714840,9.60712814331055,-3.19352698326111,0.42291831970215,3.64243412017822,3.26610612869263,1.35074985027313
511,3969180633,0.109939,-0.682328,0.106396,-0.714856,9.59357166290283,-3.16850042343140,0.47597050666809,3.14132046699524,3.50106406211853,1.24829888343811
512,3969197300,0.109866,-0.682321,0.106464,-0.714864,9.56980133056641,-3.16956925392151,0.47104120254517,2.58096623420715,3.48597836494446,1.17368912696838
513,3969213967,0.109743,-0.682339,0.106596,-0.714846,9.58215522766113,-3.18906903266907,0.45103368163109,2.16615557670593,3.28142237663269,1.24270260334015
514,3969230634,0.109650,-0.682359,0.106706,-0.714824,9.59600448608398,-3.23774147033691,0.44455477595329,2.14868760108948,3.29830098152161,1.27220845222473
515,3969247301,0.109630,-0.682356,0.106712,-0.714830,9.56629371643066,-3.25173234939575,0.44425889849663,3.04914116859436,3.40084218978882,1.13726806640625
516,3969263968,0.109671,-0.682332,0.106640,-0.714857,9.55229949951172,-3.19456219673157,0.43873322010040,3.81005597114563,3.48172664642334,1.08038210868835
517,3969280635,0.109725,-0.682304,0.106553,-0.714888,9.55667495727539,-3.17219257354736,0.43846589326859,3.88034963607788,3.52558827400208,1.06752455234528
518,3969297302,0.109795,-0.682277,0.106438,-0.714920,9.55927181243896,-3.16657662391663,0.43818914890289,3.76864027976990,3.59027314186096,0.99000775814056
519,3969313969,0.109800,-0.682267,0.106404,-0.714935,9.59429073333740,-3.15194201469421,0.43075695633888,3.28321480751038,3.46023702621460,1.07053399085999
520,3969330636,0.109746,-0.682264,0.106432,-0.714941,9.57823276519775,-3.14947414398193,0.42734286189079,2.59326028823853,3.50493168830872,1.06459188461304
521,3969347303,0.109645,-0.682269,0.106516,-0.714940,9.58904552459717,-3.17089152336121,0.46425667405128,2.25779771804810,3.45478177070618,1.10850477218628
522,3969363970,0.109531,-0.682282,0.106616,-0.714930,9.58439254760742,-3.19634413719177,0.44797167181969,2.06399941444397,3.40609169006348,1.11470305919647
523,3969380637,0.109454,-0.682286,0.106686,-0.714928,9.57932376861572,-3.22331714630127,0.46615278720856,2.50686860084534,3.40339016914368,1.16043460369110
524,3969397304,0.109431,-0.682284,0.106687,-0.714933,9.57055282592773,-3.22635364532471,0.47408598661423,3.04396700859070,3.39886951446533,1.10404837131500
525,3969413971,0.109458,-0.682278,0.106630,-0.714943,9.58293819427490,-3.20533537864685,0.48519679903984,3.59681701660156,3.35146021842957,1.07365870475769
526,3969430638,0.109513,-0.682271,0.106569,-0.714950,9.57564640045166,-3.19658350944519,0.46721601486206,3.72185897827148,3.32881903648376,1.19435882568359
527,3969447305,0.109559,-0.682260,0.106511,-0.714962,9.57296466827393,-3.18086481094360,0.48567539453506,3.51591920852661,3.42553162574768,1.16138219833374
528,3969463972,0.109560,-0.682233,0.106510,-0.714988,9.56776714324951,-3.17205023765564,0.45793518424034,3.19967961311340,3.59727835655212,1.21023857593536
529,3969480639,0.109509,-0.682199,0.106584,-0.715017,9.55177116394043,-3.17117786407471,0.43952009081841,2.86086130142212,3.66718745231628,1.32205069065094
530,3969497306,0.109514,-0.682168,0.106636,-0.715038,9.54414367675781,-3.17917537689209,0.45839178562164,2.54505753517151,3.76376128196716,1.46610963344574
531,3969513973,0.109451,-0.682143,0.106710,-0.715061,9.55594062805176,-3.20307326316833,0.44935816526413,2.76177930831909,3.60049295425415,1.26285994052887
532,3969530640,0.109458,-0.682142,0.106704,-0.715062,9.56469058990479,-3.19851517677307,0.44493958353996,3.12337970733643,3.37832808494568,1.21440064907074
533,3969547307,0.109452,-0.682135,0.106697,-0.715070,9.58597755432129,-3.18850684165955,0.45178115367889,3.40803885459900,3.34086942672729,1.16142070293427
534,3969563974,0.109490,-0.682131,0.106661,-0.715073,9.56869316101074,-3.17019605636597,0.45723718404770,3.51251292228699,3.32579636573792,1.23038280010223
535,3969580641,0.109444,-0.682128,0.106701,-0.715078,9.56172561645508,-3.17046523094177,0.46131366491318,3.37529253959656,3.25563025474548,1.20320773124695
536,3969597308,0.109445,-0.682140,0.106717,-0.715064,9.58843040466309,-3.15181922912598,0.45544919371605,2.96153259277344,3.26549124717712,1.29126429557800
537,3969613975,0.109412,-0.682169,0.106773,-0.715032,9.58360290527344,-3.17455935478210,0.44541236758232,2.67511844635010,3.11775708198547,1.31624937057495
538,3969630642,0.109348,-0.682194,0.106866,-0.715004,9.59026527404785,-3.19254994392395,0.45813861489296,2.35748219490051,3.21265196800232,1.33654737472534
539,3969647309,0.109272,-0.682213,0.106951,-0.714985,9.58661746978760,-3.20385527610779,0.43983575701714,2.35242390632629,3.28041028976440,1.23066461086273
540,3969663976,0.109221,-0.682232,0.107021,-0.714964,9.54102134704590,-3.21351909637451,0.45103251934052,2.53966569900513,3.24629449844360,1.29169964790344
541,3969680643,0.109204,-0.682241,0.107031,-0.714957,9.51300239562988,-3.19033288955688,0.48449996113777,3.01571655273438,3.28877353668213,1.17765927314758
542,3969697310,0.109227,-0.682269,0.107025,-0.714927,9.49220657348633,-3.17968106269836,0.47260811924934,3.21041154861450,3.06265163421631,1.29835903644562
543,3969713977,0.109269,-0.682262,0.106996,-0.714932,9.58274555206299,-3.20160770416260,0.42988622188568,3.61022543907166,3.31416821479797,1.28515565395355
544,3969730644,0.109374,-0.682258,0.106868,-0.714939,9.66886806488037,-3.20249390602112,0.40308815240860,3.72097492218018,3.40006041526794,1.09370076656342
545,3969747311,0.109241,-0.682278,0.106916,-0.714933,9.67946720123291,-3.15609264373779,0.42889913916588,2.80181169509888,3.18807697296143,0.80694091320038
546,3969763978,0.109068,-0.682337,0.107007,-0.714890,9.57607746124268,-3.17427563667297,0.48376521468163,1.81830966472626,3.05728578567505,0.77092951536179
547,3969780645,0.108916,-0.682400,0.107122,-0.714835,9.51712894439697,-3.22880268096924,0.48248615860939,1.83694291114807,2.96151971817017,1.00844883918762
548,3969797312,0.108899,-0.682424,0.107115,-0.714816,9.51116371154785,-3.25304555892944,0.47326031327248,2.96388888359070,3.17466855049133,1.08287930488586
549,3969813979,0.108979,-0.682383,0.107030,-0.714856,9.54594707489014,-3.21357083320618,0.48502254486084,4.41399049758911,3.49179196357727,1.22869241237640
550,3969830646,0.109119,-0.682298,0.106893,-0.714936,9.56848239898682,-3.15781807899475,0.47829258441925,4.79914140701294,3.87170600891113,1.26899421215057
551,3969847313,0.109195,-0.682236,0.106841,-0.714991,9.58867263793945,-3.12183046340942,0.46761626005173,3.91741156578064,3.79882454872131,1.35099315643311
552,3969863980,0.109149,-0.682225,0.106920,-0.714997,9.59231185913086,-3.12043905258179,0.44538900256157,2.77705717086792,3.45028734207153,1.37257194519043
553,3969880647,0.109052,-0.682229,0.107098,-0.714981,9.60889148712158,-3.14497256278992,0.41009518504143,2.23752546310425,3.33059835433960,1.60056316852570
554,3969897314,0.108953,-0.682233,0.107283,-0.714965,9.60309219360352,-3.19898796081543,0.42396187782288,1.98818564414978,3.39583396911621,1.61366403102875
555,3969913981,0.108885,-0.682263,0.107441,-0.714923,9.57583522796631,-3.17845535278320,0.44432353973389,1.91545891761780,3.19486474990845,1.62367904186249
556,3969930648,0.108757,-0.682305,0.107627,-0.714874,9.57531642913818,-3.19050621986389,0.44536927342415,2.08126258850098,2.98769617080688,1.48816215991974
557,3969947315,0.108725,-0.682355,0.107711,-0.714819,9.52769565582275,-3.19697427749634,0.45804050564766,2.51626849174500,2.92340755462646,1.45208621025085
558,3969963982,0.108724,-0.682380,0.107759,-0.714788,9.47981929779053,-3.20011615753174,0.43941152095795,2.87546086311340,3.11812829971313,1.43863964080811
559,3969980649,0.108806,-0.682351,0.107740,-0.714806,9.54911041259766,-3.21371912956238,0.43536025285721,3.66828966140747,3.50019359588623,1.53525114059448
560,3969997316,0.108873,-0.682314,0.107733,-0.714832,9.59343433380127,-3.18657302856445,0.46826970577240,3.55029177665710,3.59432005882263,1.51006078720093
561,3970013983,0.108854,-0.682292,0.107805,-0.714844,9.60214996337891,-3.14098811149597,0.42603039741516,2.73867678642273,3.57947754859924,1.46879887580872
562,3970030650,0.108785,-0.682288,0.107934,-0.714840,9.60033988952637,-3.18098521232605,0.41330447793007,2.19769763946533,3.49426388740540,1.48095202445984
563,3970047317,0.108680,-0.682333,0.108077,-0.714791,9.58772373199463,-3.20861721038818,0.44289723038673,1.89391863346100,3.08250164985657,1.37001073360443
564,3970063984,0.108574,-0.682375,0.108216,-0.714746,9.56935596466064,-3.20990967750549,0.45483583211899,1.91170656681061,3.11112380027771,1.34739470481873
565,3970080651,0.108568,-0.682376,0.108263,-0.714739,9.55566406250000,-3.25430631637573,0.44459575414658,2.88548874855042,3.34856653213501,1.40918529033661
566,3970097318,0.108584,-0.682347,0.108267,-0.714764,9.53987312316895,-3.21742773056030,0.44390991330147,3.55666875839233,3.50604534149170,1.32317757606506
567,3970113985,0.108516,-0.682293,0.108333,-0.714815,9.54556941986084,-3.18333482742310,0.44180902838707,3.66671419143677,3.60874032974243,1.25088596343994
568,3970130652,0.108484,-0.682254,0.108361,-0.714853,9.57334518432617,-3.17793488502502,0.43811577558517,3.18187856674194,3.68824148178101,1.19849514961243
569,3970147319,0.108437,-0.682235,0.108398,-0.714873,9.57231140136719,-3.17742133140564,0.43618944287300,2.64166212081909,3.63911080360413,1.14240980148315
570,3970163986,0.108319,-0.682228,0.108517,-0.714880,9.57627296447754,-3.20238447189331,0.41908600926399,2.46788620948792,3.45243835449219,1.21977925300598
571,3970180653,0.108200,-0.682230,0.108624,-0.714879,9.57925891876221,-3.21647214889526,0.43569090962410,2.44811296463013,3.38296365737915,1.14400410652161
572,3970197320,0.108172,-0.682240,0.108628,-0.714874,9.56975555419922,-3.19988369941711,0.43531733751297,2.78686642646790,3.36769843101501,1.07938313484192
573,3970213987,0.108238,-0.682248,0.108540,-0.714869,9.59109306335449,-3.21308517456055,0.43716490268707,3.18437647819519,3.38743376731873,1.08275151252747
574,3970230654,0.108221,-0.682242,0.108497,-0.714884,9.59605121612549,-3.19122648239136,0.45159929990768,3.34751582145691,3.41704154014587,0.92455446720123
575,3970247321,0.108169,-0.682244,0.108493,-0.714891,9.56893730163574,-3.17746710777283,0.47611877322197,3.08370518684387,3.35837578773499,0.93906414508820
576,3970263988,0.108109,-0.682262,0.108515,-0.714879,9.53491020202637,-3.17770147323608,0.47328457236290,2.98750376701355,3.18746232986450,1.03284502029419
577,3970280655,0.108087,-0.682280,0.108521,-0.714864,9.56302642822266,-3.18904399871826,0.44909307360649,3.11820578575134,3.17524528503418,1.13078796863556
578,3970297322,0.108110,-0.682286,0.108487,-0.714861,9.57543087005615,-3.19628071784973,0.44324418902397,3.12772107124329,3.35329222679138,1.14726984500885
579,3970313989,0.108106,-0.682290,0.108467,-0.714860,9.57433319091797,-3.18880701065063,0.42881307005882,3.15183496475220,3.33700203895569,1.09348297119141
580,3970330656,0.108094,-0.682299,0.108459,-0.714855,9.58023071289062,-3.17911815643311,0.44868814945221,3.12553095817566,3.28097438812256,1.11365318298340
581,3970347323,0.108064,-0.682300,0.108469,-0.714857,9.58718967437744,-3.19623970985413,0.43636766076088,2.96789741516113,3.38202929496765,1.11147606372833
582,3970363990,0.108042,-0.682305,0.108469,-0.714856,9.56984519958496,-3.19311738014221,0.43632039427757,3.05193305015564,3.33351922035217,1.09845197200775
583,3970380657,0.108055,-0.682321,0.108446,-0.714841,9.58024311065674,-3.18207144737244,0.43445062637329,3.30903315544128,3.17350363731384,1.16577494144440
584,3970397324,0.108097,-0.682346,0.108384,-0.714821,9.58585166931152,-3.18012619018555,0.43939432501793,3.29803252220154,3.15128445625305,1.10801839828491
585,3970413991,0.108005,-0.682352,0.108465,-0.714817,9.60309791564941,-3.17536330223083,0.43501123785973,3.05426335334778,3.20131897926331,1.17482888698578
586,3970430658,0.107979,-0.682361,0.108492,-0.714808,9.60309600830078,-3.19016218185425,0.44316080212593,2.97578620910645,3.27621030807495,1.21837055683136
587,3970447325,0.107939,-0.682356,0.108534,-0.714812,9.56596755981445,-3.18070340156555,0.43762946128845,3.05113863945007,3.36462569236755,1.22332668304443
588,3970463992,0.107957,-0.682367,0.108547,-0.714797,9.52536010742188,-3.15304231643677,0.43880996108055,2.99799871444702,3.26570272445679,1.35741555690765
589,3970480659,0.107977,-0.682382,0.108592,-0.714773,9.52505111694336,-3.14965438842773,0.46826887130737,2.88327932357788,3.22231483459473,1.52460253238678
590,3970497326,0.107967,-0.682357,0.108673,-0.714786,9.60485076904297,-3.19375348091125,0.38908424973488,3.10131382942200,3.48454403877258,1.56927740573883
591,3970513993,0.107982,-0.682324,0.108681,-0.714814,9.66053867340088,-3.21732783317566,0.40471866726875,3.24754953384399,3.63081765174866,1.33235979080200
592,3970530660,0.107857,-0.682321,0.108759,-0.714824,9.63133907318115,-3.17708110809326,0.44139188528061,2.64864778518677,3.41764307022095,0.98046696186066
593,3970547327,0.107732,-0.682366,0.108860,-0.714785,9.55082130432129,-3.20592188835144,0.45339280366898,2.01196765899658,3.10942077636719,1.06826746463776
594,3970563994,0.107545,-0.682398,0.109031,-0.714755,9.53248977661133,-3.25189185142517,0.46288588643074,2.46081733703613,2.98371362686157,1.14636051654816
595,3970580661,0.107548,-0.682393,0.109002,-0.714765,9.55372333526611,-3.25720787048340,0.44339734315872,3.70554327964783,3.27709412574768,1.11096382141113
596,3970597328,0.107654,-0.682340,0.108916,-0.714813,9.59134101867676,-3.18939733505249,0.45455643534660,4.68513965606689,3.52133703231812,1.35971438884735
597,3970613995,0.107806,-0.682267,0.108812,-0.714875,9.60986042022705,-3.13491702079773,0.45236179232597,4.48593616485596,3.80114197731018,1.47937655448914
598,3970630662,0.107851,-0.682217,0.108823,-0.714914,9.59254264831543,-3.09964752197266,0.43813341856003,3.37812376022339,3.75179982185364,1.48987829685211
599,3970647329,0.107794,-0.682211,0.108988,-0.714903,9.58327198028564,-3.12534546852112,0.44345849752426,2.07747197151184,3.49206113815308,1.71950864791870
600,3970663996,0.107699,-0.682200,0.109227,-0.714892,9.58222293853760,-3.17006802558899,0.42561262845993,1.53943848609924,3.59750890731812,1.88641369342804
601,3970680663,0.107620,-0.682181,0.109470,-0.714885,9.57691478729248,-3.21845936775208,0.41122207045555,1.60477650165558,3.64804244041443,1.98301208019257
602,3970697330,0.107523,-0.682148,0.109684,-0.714898,9.55895709991455,-3.22808241844177,0.43684265017509,2.23148107528687,3.62719368934631,1.77910971641541
603,3970713997,0.107532,-0.682126,0.109757,-0.714906,9.57648468017578,-3.25979971885681,0.43120396137238,2.86525416374207,3.54205703735352,1.61359989643097
604,3970730664,0.107576,-0.682122,0.109743,-0.714905,9.50983810424805,-3.21824264526367,0.43972289562225,3.43582868576050,3.31734442710876,1.36451661586761
605,3970747331,0.107634,-0.682136,0.109702,-0.714890,9.53746604919434,-3.20030283927917,0.41910064220428,3.61144161224365,3.13677453994751,1.30910348892212
606,3970763998,0.107692,-0.682117,0.109676,-0.714904,9.58985328674316,-3.21744251251221,0.40844878554344,3.58709073066711,3.44112396240234,1.38028776645660
607,3970780665,0.107729,-0.682083,0.109661,-0.714933,9.60643577575684,-3.20088481903076,0.41619506478310,3.44904470443726,3.61255621910095,1.32486808300018
608,3970797332,0.107690,-0.682052,0.109696,-0.714962,9.58629608154297,-3.17593812942505,0.44955369830132,2.85042476654053,3.68967580795288,1.18401110172272
609,3970813999,0.107647,-0.682037,0.109734,-0.714978,9.56749820709229,-3.16540479660034,0.42881068587303,2.45511841773987,3.66201448440552,1.16308557987213
610,3970830666,0.107506,-0.682065,0.109874,-0.714951,9.55099773406982,-3.20001649856567,0.44208350777626,1.95997381210327,3.23375749588013,1.18666219711304
611,3970847333,0.107432,-0.682096,0.109954,-0.714920,9.56820869445801,-3.24233555793762,0.44525802135468,2.36379599571228,3.16462826728821,1.22355699539185
612,3970864000,0.107445,-0.682089,0.109925,-0.714929,9.57257747650146,-3.23427033424377,0.45008295774460,3.38383460044861,3.39926600456238,1.13852286338806
613,3970880667,0.107480,-0.682055,0.109853,-0.714967,9.57132720947266,-3.20084190368652,0.42492541670799,3.72491979598999,3.61276125907898,1.04236018657684
614,3970897334,0.107508,-0.682006,0.109786,-0.715020,9.55699443817139,-3.17956781387329,0.45753082633018,3.70043349266052,3.76563072204590,1.03239691257477
615,3970914001,0.107513,-0.681973,0.109786,-0.715050,9.57847976684570,-3.16367006301880,0.43483728170395,3.22347354888916,3.64470005035400,1.24227988719940
616,3970930668,0.107443,-0.681979,0.109832,-0.715049,9.58699703216553,-3.17344784736633,0.41025096178055,2.60491394996643,3.39861297607422,1.08168828487396
617,3970947335,0.107342,-0.681993,0.109935,-0.715034,9.58179092407227,-3.19319415092468,0.42791599035263,2.15573096275330,3.36126971244812,1.20254182815552
618,3970964002,0.107247,-0.682000,0.110041,-0.715025,9.57924938201904,-3.19052267074585,0.43364980816841,2.18003749847412,3.42108821868896,1.23889887332916
619,3970980669,0.107186,-0.681992,0.110099,-0.715034,9.59661960601807,-3.20813131332397,0.45038107037544,2.60465812683105,3.52204132080078,1.18553519248962
620,3970997336,0.107160,-0.681975,0.110108,-0.715052,9.59858036041260,-3.22155451774597,0.47288984060287,3.02456593513489,3.54271078109741,1.12589597702026
621,3971014003,0.107176,-0.681945,0.110100,-0.715080,9.56906604766846,-3.20805573463440,0.46389126777649,3.31493711471558,3.60451412200928,1.25520181655884
622,3971030670,0.107218,-0.681921,0.110085,-0.715098,9.55896949768066,-3.19361138343811,0.43611377477646,3.46486115455627,3.50767230987549,1.35544991493225
623,3971047337,0.107267,-0.681904,0.110063,-0.715110,9.59233760833740,-3.20448899269104,0.44284921884537,3.51530480384827,3.43570065498352,1.35569298267365
624,3971064004,0.107273,-0.681874,0.110055,-0.715140,9.57709312438965,-3.20068478584290,0.44255751371384,3.27444267272949,3.62217354774475,1.20603787899017
625,3971080671,0.107265,-0.681839,0.110096,-0.715169,9.58121967315674,-3.20229578018188,0.43743455410004,2.96525931358337,3.69630980491638,1.36867856979370
626,3971097338,0.107223,-0.681805,0.110157,-0.715198,9.56700325012207,-3.19637155532837,0.46297952532768,2.71326875686646,3.72691702842712,1.29622042179108
627,3971114005,0.107205,-0.681781,0.110222,-0.715213,9.56083965301514,-3.21643328666687,0.44139003753662,2.78796839714050,3.60264444351196,1.43273627758026
628,3971130672,0.107213,-0.681751,0.110242,-0.715237,9.58204460144043,-3.21452474594116,0.43563482165337,3.13995051383972,3.61443877220154,1.35132598876953
629,3971147339,0.107223,-0.681723,0.110236,-0.715263,9.58413219451904,-3.18670606613159,0.44001173973083,3.27819490432739,3.59744453430176,1.24005174636841
630,3971164006,0.107249,-0.681696,0.110220,-0.715288,9.56500053405762,-3.17883396148682,0.43808311223984,3.24651193618774,3.61094212532043,1.25954282283783
631,3971180673,0.107188,-0.681651,0.110291,-0.715328,9.58244609832764,-3.20925474166870,0.43670120835304,3.26492786407471,3.64212632179260,1.28402888774872
632,3971197340,0.107143,-0.681630,0.110350,-0.715347,9.57606983184814,-3.18459987640381,0.44773831963539,3.14398455619812,3.47551512718201,1.29757773876190
633,3971214007,0.107102,-0.681618,0.110434,-0.715351,9.58772563934326,-3.16484832763672,0.44863703846931,2.81871628761292,3.43874835968018,1.42423272132874
634,3971230674,0.107010,-0.681604,0.110563,-0.715358,9.57729911804199,-3.18179512023926,0.43127989768982,2.36231064796448,3.53447580337524,1.37979459762573
635,3971247341,0.106921,-0.681589,0.110677,-0.715369,9.56890678405762,-3.20519709587097,0.43546146154404,2.20116829872131,3.62227654457092,1.31818318367004
636,3971264008,0.107027,-0.681588,0.110599,-0.715365,9.54869747161865,-3.23193311691284,0.46495571732521,2.63124418258667,3.64458465576172,1.29711687564850
637,3971280675,0.107005,-0.681552,0.110623,-0.715399,9.53390789031982,-3.21929955482483,0.46176463365555,3.16849565505981,3.66287207603455,1.22655379772186
638,3971297342,0.107047,-0.681538,0.110608,-0.715408,9.50146389007568,-3.17490482330322,0.47079780697823,3.44155311584473,3.41706681251526,1.35319578647614
639,3971314009,0.107086,-0.681518,0.110605,-0.715422,9.56616592407227,-3.18356156349182,0.42868992686272,3.20140838623047,3.54214692115784,1.38737595081329
640,3971330676,0.107098,-0.681478,0.110604,-0.715459,9.64539146423340,-3.24896216392517,0.39841195940971,3.24566721916199,3.71873402595520,1.26668906211853
641,3971347343,0.107014,-0.681463,0.110644,-0.715479,9.64384078979492,-3.21095204353333,0.44862782955170,2.70343351364136,3.57552027702332,0.98614019155502
642,3971364010,0.106834,-0.681482,0.110744,-0.715473,9.58318424224854,-3.19477725028992,0.46855047345161,2.07820200920105,3.34842586517334,0.80390596389771
643,3971380677,0.106734,-0.681508,0.110797,-0.715455,9.53153038024902,-3.24460268020630,0.45252311229706,2.42486953735352,3.24683213233948,0.96338325738907
644,3971397344,0.106778,-0.681520,0.110707,-0.715451,9.52300834655762,-3.27218914031982,0.44402006268501,3.72000145912170,3.19520998001099,0.99643659591675
645,3971414011,0.106944,-0.681504,0.110494,-0.715474,9.56501102447510,-3.20493412017822,0.46713626384735,4.90836715698242,3.29011821746826,1.02056372165680
646,3971430678,0.107111,-0.681445,0.110319,-0.715533,9.60270500183105,-3.14546179771423,0.46058589220047,4.92898511886597,3.64194703102112,1.22031712532043
647,3971447345,0.107068,-0.681400,0.110363,-0.715574,9.59650707244873,-3.12714719772339,0.47983959317207,3.75903511047363,3.52569079399109,1.26180970668793
648,3971464012,0.106979,-0.681407,0.110485,-0.715562,9.57899761199951,-3.11547279357910,0.44063091278076,2.34120583534241,3.34624814987183,1.35994482040405
649,3971480679,0.106850,-0.681429,0.110704,-0.715527,9.56404113769531,-3.15751194953918,0.44019606709480,1.43506693840027,3.33654117584229,1.60982251167297
650,3971497346,0.106788,-0.681450,0.110882,-0.715489,9.57414436340332,-3.21124124526978,0.42141166329384,1.39831244945526,3.42509651184082,1.72452855110168
651,3971514013,0.106748,-0.681472,0.111018,-0.715453,9.56117439270020,-3.23111629486084,0.45107740163803,2.06776452064514,3.25899815559387,1.65926742553711
652,3971530680,0.106747,-0.681508,0.111082,-0.715408,9.58721256256104,-3.25144624710083,0.46929574012756,2.77705669403076,3.00859594345093,1.50981748104095
653,3971547347,0.106769,-0.681535,0.111087,-0.715379,9.57686614990234,-3.23421597480774,0.44430893659592,3.45291233062744,2.98914313316345,1.35584688186646
654,3971564014,0.106836,-0.681553,0.111031,-0.715360,9.50565338134766,-3.21273565292358,0.45083189010620,3.84423589706421,3.03662896156311,1.28971481323242
655,3971580681,0.106932,-0.681561,0.110966,-0.715348,9.52596282958984,-3.18165493011475,0.44485107064247,3.91555500030518,3.13432908058167,1.38239431381226
656,3971597348,0.106989,-0.681533,0.110956,-0.715368,9.58097457885742,-3.18744683265686,0.43458032608032,3.51506185531616,3.52575469017029,1.45618450641632
657,3971614015,0.106977,-0.681519,0.110980,-0.715379,9.59267139434814,-3.18749165534973,0.44403785467148,2.89582324028015,3.53393793106079,1.25863361358643
658,3971630682,0.106909,-0.681507,0.111066,-0.715388,9.59320545196533,-3.19746780395508,0.45533493161201,2.41153788566589,3.57338118553162,1.28534758090973
659,3971647349,0.106831,-0.681513,0.111168,-0.715378,9.57068824768066,-3.20767283439636,0.44715842604637,2.21645903587341,3.43409943580627,1.30681109428406
660,3971664016,0.106772,-0.681551,0.111241,-0.715339,9.56135177612305,-3.23309946060181,0.46554440259933,2.27307605743408,3.13902878761292,1.25357520580292
661,3971680683,0.106756,-0.681554,0.111260,-0.715336,9.56393146514893,-3.23250675201416,0.45214778184891,2.98968100547791,3.34276509284973,1.22670745849609
662,3971697350,0.106798,-0.681532,0.111203,-0.715359,9.54813575744629,-3.22784519195557,0.46398961544037,3.59449982643127,3.51767444610596,1.14797413349152
663,3971714017,0.106839,-0.681509,0.111129,-0.715387,9.53903675079346,-3.19653844833374,0.42819291353226,3.73516416549683,3.51129627227783,1.05981516838074
664,3971730684,0.106854,-0.681497,0.111050,-0.715408,9.55824851989746,-3.18352246284485,0.42648434638977,3.50197339057922,3.48059964179993,0.90412837266922
665,3971747351,0.106852,-0.681515,0.111002,-0.715399,9.59065914154053,-3.16776990890503,0.43295246362686,3.01630544662476,3.29789161682129,0.95440614223480
666,3971764018,0.106798,-0.681524,0.111042,-0.715391,9.59874439239502,-3.17562723159790,0.44532141089439,2.70407390594482,3.33869242668152,1.13606405258179
667,3971780685,0.106705,-0.681533,0.111121,-0.715385,9.57968139648438,-3.17864060401917,0.45279359817505,2.47503209114075,3.36000227928162,1.12631857395172
668,3971797352,0.106648,-0.681549,0.111158,-0.715373,9.57127761840820,-3.19858860969543,0.43116405606270,2.45992064476013,3.35778689384460,1.09467399120331
669,3971814019,0.106573,-0.681563,0.111205,-0.715363,9.59642505645752,-3.21358609199524,0.45118018984795,2.71859598159790,3.27964186668396,1.06566762924194
670,3971830686,0.106547,-0.681558,0.111219,-0.715369,9.58554267883301,-3.23225259780884,0.46126341819763,2.97739982604980,3.42824721336365,1.15513288974762
671,3971847353,0.106624,-0.681569,0.111122,-0.715362,9.57391357421875,-3.22269678115845,0.46435263752937,3.30289816856384,3.34832239151001,1.09815728664398
672,3971864020,0.106633,-0.681547,0.111091,-0.715387,9.56943225860596,-3.19433426856995,0.46075800061226,3.39562296867371,3.54248642921448,1.11195635795593
673,3971880687,0.106659,-0.681524,0.111060,-0.715410,9.59364891052246,-3.20570969581604,0.46409153938293,3.47107839584351,3.52764415740967,1.19623482227325
674,3971897354,0.106695,-0.681503,0.111006,-0.715433,9.58995819091797,-3.18752765655518,0.44509395956993,3.63087558746338,3.49341225624084,1.13292026519775
675,3971914021,0.106717,-0.681503,0.110962,-0.715436,9.56882762908936,-3.17474007606506,0.44021511077881,3.48706054687500,3.31222820281982,1.11762940883636
676,3971930688,0.106718,-0.681496,0.110955,-0.715444,9.57322788238525,-3.18759942054749,0.42404222488403,3.21535396575928,3.41364765167236,1.17964398860931
677,3971947355,0.106736,-0.681500,0.110928,-0.715442,9.57550811767578,-3.18277883529663,0.42267858982086,2.98550653457642,3.41249585151672,1.15117573738098
678,3971964022,0.106730,-0.681502,0.110948,-0.715438,9.57789039611816,-3.18825817108154,0.40900841355324,2.84777402877808,3.39662885665894,1.27397584915161
679,3971980689,0.106654,-0.681507,0.111038,-0.715430,9.57985591888428,-3.18205547332764,0.40210780501366,2.88301682472229,3.24352860450745,1.28899776935577
680,3971997356,0.106715,-0.681532,0.110984,-0.715406,9.58335971832275,-3.20488667488098,0.43101572990417,3.22296142578125,3.17267107963562,1.23404562473297
681,3972014023,0.106694,-0.681550,0.111010,-0.715388,9.59110260009766,-3.19457983970642,0.43598562479019,3.30674743652344,3.08350658416748,1.25639915466309
682,3972030690,0.106691,-0.681574,0.111012,-0.715365,9.59937953948975,-3.17477512359619,0.44067454338074,3.10619950294495,3.12747097015381,1.20203602313995
683,3972047357,0.106674,-0.681585,0.111044,-0.715352,9.57690715789795,-3.18007302284241,0.45538279414177,2.90951991081238,3.27470564842224,1.28039813041687
684,3972064024,0.106648,-0.681593,0.111119,-0.715337,9.57461452484131,-3.21485328674316,0.46142792701721,2.65922570228577,3.31196546554565,1.44573438167572
685,3972080691,0.106645,-0.681589,0.111170,-0.715333,9.59004020690918,-3.22587871551514,0.45534095168114,2.89490151405334,3.38783097267151,1.44098341464996
686,3972097358,0.106672,-0.681563,0.111202,-0.715349,9.57404136657715,-3.20475602149963,0.45581361651421,3.16560173034668,3.55573439598083,1.50355529785156
687,3972114025,0.106695,-0.681521,0.111208,-0.715384,9.53211402893066,-3.19229412078857,0.46787375211716,3.29746866226196,3.70531320571899,1.36564373970032
688,3972130692,0.106705,-0.681502,0.111235,-0.715397,9.51035022735596,-3.16789603233337,0.45704418420792,3.10213375091553,3.51871132850647,1.39578974246979
689,3972147359,0.106726,-0.681446,0.111255,-0.715444,9.57864570617676,-3.21535706520081,0.40295952558517,3.24369525909424,3.84059953689575,1.41342413425446
690,3972164026,0.106722,-0.681392,0.111241,-0.715498,9.63914680480957,-3.24434733390808,0.40256375074387,3.26942300796509,3.86625003814697,1.13108253479004
691,3972180693,0.106662,-0.681376,0.111237,-0.715523,9.60975551605225,-3.19641184806824,0.45037367939949,2.83227825164795,3.62301921844482,0.88909369707108
692,3972197360,0.106543,-0.681408,0.111282,-0.715504,9.56256580352783,-3.19922137260437,0.45328423380852,2.34988880157471,3.22484445571899,0.82771295309067
693,3972214027,0.106486,-0.681421,0.111272,-0.715501,9.52243709564209,-3.25063586235046,0.43043467402458,2.93620157241821,3.31108140945435,0.87727332115173
694,3972230694,0.106523,-0.681413,0.111137,-0.715524,9.50927162170410,-3.24555015563965,0.45875164866447,3.98302483558655,3.38019156455994,0.75436449050903
695,3972247361,0.106682,-0.681370,0.110918,-0.715576,9.56610679626465,-3.19151663780212,0.46065047383308,5.04210376739502,3.52793192863464,0.96411335468292
696,3972264028,0.106870,-0.681312,0.110717,-0.715633,9.59924316406250,-3.12253642082214,0.46187213063240,4.72856569290161,3.73376822471619,1.17617368698120
697,3972280695,0.106834,-0.681282,0.110753,-0.715662,9.60083580017090,-3.12107896804810,0.45201638340950,3.28753113746643,3.55015087127686,1.23229098320007
698,3972297362,0.106762,-0.681275,0.110869,-0.715661,9.57099914550781,-3.14118552207947,0.42959955334663,2.25929665565491,3.52058124542236,1.40571475028992
699,3972314029,0.106657,-0.681271,0.111035,-0.715655,9.55082607269287,-3.19422316551208,0.43162184953690,1.78424453735352,3.56335401535034,1.47996568679810
700,3972330696,0.106558,-0.681260,0.111180,-0.715658,9.55767822265625,-3.23625159263611,0.42795026302338,1.99852061271667,3.60109472274780,1.41029930114746
701,3972347363,0.106526,-0.681253,0.111244,-0.715659,9.56722545623779,-3.24506568908691,0.45677495002747,2.70488071441650,3.45770215988159,1.36490094661713
702,3972364030,0.106545,-0.681262,0.111208,-0.715653,9.59101200103760,-3.22112393379211,0.45049101114273,3.42194604873657,3.23634362220764,1.13802337646484
703,3972380697,0.106611,-0.681285,0.111087,-0.715641,9.55935001373291,-3.22522354125977,0.44814249873161,4.03989124298096,3.04114937782288,0.95856815576553
704,3972397364,0.106684,-0.681301,0.110942,-0.715637,9.51066112518311,-3.18560767173767,0.43886795639992,4.20588731765747,3.08613848686218,0.88357412815094
705,3972414031,0.106709,-0.681278,0.110870,-0.715666,9.55002403259277,-3.17453885078430,0.43271231651306,4.15532827377319,3.37855863571167,1.02466177940369
706,3972430698,0.106758,-0.681262,0.110822,-0.715682,9.58538150787354,-3.15810966491699,0.43312805891037,3.70622205734253,3.41200876235962,1.23597943782806
707,3972447365,0.106681,-0.681240,0.110893,-0.715703,9.60041904449463,-3.13603329658508,0.46026077866554,2.72077345848083,3.58654689788818,1.17497003078461
708,3972464032,0.106556,-0.681237,0.110996,-0.715709,9.59428405761719,-3.16666340827942,0.44614747166634,2.08069872856140,3.56565880775452,1.08733594417572
709,3972480699,0.106527,-0.681282,0.111004,-0.715669,9.57303714752197,-3.20564246177673,0.45469072461128,1.99289870262146,3.26599121093750,1.04681694507599
710,3972497366,0.106431,-0.681333,0.111093,-0.715620,9.55540657043457,-3.21813201904297,0.47734427452087,2.20598387718201,3.01027393341064,1.15579891204834
711,3972514033,0.106476,-0.681350,0.111069,-0.715602,9.55762290954590,-3.22539687156677,0.46682778000832,3.46483516693115,3.12800216674805,1.32441985607147
712,3972530700,0.106574,-0.681346,0.110956,-0.715608,9.58545684814453,-3.20204281806946,0.43355590105057,4.19204378128052,3.24223542213440,1.16558289527893
713,3972547367,0.106654,-0.681335,0.110855,-0.715623,9.58717346191406,-3.16149902343750,0.43434402346611,4.05250549316406,3.33802652359009,1.13439941406250
714,3972564034,0.106674,-0.681319,0.110833,-0.715638,9.59499454498291,-3.14146232604980,0.43739551305771,3.39524531364441,3.46295237541199,1.20856094360352
715,3972580701,0.106606,-0.681348,0.110894,-0.715612,9.57183361053467,-3.12374138832092,0.42731401324272,2.50251460075378,3.18586111068726,1.16427636146545
716,3972597368,0.106473,-0.681402,0.111026,-0.715559,9.60422325134277,-3.18131804466248,0.43049320578575,1.81296932697296,3.03114771842957,1.17215251922607
717,3972614035,0.106367,-0.681456,0.111126,-0.715508,9.58353614807129,-3.21063137054443,0.43245813250542,2.09663033485413,3.00009274482727,1.15806555747986
718,3972630702,0.106333,-0.681495,0.111150,-0.715472,9.59502792358398,-3.22390031814575,0.46481728553772,2.71346068382263,3.07485556602478,1.15322446823120
719,3972647369,0.106316,-0.681513,0.111167,-0.715455,9.59608554840088,-3.21402883529663,0.44480413198471,3.33550429344177,3.09205555915833,1.22569608688354
720,3972664036,0.106394,-0.681535,0.111095,-0.715433,9.59568786621094,-3.19933557510376,0.47259047627449,3.55212283134460,3.12088155746460,1.24213898181915
721,3972680703,0.106440,-0.681550,0.111056,-0.715419,9.59244155883789,-3.20447969436646,0.47041383385658,3.42449474334717,3.18473434448242,1.25055289268494
722,3972697370,0.106435,-0.681541,0.111081,-0.715424,9.58938884735107,-3.17657637596130,0.44268193840981,3.02868938446045,3.44073343276978,1.31267654895782
723,3972714037,0.106317,-0.681505,0.111205,-0.715456,9.59568786621094,-3.19719338417053,0.44555109739304,2.84876012802124,3.60322022438049,1.25768613815308
724,3972730704,0.106278,-0.681475,0.111256,-0.715483,9.58124923706055,-3.19786620140076,0.45033040642738,2.77021861076355,3.69657921791077,1.26198911666870
725,3972747371,0.106368,-0.681457,0.111182,-0.715498,9.58011150360107,-3.21053194999695,0.44339033961296,2.94186210632324,3.70889830589294,1.26033699512482
726,3972764038,0.106382,-0.681437,0.111168,-0.715518,9.57383823394775,-3.20360636711121,0.44007578492165,3.26725792884827,3.54554009437561,1.21551465988159
727,3972780705,0.106413,-0.681428,0.111122,-0.715528,9.56992435455322,-3.20342159271240,0.42359721660614,3.55079126358032,3.38362979888916,1.15155982971191
728,3972797372,0.106433,-0.681415,0.111104,-0.715541,9.57909679412842,-3.15981078147888,0.42976707220078,3.36725020408630,3.44882655143738,1.22600305080414
729,3972814039,0.106432,-0.681397,0.111087,-0.715560,9.58284854888916,-3.16967463493347,0.41538363695145,3.27661991119385,3.51193642616272,1.12903332710266
730,3972830706,0.106395,-0.681392,0.111109,-0.715567,9.57384490966797,-3.17859601974487,0.44830292463303,2.89413309097290,3.45202898979187,1.13719117641449
731,3972847373,0.106351,-0.681391,0.111148,-0.715569,9.57467079162598,-3.18577766418457,0.43829461932182,2.77051329612732,3.42457199096680,1.18151402473450
732,3972864040,0.106313,-0.681398,0.111172,-0.715564,9.57781696319580,-3.18818020820618,0.44554677605629,2.85850548744202,3.33806514739990,1.13740885257721
733,3972880707,0.106304,-0.681396,0.111180,-0.715567,9.59041690826416,-3.19894742965698,0.44975128769875,3.09064626693726,3.38961100578308,1.20859944820404
734,3972897374,0.106290,-0.681382,0.111187,-0.715580,9.62081146240234,-3.20151185989380,0.42591091990471,3.08843088150024,3.49487924575806,1.17812025547028
735,3972914041,0.106282,-0.681393,0.111170,-0.715574,9.57187652587891,-3.17647290229797,0.43831264972687,3.19738745689392,3.26126551628113,1.09414899349213
736,3972930708,0.106280,-0.681384,0.111159,-0.715584,9.55017948150635,-3.17962026596069,0.45418339967728,3.22378706932068,3.43697452545166,1.14854383468628
737,3972947375,0.106284,-0.681376,0.111148,-0.715594,9.50589561462402,-3.17860794067383,0.48721948266029,3.25570678710938,3.42217659950256,1.17902934551239
738,3972964042,0.106297,-0.681346,0.111157,-0.715618,9.54991626739502,-3.19273328781128,0.48001626133919,3.22678995132446,3.60834240913391,1.32904291152954
739,3972980709,0.106333,-0.681289,0.111138,-0.715671,9.65851783752441,-3.20044684410095,0.41574755311012,3.50517511367798,3.83724331855774,1.31049954891205
740,3972997376,0.106307,-0.681262,0.111123,-0.715702,9.69564628601074,-3.18161296844482,0.40388792753220,3.16380858421326,3.63635015487671,1.01457023620605
741,3973014043,0.106227,-0.681293,0.111169,-0.715677,9.62676429748535,-3.13807225227356,0.46330770850182,2.26936197280884,3.25705146789551,1.01449334621429
742,3973030710,0.106096,-0.681325,0.111301,-0.715646,9.54217529296875,-3.21361041069031,0.49275547266006,2.05091166496277,3.17803716659546,1.19739389419556
743,3973047377,0.106039,-0.681320,0.111355,-0.715651,9.52594661712646,-3.27009868621826,0.45350992679596,3.01465368270874,3.36228203773499,1.20829212665558
744,3973064044,0.106142,-0.681280,0.111231,-0.715693,9.52684974670410,-3.20376896858215,0.45548298954964,4.31940269470215,3.57851696014404,1.13984203338623
745,3973080711,0.106273,-0.681203,0.111103,-0.715767,9.56315135955811,-3.14768934249878,0.44701179862022,4.82805824279785,3.78463554382324,1.28118586540222
746,3973097378,0.106410,-0.681157,0.110983,-0.715809,9.59098052978516,-3.12079691886902,0.43677476048470,4.12878084182739,3.68821644783020,1.31197226047516
747,3973114045,0.106417,-0.681145,0.111002,-0.715816,9.59831237792969,-3.12962269783020,0.43239411711693,2.94447469711304,3.50329232215881,1.33278262615204
748,3973130712,0.106320,-0.681151,0.111169,-0.715799,9.58629226684570,-3.15424728393555,0.43634659051895,2.14612627029419,3.34962844848633,1.54211497306824
749,3973147379,0.106271,-0.681157,0.111296,-0.715780,9.58840465545654,-3.17899394035339,0.45124202966690,2.03910398483276,3.44355082511902,1.56277179718018
750,3973164046,0.106222,-0.681157,0.111433,-0.715767,9.57484054565430,-3.19517993927002,0.43773922324181,2.34582901000977,3.39329862594604,1.63010752201080
751,3973180713,0.106255,-0.681175,0.111477,-0.715738,9.59338665008545,-3.20927476882935,0.44639435410500,2.85076999664307,3.20377707481384,1.57836985588074
752,3973197380,0.106257,-0.681215,0.111494,-0.715697,9.56311130523682,-3.20633292198181,0.43464568257332,2.99947762489319,2.98380279541016,1.30454444885254
753,3973214047,0.106260,-0.681275,0.111505,-0.715637,9.49126243591309,-3.17910337448120,0.42403420805931,3.24236297607422,2.71521520614624,1.28655147552490
754,3973230714,0.106192,-0.681285,0.111614,-0.715621,9.51539421081543,-3.19928264617920,0.41880854964256,3.74123406410217,2.89295434951782,1.47383141517639
755,3973247381,0.106219,-0.681294,0.111607,-0.715609,9.59523868560791,-3.18556380271912,0.42409169673920,3.85118985176086,3.04819321632385,1.34502553939819
756,3973264048,0.106225,-0.681316,0.111605,-0.715588,9.59496784210205,-3.13753414154053,0.44753137230873,3.13790154457092,3.14990139007568,1.23412251472473
757,3973280715,0.106156,-0.681358,0.111684,-0.715546,9.58403587341309,-3.14854764938354,0.44658955931664,2.11486649513245,3.14374160766602,1.23045992851257
758,3973297382,0.105948,-0.681397,0.111911,-0.715505,9.57210445404053,-3.19652652740479,0.43946900963783,1.52553725242615,3.13072347640991,1.28085911273956
759,3973314049,0.105869,-0.681449,0.112016,-0.715450,9.56796264648438,-3.24280834197998,0.46182975172997,1.89293253421783,3.07184672355652,1.30159914493561
760,3973330716,0.105855,-0.681459,0.112037,-0.715439,9.55547904968262,-3.24196934700012,0.46765416860580,2.91554498672485,3.30297565460205,1.24226725101471
761,3973347383,0.105898,-0.681428,0.111997,-0.715469,9.53852748870850,-3.21871376037598,0.46548885107040,3.69371032714844,3.55139327049255,1.24632692337036
762,3973364050,0.106027,-0.681383,0.111868,-0.715513,9.54732704162598,-3.18845200538635,0.44219601154327,3.97331094741821,3.74464154243469,1.22383892536163
763,3973380717,0.106081,-0.681339,0.111807,-0.715556,9.56986331939697,-3.18067240715027,0.42798894643784,3.72781395912170,3.69678401947021,1.19220733642578
764,3973397384,0.106050,-0.681297,0.111826,-0.715598,9.58508014678955,-3.16843438148499,0.41384887695312,3.40324926376343,3.66388416290283,1.17397093772888
765,3973414051,0.105935,-0.681277,0.111932,-0.715617,9.59959793090820,-3.16171312332153,0.41543665528297,2.83043408393860,3.47665524482727,1.18356299400330
766,3973430718,0.105955,-0.681289,0.111939,-0.715602,9.58574295043945,-3.18617320060730,0.44045573472977,2.64697003364563,3.39410543441772,1.31765818595886
767,3973447385,0.105915,-0.681291,0.112007,-0.715595,9.59240913391113,-3.18830561637878,0.45033344626427,2.60784697532654,3.40283966064453,1.34188795089722
