sep=,
DeviceTag:,C
FirmwareVersion:,3.0.0
AppVersion:,2023.6.0
StartTime: ,2024-03-14_12:01:38_000 EDT
© Movella Technologies B. V. 2005-2024

PacketCounter,SampleTimeFine,Quat_W,Quat_X,Quat_Y,Quat_Z,Acc_X,Acc_Y,Acc_Z,Gyr_X,Gyr_Y,Gyr_Z
0,3960663796,0.647702,0.377210,-0.551993,0.365389,0.00000000000000,0.00000000000000,0.00000000000000,0.00000000000000,0.00000000000000,0.00000000000000
1,3960680463,0.647818,0.377263,-0.551693,0.365580,9.75985050201416,0.84027487039566,0.97530007362366,2.58802247047424,2.08583426475525,-0.06700921803713
2,3960697130,0.647945,0.377260,-0.551474,0.365689,9.76645565032959,0.84907001256943,0.95812225341797,1.77594614028931,1.68873500823975,-0.03559524938464
3,3960713797,0.648067,0.377235,-0.551299,0.365762,9.75375938415527,0.87846374511719,0.99188023805618,1.45574891567230,1.43756389617920,0.01509868539870
4,3960730464,0.648015,0.377465,-0.551078,0.365949,9.74041652679443,0.86080765724182,0.82895666360855,3.57769727706909,0.63367104530334,-0.13006769120693
5,3960747131,0.648023,0.377646,-0.551004,0.365861,9.80131053924561,0.90658146142960,1.20588910579681,1.80339002609253,-0.38396638631821,-0.93264162540436
6,3960763798,0.648170,0.377655,-0.550839,0.365839,9.78677368164062,0.81927943229675,0.98495548963547,1.15791177749634,1.15568351745605,-0.57416629791260
7,3960780465,0.648299,0.377566,-0.550844,0.365696,9.79523563385010,0.85159510374069,1.02508401870728,-0.12361328303814,0.26486092805862,-0.26057720184326
8,3960797132,0.648408,0.377495,-0.550821,0.365609,9.79904365539551,0.81573289632797,1.05874693393707,0.29231774806976,0.41146805882454,-0.09837198257446
9,3960813799,0.648415,0.377395,-0.550868,0.365631,9.85118198394775,0.83354967832565,1.06394362449646,0.64765548706055,0.06665705144405,0.93652832508087
10,3960830466,0.648377,0.377504,-0.550754,0.365757,9.85046291351318,0.84096610546112,1.07383358478546,2.51396346092224,0.35974314808846,0.29984787106514
11,3960847133,0.648356,0.377693,-0.550587,0.365851,9.82405281066895,0.83205103874207,1.11225974559784,2.84563517570496,0.37307456135750,-0.31723248958588
12,3960863800,0.648338,0.377870,-0.550403,0.365976,9.86003303527832,0.86195701360703,1.16400849819183,2.94378280639648,0.57681077718735,-0.19225531816483
13,3960880467,0.648360,0.377988,-0.550215,0.366098,9.85906600952148,0.84806376695633,1.12432420253754,2.57019591331482,0.88370209932327,-0.09330065548420
14,3960897134,0.648403,0.378030,-0.550065,0.366204,9.83035182952881,0.84977960586548,1.06436800956726,2.01770448684692,0.94846397638321,0.17091354727745
15,3960913801,0.648416,0.378144,-0.549877,0.366346,9.78999614715576,0.85166841745377,1.03731119632721,2.64616322517395,0.90686875581741,0.03479485213757
16,3960930468,0.648377,0.378338,-0.549687,0.366500,9.73392677307129,0.85133343935013,1.04614830017090,3.18548965454102,0.55744755268097,-0.08620593696833
17,3960947135,0.648298,0.378508,-0.549550,0.366668,9.70892715454102,0.86629736423492,1.01325941085815,3.11260914802551,0.26135200262070,0.30174323916435
18,3960963802,0.648215,0.378629,-0.549486,0.366786,9.71028804779053,0.89866214990616,1.00369453430176,2.52776861190796,-0.07985398918390,0.46297514438629
19,3960980469,0.648120,0.378717,-0.549480,0.366872,9.76062011718750,0.85949313640594,1.00795841217041,2.14932823181152,-0.39268746972084,0.63012361526489
20,3960997136,0.647989,0.378810,-0.549488,0.366996,9.79696941375732,0.82095414400101,1.04777133464813,2.37827992439270,-0.49315327405930,0.90875136852264
21,3961013803,0.647806,0.378931,-0.549496,0.367183,9.79453754425049,0.82230240106583,1.10406339168549,2.87733054161072,-0.60289090871811,1.20936763286591
22,3961030470,0.647611,0.379011,-0.549542,0.367376,9.82562541961670,0.80455803871155,1.09322583675385,2.65059447288513,-0.69696646928787,1.52948808670044
23,3961047137,0.647415,0.379016,-0.549611,0.367613,9.82314968109131,0.78010809421539,1.08913660049438,2.41543078422546,-0.50430762767792,2.06284642219543
24,3961063804,0.647324,0.378771,-0.549752,0.367815,9.85378932952881,0.91148900985718,1.20934164524078,0.73363739252090,0.12228783965111,2.77754354476929
25,3961080471,0.647235,0.378532,-0.549876,0.368032,9.83453941345215,0.87591016292572,1.14017236232758,0.84681993722916,0.22262559831142,2.77482867240906
26,3961097138,0.647176,0.378282,-0.549982,0.368234,9.89819335937500,0.93432015180588,1.21068680286407,0.70689767599106,0.40597409009933,2.62434124946594
27,3961113805,0.647132,0.378197,-0.549927,0.368480,9.79940891265869,0.96182376146317,1.10895168781281,1.96574890613556,0.87755507230759,1.74148440361023
28,3961130472,0.647069,0.378176,-0.549876,0.368688,9.83672332763672,0.94182515144348,1.15490710735321,2.15329813957214,0.52838993072510,1.38263750076294
29,3961147139,0.647056,0.378101,-0.549854,0.368820,9.79574680328369,0.97437417507172,1.15829575061798,1.43563008308411,0.51907968521118,1.20471882820129
30,3961163806,0.647085,0.377989,-0.549858,0.368878,9.81042575836182,0.95450234413147,1.11405539512634,0.81149995326996,0.47438561916351,0.97114396095276
31,3961180473,0.647156,0.377857,-0.549844,0.368911,9.79730892181396,0.97602272033691,1.11858642101288,0.56003445386887,0.68971163034439,0.78321075439453
32,3961197140,0.647224,0.377795,-0.549801,0.368919,9.80841255187988,0.95555984973907,1.12560606002808,0.86316072940826,0.57323783636093,0.34473416209221
33,3961213807,0.647312,0.377754,-0.549722,0.368924,9.78498935699463,0.94167786836624,1.12235271930695,0.96731489896774,0.74088579416275,0.10466630011797
34,3961230474,0.647395,0.377751,-0.549644,0.368898,9.76492214202881,0.88135153055191,1.06632328033447,1.04712402820587,0.54528158903122,-0.16413258016109
35,3961247141,0.647436,0.377750,-0.549618,0.368865,9.74972343444824,0.87312990427017,1.04218566417694,1.00364637374878,0.13038143515587,0.04358000680804
36,3961263808,0.647455,0.377712,-0.549652,0.368820,9.76829624176025,0.90250241756439,1.03951406478882,0.69441139698029,-0.15699943900108,0.33331087231636
37,3961280475,0.647467,0.377653,-0.549736,0.368734,9.77938556671143,0.88938820362091,1.03862011432648,0.33354139328003,-0.46184182167053,0.38558635115623
38,3961297142,0.647458,0.377599,-0.549843,0.368645,9.79457187652588,0.89484488964081,1.08827054500580,0.33831813931465,-0.66267091035843,0.46694508194923
39,3961313809,0.647425,0.377613,-0.549923,0.368570,9.78646087646484,0.89056318998337,1.04063689708710,0.81942695379257,-0.76704263687134,0.25619101524353
40,3961330476,0.647365,0.377721,-0.549984,0.368474,9.79731369018555,0.87476921081543,1.05830252170563,1.28434896469116,-1.07447206974030,-0.16893498599529
41,3961347143,0.647303,0.377852,-0.550050,0.368351,9.77162551879883,0.84385365247726,1.04793393611908,1.27412939071655,-1.24059605598450,-0.35740602016449
42,3961363810,0.647203,0.377937,-0.550209,0.368201,9.78512287139893,0.85414290428162,1.07310354709625,0.84046792984009,-1.74989163875580,0.03100416995585
43,3961380477,0.647113,0.377955,-0.550408,0.368044,9.78961849212646,0.83700299263000,1.08131468296051,0.38868546485901,-1.73522830009460,0.33872795104980
44,3961397144,0.647049,0.377900,-0.550628,0.367883,9.83018684387207,0.84455269575119,1.10107183456421,-0.07708781957626,-1.55842375755310,0.57989716529846
45,3961413811,0.647009,0.377828,-0.550808,0.367759,9.83292484283447,0.84632092714310,1.10786688327789,0.02909602969885,-1.14938914775848,0.64367276430130
46,3961430478,0.646981,0.377754,-0.550969,0.367643,9.80922889709473,0.84882169961929,1.06021392345428,0.06919270753860,-0.99745434522629,0.60814785957336
47,3961447145,0.646937,0.377734,-0.551115,0.367520,9.79191303253174,0.83390372991562,1.03717398643494,0.35344243049622,-1.14203822612762,0.37278008460999
48,3961463812,0.646852,0.377718,-0.551292,0.367423,9.82297325134277,0.82502657175064,0.99711292982101,0.48865184187889,-1.38014662265778,0.65618455410004
49,3961480479,0.646760,0.377657,-0.551493,0.367344,9.84289264678955,0.82034748792648,1.05377721786499,0.33407923579216,-1.35220324993134,0.99099373817444
50,3961497146,0.646696,0.377552,-0.551673,0.367294,9.89478492736816,0.81427294015884,1.12207996845245,0.23558562994003,-0.96114861965179,1.16587734222412
51,3961513813,0.646742,0.377398,-0.551744,0.367265,9.84770774841309,0.83781391382217,1.10829925537109,0.07402070611715,0.11291359364986,0.87836194038391
52,3961530480,0.646836,0.377271,-0.551816,0.367124,9.80640411376953,0.77852964401245,1.03043353557587,-0.37022516131401,-0.06704764068127,0.15312552452087
53,3961547147,0.646882,0.377172,-0.551915,0.366996,9.80644416809082,0.80879843235016,1.06205129623413,-0.12627701461315,-0.40467426180840,0.30531617999077
54,3961563814,0.646886,0.377098,-0.551991,0.366949,9.84314537048340,0.87141799926758,1.11279773712158,0.45499679446220,-0.31976816058159,0.61547321081161
55,3961580481,0.646904,0.377047,-0.552056,0.366873,9.83477020263672,0.85158437490463,1.07749342918396,0.43280336260796,-0.34111633896828,0.33213266730309
56,3961597148,0.646959,0.376987,-0.552109,0.366756,9.82512760162354,0.85886502265930,1.04777503013611,0.18024937808514,-0.23808927834034,0.06619601696730
57,3961613815,0.646845,0.377140,-0.552135,0.366762,9.79165267944336,0.84760713577271,0.87912577390671,2.10190629959106,-0.97591429948807,0.15327921509743
58,3961630482,0.646807,0.377218,-0.552277,0.366533,9.82802009582520,0.88883018493652,1.28136384487152,0.36539077758789,-1.62257087230682,-0.49808380007744
59,3961647149,0.646926,0.377095,-0.552300,0.366415,9.83591175079346,0.83640664815903,1.03123867511749,-0.20796871185303,0.29413622617722,0.05767979472876
60,3961663816,0.647054,0.376928,-0.552466,0.366113,9.75105857849121,0.86959838867188,0.98744106292725,-1.48145782947540,-0.67280077934265,-0.25002476572990
61,3961680483,0.647124,0.376793,-0.552637,0.365868,9.75919818878174,0.82577073574066,0.98793935775757,-0.97620898485184,-0.84840148687363,0.04845923185349
62,3961697150,0.647034,0.376677,-0.552945,0.365682,9.79564952850342,0.85676050186157,1.02212512493134,-0.59292763471603,-1.95924997329712,0.98916250467300
63,3961713817,0.646863,0.376743,-0.553134,0.365632,9.82825183868408,0.87010180950165,1.02244758605957,1.23563361167908,-1.85007584095001,0.80179280042648
64,3961730484,0.646687,0.376944,-0.553263,0.365540,9.82157611846924,0.84187227487564,1.03477442264557,1.83002734184265,-2.04611539840698,-0.04308696463704
65,3961747151,0.646522,0.377107,-0.553420,0.365427,9.88081550598145,0.88583868741989,1.09944081306458,1.50228738784790,-2.07913017272949,0.05689861625433
66,3961763818,0.646454,0.377156,-0.553552,0.365295,9.88351726531982,0.86745429039001,1.10036575794220,0.72107428312302,-1.37083649635315,0.09827592968941
67,3961780485,0.646453,0.377138,-0.553666,0.365143,9.86107921600342,0.85012656450272,1.02284479141235,0.21350744366646,-0.91886192560196,0.03733050823212
68,3961797152,0.646443,0.377168,-0.553746,0.365009,9.83127021789551,0.84391140937805,0.99374884366989,0.61278384923935,-0.87593507766724,-0.11740220338106
69,3961813819,0.646401,0.377236,-0.553786,0.364952,9.83179187774658,0.84587621688843,0.99583649635315,1.24429059028625,-0.71365308761597,0.05344089493155
70,3961830486,0.646357,0.377311,-0.553808,0.364918,9.80363273620605,0.82215291261673,0.99212324619293,1.41184878349304,-0.59564250707626,0.07978355139494
71,3961847153,0.646334,0.377390,-0.553819,0.364861,9.80735683441162,0.86969041824341,1.00618851184845,1.32716059684753,-0.54473733901978,-0.11384206265211
72,3961863820,0.646326,0.377464,-0.553832,0.364779,9.84700107574463,0.86132764816284,1.02232706546783,1.17166578769684,-0.54586428403854,-0.23460592329502
73,3961880487,0.646338,0.377484,-0.553850,0.364710,9.84417247772217,0.87168604135513,1.03270792961121,0.90084975957870,-0.32120245695114,-0.01560453604907
74,3961897154,0.646378,0.377442,-0.553861,0.364666,9.87389755249023,0.86530268192291,1.03938174247742,0.67045080661774,0.03448750078678,0.24431952834129
75,3961913821,0.646443,0.377401,-0.553816,0.364661,9.84313392639160,0.83651292324066,0.99825203418732,0.89577847719193,0.48482277989388,0.21049796044827
76,3961930488,0.646458,0.377429,-0.553745,0.364715,9.79602336883545,0.82314842939377,0.95685619115829,1.62945449352264,0.38185977935791,0.26767835021019
77,3961947155,0.646545,0.377347,-0.553707,0.364701,9.78150367736816,0.88939005136490,1.01962077617645,0.60430598258972,0.61234837770462,0.28489005565643
78,3961963822,0.646575,0.377259,-0.553776,0.364634,9.77746772766113,0.84279382228851,0.98298883438110,0.24460126459599,-0.20613740384579,0.49381279945374
79,3961980489,0.646600,0.377125,-0.553843,0.364627,9.88474178314209,0.86147558689117,1.09901762008667,0.30075713992119,0.05200658738613,0.94573616981506
80,3961997156,0.646621,0.377118,-0.553778,0.364696,9.77295207977295,0.89724647998810,0.97232216596603,1.49191391468048,0.50684958696365,0.46575412154198
81,3962013823,0.646610,0.377127,-0.553749,0.364750,9.84236812591553,0.88788127899170,1.05031299591064,1.50224888324738,0.14838717877865,0.51286864280701
82,3962030490,0.646641,0.377092,-0.553725,0.364767,9.81351470947266,0.89031285047531,1.00178742408752,1.02978408336639,0.29560896754265,0.42231497168541
83,3962047157,0.646697,0.377006,-0.553742,0.364732,9.80757331848145,0.87168979644775,1.01845371723175,0.44641658663750,0.20126460492611,0.43299552798271
84,3962063824,0.646776,0.376898,-0.553751,0.364689,9.82426261901855,0.87269860506058,1.02887868881226,0.28234159946442,0.36273986101151,0.40080034732819
85,3962080491,0.646859,0.376791,-0.553760,0.364639,9.82265758514404,0.87447923421860,1.05225610733032,0.24644541740417,0.35200816392899,0.35400596261024
86,3962097158,0.646946,0.376703,-0.553724,0.364631,9.80846977233887,0.84789526462555,1.04749369621277,0.60705947875977,0.63572007417679,0.33897128701210
87,3962113825,0.647006,0.376560,-0.553726,0.364669,9.81908226013184,0.85319173336029,1.05288434028625,0.48154440522194,0.61797046661377,0.92105835676193
88,3962130492,0.647073,0.376390,-0.553758,0.364676,9.82890415191650,0.86110603809357,1.01604843139648,0.13755300641060,0.49344143271446,0.94563359022141
89,3962147159,0.647148,0.376204,-0.553796,0.364679,9.83158111572266,0.89319318532944,1.02403914928436,0.03672861307859,0.53215509653091,0.98663961887360
90,3962163826,0.647227,0.376036,-0.553800,0.364705,9.83860683441162,0.88909995555878,1.05353522300720,0.28363502025604,0.70989435911179,0.91693466901779
91,3962180493,0.647298,0.375928,-0.553777,0.364724,9.85139846801758,0.88366365432739,1.02798259258270,0.62067252397537,0.63641154766083,0.61505049467087
92,3962197160,0.647401,0.375845,-0.553702,0.364742,9.85224151611328,0.88601219654083,1.01540482044220,0.78865343332291,0.92497712373734,0.30098769068718
93,3962213827,0.647510,0.375781,-0.553618,0.364741,9.81366634368896,0.86355406045914,1.03508663177490,0.79126596450806,0.88663476705551,0.10108051449060
94,3962230494,0.647618,0.375664,-0.553577,0.364733,9.83722209930420,0.86535626649857,1.04187297821045,0.42205885052681,0.80231773853302,0.38792994618416
95,3962247161,0.647776,0.375534,-0.553478,0.364737,9.82133579254150,0.85371917486191,1.03279256820679,0.40989285707474,1.31997621059418,0.21360993385315
96,3962263828,0.647913,0.375368,-0.553415,0.364760,9.80363464355469,0.84188848733902,1.01579785346985,0.29450762271881,1.21980464458466,0.58361089229584
97,3962280495,0.648048,0.375189,-0.553374,0.364766,9.78753566741943,0.87478625774384,1.03567624092102,0.12753844261169,1.09777319431305,0.62186354398727
98,3962297162,0.648176,0.375056,-0.553296,0.364794,9.83114242553711,0.84266382455826,1.07214653491974,0.53848141431808,1.18138587474823,0.46118226647377
99,3962313829,0.648304,0.374930,-0.553231,0.364794,9.80949497222900,0.82008326053619,1.06301546096802,0.40008315443993,1.03192281723022,0.34018784761429
100,3962330496,0.648434,0.374781,-0.553155,0.364831,9.80939960479736,0.81491267681122,1.02761375904083,0.48122423887253,1.24274098873138,0.56665539741516
101,3962347163,0.648560,0.374587,-0.553133,0.364840,9.79144001007080,0.83801627159119,1.03243339061737,0.04370807483792,1.02997636795044,0.75665044784546
102,3962363830,0.648681,0.374371,-0.553135,0.364846,9.78517436981201,0.81075602769852,1.03580188751221,-0.12626419961452,0.94590246677399,0.90502470731735
103,3962380497,0.648789,0.374170,-0.553138,0.364853,9.78763675689697,0.82395654916763,1.03092300891876,-0.02132897451520,0.86319917440414,0.88388150930405
104,3962397164,0.648861,0.374015,-0.553141,0.364880,9.80710601806641,0.83505731821060,1.02503025531769,0.33710154891014,0.65071624517441,0.88973402976990
105,3962413831,0.648929,0.373892,-0.553142,0.364883,9.78966140747070,0.82974570989609,1.03969800472260,0.46356424689293,0.51834976673126,0.67421591281891
106,3962430498,0.649012,0.373766,-0.553133,0.364879,9.77489566802979,0.82088482379913,1.01614713668823,0.30639189481735,0.59363830089569,0.57399338483810
107,3962447165,0.649041,0.373680,-0.553144,0.364898,9.78241539001465,0.83227753639221,1.08721387386322,0.73108881711960,0.26802405714989,0.72460883855820
108,3962463832,0.648897,0.373868,-0.553084,0.365053,9.76271343231201,0.78347796201706,0.86456829309464,3.11324930191040,-0.41238364577293,0.54119634628296
109,3962480499,0.648796,0.373949,-0.553191,0.364987,9.82518482208252,0.80688118934631,1.19466841220856,1.26265466213226,-1.29252541065216,0.28427529335022
110,3962497166,0.648899,0.373730,-0.553281,0.364893,9.75794792175293,0.77760964632034,0.99613720178604,-0.61421167850494,0.24470375478268,0.74410021305084
111,3962513833,0.648908,0.373485,-0.553507,0.364785,9.80085086822510,0.74931663274765,1.04644751548767,-0.95131337642670,-0.69642847776413,1.35984230041504
112,3962530500,0.648828,0.373356,-0.553708,0.364753,9.78535747528076,0.82804584503174,1.04282569885254,0.11697320640087,-1.02429664134979,1.41603660583496
113,3962547167,0.648678,0.373327,-0.553874,0.364798,9.86563396453857,0.81860792636871,1.09560132026672,1.15155982971191,-1.17984259128571,1.46549463272095
114,3962563834,0.648521,0.373425,-0.553894,0.364946,9.86790466308594,0.80842542648315,1.07431459426880,2.49009251594543,-0.61702913045883,1.08681094646454
115,3962580501,0.648382,0.373579,-0.553901,0.365026,9.80593681335449,0.83303231000900,1.05687725543976,2.43919968605042,-0.80138927698135,0.48843413591385
116,3962597168,0.648312,0.373648,-0.553939,0.365022,9.83343124389648,0.83213210105896,1.12702417373657,1.52115118503571,-0.67729586362839,0.34764119982719
117,3962613835,0.648286,0.373596,-0.554011,0.365011,9.84785747528076,0.82907378673553,1.07280611991882,0.75136131048203,-0.37916398048401,0.74891531467438
118,3962630502,0.648284,0.373549,-0.554062,0.364987,9.81861495971680,0.80741608142853,1.08787369728088,0.70789659023285,-0.23767943680286,0.56673222780228
119,3962647169,0.648267,0.373529,-0.554096,0.364985,9.81823062896729,0.80508852005005,1.03842341899872,1.00359511375427,-0.23620669543743,0.55223536491394
120,3962663836,0.648220,0.373545,-0.554110,0.365029,9.81674385070801,0.82886797189713,1.05387020111084,1.45875847339630,-0.22521887719631,0.63696229457855
121,3962680503,0.648156,0.373606,-0.554106,0.365087,9.79558563232422,0.80918312072754,1.03562390804291,1.80866611003876,-0.29356631636620,0.53421682119370
122,3962697170,0.648116,0.373660,-0.554109,0.365098,9.81263923645020,0.82509148120880,1.05118370056152,1.52001130580902,-0.33453390002251,0.30179443955421
123,3962713837,0.648100,0.373688,-0.554138,0.365054,9.83071613311768,0.83951240777969,1.06978273391724,1.09746599197388,-0.43017172813416,0.16886453330517
124,3962730504,0.648076,0.373678,-0.554188,0.365032,9.84342288970947,0.83524703979492,1.08055329322815,0.95956689119339,-0.40344482660294,0.48491242527962
125,3962747171,0.648073,0.373661,-0.554224,0.364999,9.84937667846680,0.82741111516953,1.06344556808472,0.87343144416809,-0.27251273393631,0.37162744998932
126,3962763838,0.648045,0.373761,-0.554200,0.364985,9.78997135162354,0.79530113935471,0.96457803249359,1.64790844917297,-0.34775003790855,-0.08027661591768
127,3962780505,0.648110,0.373729,-0.554216,0.364877,9.78385925292969,0.84507566690445,1.10498726367950,0.37445765733719,-0.08084008097649,-0.12908159196377
128,3962797172,0.648129,0.373669,-0.554288,0.364794,9.80106830596924,0.79750537872314,1.03144598007202,0.30740359425545,-0.36818894743919,0.35076591372490
129,3962813839,0.648073,0.373689,-0.554350,0.364778,9.81385421752930,0.79824155569077,1.02382040023804,1.25824940204620,-0.63680213689804,0.51156252622604
130,3962830506,0.648021,0.373740,-0.554425,0.364706,9.79328823089600,0.81265616416931,1.06364357471466,1.06779348850250,-0.90559464693069,0.16317851841450
131,3962847173,0.647935,0.373790,-0.554509,0.364678,9.79802227020264,0.81364428997040,1.07676494121552,1.26800811290741,-0.95730674266815,0.46941676735878
132,3962863840,0.647828,0.373845,-0.554601,0.364673,9.81825256347656,0.84555220603943,1.06206679344177,1.40827584266663,-1.03061020374298,0.62893265485764
133,3962880507,0.647756,0.373909,-0.554670,0.364631,9.84220409393311,0.83089923858643,1.04266870021820,1.27519226074219,-0.90883457660675,0.28153476119041
134,3962897174,0.647749,0.373931,-0.554719,0.364547,9.83713436126709,0.83349919319153,1.07593274116516,0.83996844291687,-0.57169461250305,0.04067296534777
135,3962913841,0.647747,0.373972,-0.554748,0.364463,9.84409618377686,0.83262926340103,1.05853188037872,0.92230039834976,-0.51989293098450,-0.10068993270397
136,3962930508,0.647729,0.374007,-0.554760,0.364441,9.84524631500244,0.79718697071075,1.09310221672058,1.32856917381287,-0.32066461443901,0.20824407041073
137,3962947175,0.647711,0.374013,-0.554789,0.364423,9.81922721862793,0.80460035800934,1.07455503940582,1.08441603183746,-0.31711721420288,0.36998823285103
138,3962963842,0.647699,0.374016,-0.554826,0.364384,9.81948280334473,0.83119213581085,1.03912568092346,0.92954885959625,-0.37652587890625,0.29275313019753
139,3962980509,0.647705,0.373994,-0.554878,0.364318,9.78587627410889,0.83506941795349,1.01765990257263,0.52984988689423,-0.39126595854759,0.25256678462029
140,3962997176,0.647695,0.373940,-0.554980,0.364235,9.79662513732910,0.83022928237915,1.00039875507355,0.32318100333214,-0.63357484340668,0.47583270072937
141,3963013843,0.647636,0.373960,-0.555062,0.364195,9.81164836883545,0.83492350578308,0.99394851922989,1.02875971794128,-0.80377125740051,0.46169447898865
142,3963030510,0.647536,0.374049,-0.555134,0.364171,9.80939769744873,0.82893502712250,1.01332831382751,1.50990676879883,-1.04805231094360,0.34045672416687
143,3963047177,0.647439,0.374157,-0.555187,0.364152,9.83235549926758,0.80704033374786,1.06080281734467,1.69580399990082,-0.98194599151611,0.24001657962799
144,3963063844,0.647386,0.374205,-0.555256,0.364092,9.81496143341064,0.83157926797867,1.03467917442322,1.09218966960907,-0.84139645099640,0.21149687469006
145,3963080511,0.647331,0.374248,-0.555327,0.364036,9.82461929321289,0.83160758018494,0.98084330558777,1.09537839889526,-0.84058958292007,0.26390045881271
146,3963097178,0.647252,0.374282,-0.555416,0.364006,9.82459449768066,0.81965345144272,1.02350473403931,1.10902988910675,-0.92454797029495,0.51331686973572
147,3963113845,0.647167,0.374316,-0.555511,0.363978,9.84452247619629,0.83065795898438,1.03560233116150,1.12508904933929,-0.96670633554459,0.55311900377274
148,3963130512,0.647100,0.374327,-0.555600,0.363949,9.83115005493164,0.82300305366516,1.02567565441132,1.01596617698669,-0.81337612867355,0.57780969142914
149,3963147179,0.647043,0.374357,-0.555656,0.363934,9.83370971679688,0.80413019657135,0.99149698019028,1.21080195903778,-0.64032381772995,0.45661038160324
150,3963163846,0.646960,0.374433,-0.555681,0.363966,9.79993629455566,0.81700426340103,0.97267705202103,1.73246848583221,-0.59489971399307,0.47948253154755
151,3963180513,0.646890,0.374502,-0.555723,0.363955,9.80182170867920,0.78790694475174,0.97781199216843,1.47239708900452,-0.72220760583878,0.32836759090424
152,3963197180,0.646815,0.374529,-0.555795,0.363951,9.81560420989990,0.79740351438522,0.96999049186707,1.24950277805328,-0.74546402692795,0.59997749328613
153,3963213847,0.646733,0.374526,-0.555897,0.363944,9.81600856781006,0.80693691968918,1.00538170337677,1.05314290523529,-0.83357173204422,0.80449491739273
154,3963230514,0.646674,0.374504,-0.555977,0.363950,9.82938575744629,0.83531409502029,0.98823767900467,1.04620170593262,-0.56962001323700,0.82023382186890
155,3963247181,0.646642,0.374478,-0.556053,0.363916,9.83069992065430,0.83817124366760,1.01259589195251,0.71960157155991,-0.54790043830872,0.57066369056702
156,3963263848,0.646530,0.374534,-0.556119,0.363958,9.83500099182129,0.82350021600723,0.92647659778595,1.66079127788544,-0.81431084871292,0.77256852388382
157,3963280515,0.646299,0.374796,-0.556193,0.363984,9.77534294128418,0.86848247051239,1.00124549865723,2.79846906661987,-1.86224174499512,0.23807004094124
158,3963297182,0.646298,0.374772,-0.556273,0.363889,9.93179512023926,0.80266505479813,1.14131796360016,0.43912971019745,-0.59994548559189,0.23231998085976
159,3963313849,0.646365,0.374590,-0.556396,0.363769,9.74759578704834,0.80213588476181,0.89033621549606,-0.60648953914642,-0.21131119132042,0.66078209877014
160,3963330516,0.646370,0.374461,-0.556536,0.363679,9.76117229461670,0.76334011554718,0.92300367355347,-0.15045541524887,-0.57186114788055,0.79848879575729
161,3963347183,0.646221,0.374328,-0.556841,0.363613,9.79820632934570,0.78617119789124,0.97829216718674,-0.07178599387407,-1.82544922828674,1.72798633575439
162,3963363850,0.645984,0.374352,-0.557056,0.363682,9.87840175628662,0.78618371486664,1.01712167263031,1.54212772846222,-1.80398547649384,1.71082556247711
163,3963380517,0.645779,0.374505,-0.557147,0.363747,9.83248805999756,0.79007440805435,0.95872908830643,2.36863684654236,-1.46375942230225,0.80499434471130
164,3963397184,0.645618,0.374655,-0.557250,0.363721,9.83601760864258,0.80057263374329,0.98844838142395,1.89636445045471,-1.57928550243378,0.33179974555969
165,3963413851,0.645497,0.374731,-0.557348,0.363707,9.88175678253174,0.82035100460052,1.02954292297363,1.48987770080566,-1.18250632286072,0.55471980571747
166,3963430518,0.645417,0.374770,-0.557414,0.363709,9.86660957336426,0.78458017110825,0.98041516542435,1.35086500644684,-0.75090676546097,0.58379030227661
167,3963447185,0.645342,0.374839,-0.557445,0.363724,9.83550548553467,0.81505954265594,0.96719783544540,1.58080315589905,-0.62431597709656,0.42298093438148
168,3963463852,0.645269,0.374933,-0.557466,0.363724,9.83607864379883,0.77904999256134,0.94901359081268,1.64858710765839,-0.67280077934265,0.22042290866375
169,3963480519,0.645200,0.375028,-0.557477,0.363731,9.82027339935303,0.78116226196289,0.95524096488953,1.70665121078491,-0.59076339006424,0.22147302329540
170,3963497186,0.645150,0.375095,-0.557510,0.363700,9.80623531341553,0.81643146276474,0.94957679510117,1.42543625831604,-0.63932496309280,0.17268082499504
171,3963513853,0.645122,0.375137,-0.557563,0.363624,9.82342147827148,0.82150870561600,0.93773359060287,0.94085687398911,-0.70730102062225,0.06002335622907
172,3963530520,0.645100,0.375150,-0.557634,0.363542,9.83890628814697,0.83350670337677,0.94523060321808,0.73981004953384,-0.70868414640427,0.17845647037029
173,3963547187,0.645053,0.375161,-0.557719,0.363483,9.83942890167236,0.83275687694550,0.96806317567825,0.87144654989243,-0.79667663574219,0.38909536600113
174,3963563854,0.645044,0.375184,-0.557759,0.363414,9.83611774444580,0.82078707218170,1.01021301746368,0.86419808864594,-0.50845688581467,0.07942496985197
175,3963580521,0.645026,0.375245,-0.557759,0.363384,9.85586833953857,0.76198035478592,0.89827114343643,1.32126951217651,-0.36042827367783,0.03287389874458
176,3963597188,0.645096,0.375195,-0.557759,0.363311,9.84158325195312,0.83399659395218,1.01173412799835,0.46435821056366,0.14299570024014,0.04177431017160
177,3963613855,0.645110,0.375205,-0.557773,0.363254,9.79791259765625,0.76835691928864,0.87587457895279,0.88548225164413,-0.23904971778393,0.06492818892002
178,3963630522,0.645079,0.375209,-0.557853,0.363181,9.85323333740234,0.76494389772415,1.04840505123138,0.73860615491867,-0.73096722364426,0.29785004258156
179,3963647189,0.645038,0.375304,-0.557797,0.363243,9.80455780029297,0.80848288536072,0.93524885177612,2.05498361587524,-0.04914436489344,0.21709322929382
180,3963663856,0.644942,0.375444,-0.557797,0.363268,9.85699558258057,0.80660367012024,0.97814363241196,2.09999823570251,-0.71488249301910,0.16662342846394
181,3963680523,0.644899,0.375512,-0.557787,0.363289,9.85970306396484,0.82851701974869,0.98014044761658,1.63968646526337,-0.29950848221779,0.26699957251549
182,3963697190,0.644919,0.375501,-0.557766,0.363297,9.85223102569580,0.84259819984436,0.96818256378174,1.09964275360107,0.15791510045528,0.32867494225502
183,3963713857,0.644984,0.375492,-0.557703,0.363288,9.83490753173828,0.84124130010605,0.94935119152069,1.07285189628601,0.46613839268684,0.02143782936037
184,3963730524,0.645027,0.375542,-0.557602,0.363316,9.85666370391846,0.84576123952866,0.96543222665787,1.57938146591187,0.50326395034790,-0.08110900968313
185,3963747191,0.645053,0.375656,-0.557451,0.363384,9.84712409973145,0.79805213212967,0.96623128652573,2.19600749015808,0.59342074394226,-0.24138048291206
186,3963763858,0.645086,0.375739,-0.557327,0.363428,9.83125877380371,0.77238386869431,0.95088964700699,1.88745081424713,0.52417665719986,-0.17103520035744
187,3963780525,0.645105,0.375785,-0.557256,0.363456,9.81974411010742,0.80021911859512,0.94325238466263,1.56069707870483,0.28578650951385,0.07149785012007
188,3963797192,0.645129,0.375799,-0.557214,0.363465,9.81243515014648,0.84233754873276,0.91776829957962,1.28610312938690,0.20778301358223,0.16832664608955
189,3963813859,0.645149,0.375826,-0.557184,0.363449,9.80590057373047,0.83665686845779,0.92772352695465,1.20163261890411,0.03679264709353,0.05207061767578
190,3963830526,0.645138,0.375882,-0.557158,0.363448,9.81159496307373,0.82589536905289,0.94542855024338,1.54252469539642,-0.12640507519245,0.10442297160625
191,3963847193,0.645105,0.375984,-0.557141,0.363427,9.83478736877441,0.83603346347809,0.92662429809570,1.62688040733337,-0.41905578970909,-0.09177670627832
192,3963863860,0.645071,0.376087,-0.557135,0.363391,9.83831691741943,0.82583773136139,0.95181149244308,1.53649294376373,-0.51620471477509,-0.13667576014996
193,3963880527,0.645052,0.376150,-0.557145,0.363345,9.82922363281250,0.83447086811066,0.92917799949646,1.19193828105927,-0.45697540044785,-0.02514526806772
194,3963897194,0.645059,0.376198,-0.557162,0.363257,9.81983852386475,0.83769541978836,0.94668906927109,0.94180452823639,-0.45911401510239,-0.19434274733067
195,3963913861,0.645081,0.376250,-0.557173,0.363147,9.81277847290039,0.81949073076248,0.90886527299881,0.87348264455795,-0.43794512748718,-0.36022338271141
196,3963930528,0.645090,0.376329,-0.557205,0.362998,9.80541229248047,0.82057791948318,0.91076302528381,0.81602060794830,-0.75002312660217,-0.55076909065247
197,3963947195,0.645090,0.376388,-0.557281,0.362821,9.80753231048584,0.81216537952423,0.91769158840179,0.58738887310028,-0.99481654167175,-0.45329996943474
198,3963963862,0.645073,0.376397,-0.557430,0.362614,9.80262184143066,0.80294430255890,0.92436236143112,0.07386703044176,-1.34571051597595,-0.17043331265450
199,3963980529,0.645055,0.376382,-0.557596,0.362405,9.79160976409912,0.83601140975952,0.90291839838028,-0.07631944864988,-1.37109255790710,-0.03866877406836
200,3963997196,0.645011,0.376454,-0.557723,0.362213,9.81795310974121,0.84820532798767,0.96992826461792,0.51021778583527,-1.46884357929230,-0.33922100067139
201,3964013863,0.644970,0.376598,-0.557804,0.362011,9.83299350738525,0.82806992530823,0.96581578254700,0.86691290140152,-1.45717668533325,-0.78477936983109
202,3964030530,0.644953,0.376749,-0.557855,0.361805,9.86773967742920,0.81792193651199,0.96981781721115,0.87496823072433,-1.26389050483704,-0.96846097707748
203,3964047197,0.644972,0.376851,-0.557888,0.361614,9.86574554443359,0.81868714094162,0.99757122993469,0.71180254220963,-0.88300430774689,-0.84454673528671
204,3964063864,0.645011,0.376957,-0.557884,0.361442,9.84774780273438,0.81003904342651,0.96798288822174,0.83183646202087,-0.60003513097763,-0.92853069305420
205,3964080531,0.645055,0.376991,-0.557909,0.361290,9.80900764465332,0.80413007736206,0.98837411403656,0.53311550617218,-0.48289540410042,-0.49525356292725
206,3964097198,0.644896,0.377240,-0.557912,0.361307,9.81214046478271,0.80563759803772,0.75372952222824,2.70394539833069,-1.25993335247040,-0.12233265489340
207,3964113865,0.644768,0.377418,-0.558052,0.361135,9.85777378082275,0.87159693241119,1.15365481376648,1.24528944492340,-2.06202101707458,-0.41498336195946
208,3964130532,0.644856,0.377385,-0.558038,0.361032,9.83705234527588,0.80017638206482,0.91650682687759,0.41027706861496,0.15422686934471,-0.23094332218170
209,3964147199,0.644918,0.377243,-0.558162,0.360879,9.78883075714111,0.88209676742554,0.85976272821426,-0.54043436050415,-0.41548278927803,0.38714876770973
210,3964163866,0.644918,0.377250,-0.558232,0.360764,9.74442005157471,0.81944936513901,0.86259096860886,0.55228662490845,-0.68585044145584,0.00138308585156
211,3964180533,0.644734,0.377312,-0.558413,0.360748,9.83147048950195,0.81771600246429,0.88569623231888,1.33917295932770,-1.76455509662628,0.96725082397461
212,3964197200,0.644489,0.377529,-0.558487,0.360844,9.85509204864502,0.85030239820480,0.90932095050812,2.94133687019348,-1.62031710147858,0.74740421772003
213,3964213867,0.644271,0.377836,-0.558531,0.360843,9.83084774017334,0.83678323030472,0.88495755195618,2.92786431312561,-1.85720872879028,-0.17407029867172
214,3964230534,0.644120,0.378023,-0.558610,0.360795,9.87408065795898,0.87014150619507,0.96185213327408,1.96679913997650,-1.58078384399414,-0.00170964770950
215,3964247201,0.644038,0.378068,-0.558723,0.360720,9.84664440155029,0.90309959650040,0.93403184413910,0.98630654811859,-1.17617988586426,0.34381207823753
216,3964263868,0.643979,0.378063,-0.558835,0.360657,9.85095405578613,0.86639964580536,0.87822091579437,0.75853294134140,-0.93772584199905,0.52956819534302
217,3964280535,0.643913,0.378127,-0.558888,0.360625,9.81688499450684,0.88829457759857,0.86479038000107,1.31539142131805,-0.79036313295364,0.27103358507156
218,3964297202,0.643814,0.378274,-0.558912,0.360610,9.82478332519531,0.84906399250031,0.85373705625534,1.90717303752899,-0.95213288068771,0.02300020493567
219,3964313869,0.643700,0.378435,-0.558920,0.360634,9.80082511901855,0.84418272972107,0.84900951385498,2.17666959762573,-0.87497472763062,0.14400739967823
220,3964330536,0.643618,0.378561,-0.558945,0.360608,9.81455802917480,0.89344829320908,0.86854207515717,1.74280321598053,-0.86543387174606,0.02405032329261
221,3964347203,0.643581,0.378653,-0.558987,0.360511,9.84797286987305,0.90332013368607,0.87154608964920,1.14236474037170,-0.87030035257339,-0.22999562323093
222,3964363870,0.643543,0.378722,-0.559033,0.360436,9.86625480651855,0.89521360397339,0.89292132854462,1.14755129814148,-0.77598160505295,-0.03151002153754
223,3964380537,0.643522,0.378788,-0.559036,0.360400,9.87017917633057,0.87480080127716,0.91660529375076,1.32746791839600,-0.40952786803246,0.00072996190283
224,3964397204,0.643519,0.378841,-0.559008,0.360392,9.86147880554199,0.86638581752777,0.88074100017548,1.42760074138641,-0.09970384091139,0.04455329477787
225,3964413871,0.643510,0.378904,-0.558985,0.360378,9.80317783355713,0.88081473112106,0.86480593681335,1.45520484447479,-0.18112021684647,0.01244136877358
226,3964430538,0.643507,0.378961,-0.558950,0.360378,9.78593158721924,0.87556219100952,0.80439233779907,1.46369540691376,-0.06864203512669,0.05164160579443
227,3964447205,0.643432,0.378998,-0.559058,0.360304,9.79144763946533,0.83928525447845,0.87293541431427,0.93547171354294,-1.10737788677216,0.34708407521248
228,3964463872,0.643359,0.379063,-0.559083,0.360328,9.85036087036133,0.84558367729187,0.88150191307068,1.59572899341583,-0.55082678794861,0.45107167959213
229,3964480539,0.643235,0.379146,-0.559156,0.360350,9.79977798461914,0.87777012586594,0.84905511140823,1.75041663646698,-1.01004958152771,0.63334447145462
230,3964497206,0.643131,0.379219,-0.559208,0.360377,9.83894252777100,0.88413369655609,0.88969963788986,1.69889664649963,-0.79756671190262,0.58433455228806
231,3964513873,0.643049,0.379229,-0.559287,0.360390,9.84030342102051,0.90187287330627,0.88817828893661,1.28952908515930,-0.71185374259949,0.78315311670303
232,3964530540,0.643016,0.379188,-0.559372,0.360360,9.84401798248291,0.86884498596191,0.88148778676987,0.72029960155487,-0.53983891010284,0.68392950296402
233,3964547207,0.642999,0.379138,-0.559443,0.360334,9.84157752990723,0.88513016700745,0.87668925523758,0.69285553693771,-0.38375502824783,0.65526884794235
234,3964563874,0.642965,0.379128,-0.559489,0.360333,9.85195255279541,0.85965597629547,0.89494192600250,1.04340398311615,-0.37829962372780,0.59465646743774
235,3964580541,0.642935,0.379092,-0.559540,0.360344,9.83780097961426,0.83650159835815,0.88480055332184,0.94922578334808,-0.27843567728996,0.74504137039185
236,3964597208,0.642886,0.379074,-0.559604,0.360354,9.82322692871094,0.82836705446243,0.83862578868866,1.00649595260620,-0.46828982234001,0.74940842390060
237,3964613875,0.642819,0.379039,-0.559708,0.360348,9.82260513305664,0.85113078355789,0.83859592676163,0.85288375616074,-0.70886999368668,0.89506787061691
238,3964630542,0.642751,0.378988,-0.559841,0.360316,9.82864570617676,0.87397843599319,0.86839359998703,0.64278268814087,-0.86650329828262,0.92433035373688
239,3964647209,0.642685,0.378903,-0.560003,0.360271,9.83995437622070,0.87506490945816,0.85230386257172,0.35867387056351,-0.93554234504700,1.06763339042664
240,3964663876,0.642643,0.378816,-0.560145,0.360217,9.85501289367676,0.87563765048981,0.82811123132706,0.28026053309441,-0.77629536390305,0.92704528570175
241,3964680543,0.642603,0.378764,-0.560272,0.360145,9.83501625061035,0.86450839042664,0.81787317991257,0.43114495277405,-0.83161878585815,0.66164648532867
242,3964697210,0.642541,0.378745,-0.560398,0.360079,9.84822845458984,0.82302743196487,0.81840085983276,0.63198697566986,-0.98168349266052,0.62047410011292
243,3964713877,0.642492,0.378708,-0.560530,0.360001,9.86452007293701,0.85866385698318,0.84723746776581,0.48421451449394,-0.94257307052612,0.61252129077911
244,3964730544,0.642487,0.378644,-0.560629,0.359922,9.85820484161377,0.86356824636459,0.87653911113739,0.28919938206673,-0.57218766212463,0.51651209592819
245,3964747211,0.642506,0.378559,-0.560736,0.359812,9.84921455383301,0.86057853698730,0.83883875608444,0.01376042235643,-0.53334599733353,0.42452406883240
246,3964763878,0.642534,0.378500,-0.560819,0.359694,9.84037876129150,0.84077364206314,0.83031308650970,0.12468901276588,-0.47820186614990,0.20576600730419
247,3964780545,0.642528,0.378462,-0.560916,0.359594,9.83499050140381,0.84353399276733,0.81195282936096,0.34946608543396,-0.68119531869888,0.32868131995201
248,3964797212,0.642519,0.378451,-0.560988,0.359508,9.84968090057373,0.83066910505295,0.81551939249039,0.54171508550644,-0.61237412691116,0.21797049045563
249,3964813879,0.642510,0.378435,-0.561048,0.359449,9.83478069305420,0.81475073099136,0.79672718048096,0.65270763635635,-0.48062226176262,0.32960343360901
250,3964830546,0.642484,0.378420,-0.561117,0.359404,9.85568046569824,0.83158671855927,0.84603327512741,0.78677737712860,-0.54688239097595,0.45323592424393
251,3964847213,0.642466,0.378433,-0.561153,0.359365,9.86082172393799,0.82979601621628,0.82754993438721,0.96733409166336,-0.42431277036667,0.26733896136284
252,3964863880,0.642479,0.378409,-0.561185,0.359317,9.83635139465332,0.83406811952591,0.85429155826569,0.73592329025269,-0.21419899165630,0.28325724601746
253,3964880547,0.642487,0.378344,-0.561235,0.359293,9.84776878356934,0.82120037078857,0.86142081022263,0.55984872579575,-0.15940062701702,0.60675835609436
254,3964897214,0.642302,0.378512,-0.561252,0.359422,9.81305217742920,0.82318925857544,0.66568773984909,2.80688929557800,-0.92924147844315,0.77714693546295
255,3964913881,0.642273,0.378456,-0.561399,0.359300,9.91989517211914,0.84042590856552,1.03337979316711,0.13931387662888,-0.99646204710007,0.48791551589966
256,3964930548,0.642354,0.378239,-0.561486,0.359248,9.81507778167725,0.81290453672409,0.71587574481964,-0.43115136027336,0.26658338308334,0.98122882843018
257,3964947215,0.642441,0.377998,-0.561640,0.359106,9.81600570678711,0.87164223194122,0.80313980579376,-1.13369488716125,-0.18094091117382,0.84131950139999
258,3964963882,0.642463,0.377862,-0.561788,0.358981,9.79095745086670,0.80668473243713,0.80428493022919,-0.39058089256287,-0.61793202161789,0.65710020065308
259,3964980549,0.642353,0.377774,-0.561987,0.358958,9.84439277648926,0.81448602676392,0.83301597833633,0.46088132262230,-1.21025121212006,1.37469112873077
260,3964997216,0.642243,0.377809,-0.562075,0.358978,9.85626125335693,0.82459557056427,0.79529231786728,1.39721763134003,-0.90882819890976,0.80756199359894
261,3965013883,0.642150,0.377863,-0.562191,0.358908,9.84945964813232,0.82869982719421,0.81141084432602,1.03356850147247,-1.25143659114838,0.35996726155281
262,3965030550,0.642083,0.377855,-0.562322,0.358830,9.86660575866699,0.86880683898926,0.83600932359695,0.63986277580261,-1.07925510406494,0.54441708326340
263,3965047217,0.642052,0.377826,-0.562417,0.358767,9.89003562927246,0.84479725360870,0.84561848640442,0.60451740026474,-0.69306683540344,0.51665294170380
264,3965063884,0.642054,0.377784,-0.562459,0.358741,9.85320091247559,0.82223695516586,0.83321434259415,0.71267974376678,-0.20368498563766,0.49612435698509
265,3965080551,0.642034,0.377830,-0.562441,0.358758,9.81303024291992,0.82124125957489,0.78127038478851,1.47707819938660,-0.12913924455643,0.25387948751450
266,3965097218,0.641984,0.377919,-0.562415,0.358794,9.82253932952881,0.81215476989746,0.79094946384430,1.85209906101227,-0.26308083534241,0.21948161721230
267,3965113885,0.641925,0.377984,-0.562414,0.358832,9.82010078430176,0.80550777912140,0.80401611328125,1.66786694526672,-0.35319912433624,0.41042426228523
268,3965130552,0.641889,0.378015,-0.562441,0.358822,9.81553459167480,0.85125553607941,0.79194217920303,1.25989508628845,-0.41761505603790,0.34571382403374
269,3965147219,0.641879,0.378005,-0.562466,0.358810,9.85855674743652,0.86374503374100,0.83803051710129,1.01031219959259,-0.21594066917896,0.43409040570259
270,3965163886,0.641880,0.377977,-0.562482,0.358814,9.88099479675293,0.86488187313080,0.83830183744431,1.03710305690765,-0.04701211303473,0.51383560895920
271,3965180553,0.641904,0.377982,-0.562418,0.358866,9.88773632049561,0.85855931043625,0.83916151523590,1.44636833667755,0.43998134136200,0.34249943494797
272,3965197220,0.641930,0.378041,-0.562289,0.358958,9.87964153289795,0.78858208656311,0.74483615159988,2.00898981094360,0.70229387283325,0.13005489110947
273,3965213887,0.642040,0.377999,-0.562181,0.358976,9.81233119964600,0.85442531108856,0.88486880064011,0.98947626352310,0.99085938930511,0.03893770650029
274,3965230554,0.642075,0.377987,-0.562141,0.358990,9.79680442810059,0.78883892297745,0.69827497005463,1.13339412212372,0.31713005900383,0.27676445245743
275,3965247221,0.642045,0.377960,-0.562175,0.359017,9.85285663604736,0.82236343622208,0.86507952213287,1.08697104454041,-0.19363200664520,0.73296511173248
276,3965263888,0.642027,0.378016,-0.562068,0.359158,9.83292293548584,0.84751725196838,0.80122101306915,2.23293447494507,0.56693071126938,0.52424716949463
277,3965280555,0.641983,0.378111,-0.561992,0.359256,9.85075283050537,0.84304434061050,0.82678747177124,2.21971821784973,0.12097518891096,0.32952660322189
278,3965297222,0.642008,0.378148,-0.561890,0.359332,9.85890769958496,0.85241091251373,0.88404601812363,1.72370243072510,0.59043025970459,0.21680507063866
279,3965313889,0.642102,0.378098,-0.561792,0.359369,9.84205913543701,0.85992318391800,0.83476048707962,1.04456913471222,0.95967572927475,0.22109521925449
280,3965330556,0.642218,0.378013,-0.561731,0.359348,9.84051036834717,0.84762245416641,0.84181767702103,0.49717450141907,0.80852246284485,0.14024874567986
281,3965347223,0.642317,0.377929,-0.561650,0.359386,9.84816741943359,0.85464614629745,0.84344077110291,0.82309615612030,0.97953855991364,0.38660451769829
282,3965363890,0.642389,0.377889,-0.561539,0.359472,9.83971977233887,0.82550227642059,0.85978847742081,1.35989999771118,1.03227496147156,0.41810807585716
283,3965380557,0.642446,0.377815,-0.561477,0.359544,9.82952785491943,0.80355370044708,0.81936341524124,1.02876603603363,0.79581862688065,0.65000551939011
284,3965397224,0.642519,0.377697,-0.561439,0.359598,9.83506584167480,0.81313079595566,0.85388094186783,0.67646336555481,0.81662887334824,0.77188354730606
285,3965413891,0.642569,0.377606,-0.561431,0.359616,9.82742881774902,0.82077175378799,0.81877475976944,0.66451501846313,0.43615224957466,0.63301140069962
286,3965430558,0.642613,0.377504,-0.561458,0.359602,9.83098316192627,0.84353786706924,0.83306318521500,0.46864196658134,0.21174657344818,0.65100431442261
287,3965447225,0.642646,0.377417,-0.561494,0.359579,9.81590938568115,0.83359247446060,0.80703914165497,0.46095815300941,0.06118234246969,0.59707689285278
288,3965463892,0.642644,0.377371,-0.561517,0.359595,9.82729816436768,0.80738586187363,0.80545932054520,0.91918224096298,-0.01316492911428,0.66574448347092
289,3965480559,0.642608,0.377391,-0.561523,0.359630,9.83232975006104,0.79776328802109,0.80634558200836,1.41878354549408,-0.19323502480984,0.53228956460953
290,3965497226,0.642566,0.377370,-0.561588,0.359623,9.83472728729248,0.80275291204453,0.83227163553238,0.95290136337280,-0.47648590803146,0.67497789859772
291,3965513893,0.642548,0.377284,-0.561695,0.359580,9.84955501556396,0.83989804983139,0.86848759651184,0.32900151610374,-0.50371217727661,0.81089162826538
292,3965530560,0.642572,0.377128,-0.561796,0.359542,9.87176322937012,0.85224604606628,0.87162226438522,-0.00966879352927,-0.12811471521854,0.99246001243591
293,3965547227,0.642634,0.377031,-0.561818,0.359498,9.82845306396484,0.84716421365738,0.80030548572540,0.30227467417717,0.20872430503368,0.43511492013931
294,3965563894,0.642682,0.377008,-0.561826,0.359424,9.82269001007080,0.82282793521881,0.82901841402054,0.56764787435532,-0.04812626540661,0.01716691255569
295,3965580561,0.642700,0.377034,-0.561831,0.359359,9.84228324890137,0.82358920574188,0.83266788721085,0.96437585353851,-0.24460129439831,-0.06440313160419
296,3965597228,0.642697,0.377102,-0.561822,0.359306,9.83489418029785,0.81182378530502,0.85867148637772,1.23110651969910,-0.33689665794373,-0.16256381571293
297,3965613895,0.642698,0.377133,-0.561823,0.359269,9.86414909362793,0.82143926620483,0.87616074085236,1.10135245323181,-0.23696869611740,0.06930156052113
298,3965630562,0.642729,0.377160,-0.561783,0.359249,9.86681938171387,0.80824309587479,0.88495635986328,1.04368543624878,0.10816884040833,-0.02850693278015
299,3965647229,0.642843,0.377109,-0.561711,0.359211,9.87324714660645,0.81365758180618,0.89722687005997,0.61166322231293,0.71463912725449,-0.09086104482412
300,3965663896,0.642919,0.377050,-0.561665,0.359209,9.83823585510254,0.83034628629684,0.86824202537537,0.73404073715210,0.57901990413666,0.26370194554329
301,3965680563,0.642865,0.377225,-0.561544,0.359309,9.79209136962891,0.80638021230698,0.71127301454544,2.69729256629944,0.08519423007965,-0.06310968101025
302,3965697230,0.642913,0.377192,-0.561580,0.359202,9.92892837524414,0.79238742589951,1.07686400413513,0.33343252539635,-0.23369026184082,-0.01833869144320
303,3965713897,0.643081,0.377061,-0.561504,0.359160,9.70934581756592,0.83225679397583,0.64708399772644,0.12819795310497,1.13864457607269,0.06177142634988
304,3965730564,0.643160,0.376905,-0.561624,0.358994,9.81674480438232,0.76661020517349,0.83753740787506,-0.78396636247635,-0.33388713002205,0.32933452725410
305,3965747231,0.643127,0.376811,-0.561767,0.358928,9.78709697723389,0.82512009143829,0.83189576864243,0.16828183829784,-0.76731801033020,0.87374520301819
306,3965763898,0.642976,0.376838,-0.561855,0.359032,9.91129112243652,0.81491714715958,0.90014314651489,1.83687245845795,-0.82917273044586,1.30927646160126
307,3965780565,0.642856,0.377016,-0.561786,0.359168,9.85921859741211,0.80866539478302,0.83250761032104,2.90871262550354,-0.30644315481186,0.38242962956429
308,3965797232,0.642768,0.377195,-0.561722,0.359237,9.84774017333984,0.83079725503922,0.86759829521179,2.56436300277710,-0.38200062513351,0.01314571872354
309,3965813899,0.642752,0.377284,-0.561655,0.359278,9.86334514617920,0.84319877624512,0.89094150066376,1.88731634616852,0.05671291425824,0.05850580707192
310,3965830566,0.642764,0.377327,-0.561570,0.359343,9.84353446960449,0.80318933725357,0.84806329011917,1.73759770393372,0.42542058229446,0.22614097595215
311,3965847233,0.642773,0.377380,-0.561486,0.359403,9.80634975433350,0.81772202253342,0.80618739128113,1.80445933341980,0.36930310726166,0.17512042820454
312,3965863900,0.642756,0.377477,-0.561408,0.359453,9.77855682373047,0.81702047586441,0.81866604089737,1.96661341190338,0.10464708507061,0.03295713663101
313,3965880567,0.642691,0.377518,-0.561407,0.359527,9.80326271057129,0.82026296854019,0.84594559669495,1.74978911876678,-0.21489053964615,0.67634814977646
314,3965897234,0.642633,0.377536,-0.561413,0.359604,9.81064033508301,0.84399008750916,0.82699435949326,1.62082946300507,-0.16016902029514,0.78764814138412
315,3965913901,0.642623,0.377566,-0.561389,0.359627,9.84425354003906,0.87880140542984,0.82457536458969,1.36652064323425,-0.01107749342918,0.29251623153687
316,3965930568,0.642662,0.377592,-0.561323,0.359633,9.85096454620361,0.86227858066559,0.85432720184326,1.30215597152710,0.33135786652565,0.00938065070659
317,3965947235,0.642697,0.377618,-0.561245,0.359666,9.86533927917480,0.85711294412613,0.88031220436096,1.45277142524719,0.43735605478287,0.10727238655090
318,3965963902,0.642748,0.377636,-0.561157,0.359693,9.88680076599121,0.84858000278473,0.78283643722534,1.39408016204834,0.55102533102036,0.04494388774037
319,3965980569,0.642844,0.377619,-0.561082,0.359656,9.79845619201660,0.86389094591141,0.86857920885086,0.83560782670975,0.58610177040100,-0.17691971361637
320,3965997236,0.642978,0.377492,-0.561054,0.359594,9.81955432891846,0.83731526136398,0.85486739873886,0.04181913658977,0.72962260246277,0.17058698832989
321,3966013903,0.643075,0.377353,-0.561042,0.359584,9.81698131561279,0.81584703922272,0.79485893249512,0.24191834032536,0.68706703186035,0.57064455747604
322,3966030570,0.643124,0.377340,-0.560983,0.359604,9.81366062164307,0.83037370443344,0.83084303140640,1.13339400291443,0.46504336595535,0.21439749002457
323,3966047237,0.643107,0.377378,-0.560968,0.359616,9.80288791656494,0.83807587623596,0.85386818647385,1.41387867927551,-0.12127613276243,0.25749087333679
324,3966063904,0.643102,0.377356,-0.560966,0.359653,9.82894039154053,0.86977595090866,0.85853046178818,1.15274441242218,0.07277208566666,0.60549062490463
325,3966080571,0.643155,0.377301,-0.560966,0.359615,9.81762218475342,0.84596973657608,0.83536982536316,0.61099731922150,0.18052469193935,0.27098873257637
326,3966097238,0.643228,0.377237,-0.560965,0.359553,9.81101322174072,0.83827370405197,0.79505884647369,0.41608473658562,0.22186359763145,0.13923703134060
327,3966113905,0.643275,0.377191,-0.560975,0.359502,9.83213138580322,0.82743424177170,0.85136979818344,0.56013053655624,0.06019625067711,0.21417981386185
328,3966130572,0.643316,0.377135,-0.560976,0.359485,9.83862876892090,0.79213339090347,0.84928810596466,0.68678528070450,0.18605704605579,0.39271309971809
329,3966147239,0.643334,0.377066,-0.560999,0.359489,9.80253314971924,0.78119748830795,0.82214927673340,0.72400051355362,0.08343976736069,0.64945477247238
330,3966163906,0.643338,0.376976,-0.561053,0.359494,9.81352901458740,0.80858832597733,0.84099698066711,0.64589464664459,-0.04609005153179,0.85540658235550
331,3966180573,0.643324,0.376882,-0.561138,0.359484,9.83428382873535,0.81592184305191,0.84773790836334,0.54750347137451,-0.28008764982224,0.92991393804550
332,3966197240,0.643292,0.376813,-0.561209,0.359501,9.82759571075439,0.83280122280121,0.84444320201874,0.78558635711670,-0.28535106778145,0.95625650882721
333,3966213907,0.643255,0.376784,-0.561279,0.359489,9.84612846374512,0.82592296600342,0.83764934539795,0.89071369171143,-0.47474414110184,0.68875753879547
334,3966230574,0.643221,0.376747,-0.561353,0.359474,9.85591793060303,0.81893020868301,0.84345835447311,0.79811090230942,-0.46951922774315,0.70141023397446
335,3966247241,0.643180,0.376712,-0.561423,0.359473,9.86068630218506,0.83320730924606,0.85195767879486,0.92085975408554,-0.44432914257050,0.76681220531464
336,3966263908,0.643158,0.376666,-0.561480,0.359473,9.84673976898193,0.84452378749847,0.87148219347000,0.78860861063004,-0.28544071316719,0.73039096593857
337,3966280575,0.643169,0.376597,-0.561527,0.359451,9.86263751983643,0.82282495498657,0.86473882198334,0.58437293767929,-0.11310569196939,0.61651682853699
338,3966297242,0.643188,0.376535,-0.561553,0.359443,9.81877517700195,0.82516652345657,0.82847762107849,0.69148522615433,0.02344202250242,0.57501149177551
339,3966313909,0.643196,0.376504,-0.561576,0.359424,9.79942417144775,0.79701107740402,0.83834344148636,0.89592576026917,-0.09489504247904,0.43010762333870
340,3966330576,0.643151,0.376507,-0.561599,0.359465,9.81409740447998,0.82099527120590,0.84899842739105,1.31056988239288,-0.24370485544205,0.69197183847427
341,3966347243,0.643082,0.376544,-0.561626,0.359507,9.81875514984131,0.82908737659454,0.85212463140488,1.56254756450653,-0.42993474006653,0.63283210992813
342,3966363910,0.643023,0.376577,-0.561655,0.359534,9.84368801116943,0.83073782920837,0.85419142246246,1.43804419040680,-0.42866691946983,0.56809604167938
343,3966380577,0.642990,0.376604,-0.561659,0.359560,9.83231067657471,0.82360762357712,0.84422296285629,1.40008616447449,-0.20876911282539,0.45149424672127
344,3966397244,0.642895,0.376662,-0.561697,0.359608,9.86484146118164,0.85046595335007,0.85022628307343,1.69925498962402,-0.61932772397995,0.67331296205521
345,3966413911,0.642680,0.376993,-0.561674,0.359682,9.77321624755859,0.82535654306412,0.76929771900177,3.47958135604858,-1.41557562351227,-0.12675724923611
346,3966430578,0.642647,0.377044,-0.561735,0.359591,9.94157409667969,0.79865360260010,0.97259944677353,0.93945467472076,-0.82060527801514,-0.00741487648338
347,3966447245,0.642776,0.376805,-0.561913,0.359335,9.76397418975830,0.80410557985306,0.75506919622421,-1.72039234638214,-0.42720705270767,0.28254011273384
348,3966463912,0.642761,0.376685,-0.562098,0.359196,9.80104160308838,0.79220396280289,0.78425556421280,-0.35079154372215,-0.99653893709183,0.72255343198776
349,3966480579,0.642623,0.376638,-0.562372,0.359065,9.83573436737061,0.85586822032928,0.84916621446609,0.09038081020117,-2.02999854087830,1.00402426719666
350,3966497246,0.642420,0.376718,-0.562556,0.359055,9.90581512451172,0.80630326271057,0.86825722455978,1.50544393062592,-1.88127827644348,0.97445434331894
351,3966513913,0.642263,0.376886,-0.562621,0.359059,9.85016441345215,0.80504328012466,0.80987244844437,2.12002062797546,-1.36023926734924,0.27921044826508
352,3966530580,0.642112,0.377121,-0.562686,0.358980,9.83664131164551,0.80980980396271,0.81877434253693,2.06857776641846,-1.72323524951935,-0.36914303898811
353,3966547247,0.642006,0.377280,-0.562768,0.358876,9.86093425750732,0.81031554937363,0.87464010715485,1.49811899662018,-1.49234962463379,-0.24695765972137
354,3966563914,0.641944,0.377351,-0.562845,0.358790,9.87360477447510,0.80241495370865,0.84066724777222,1.05095946788788,-1.04250097274780,0.04886262863874
355,3966580581,0.641881,0.377435,-0.562901,0.358727,9.84717941284180,0.79863727092743,0.79578822851181,1.21890199184418,-0.92655229568481,0.04754357412457
356,3966597248,0.641814,0.377494,-0.562984,0.358652,9.82902622222900,0.79772800207138,0.77756512165070,1.10183930397034,-1.02543008327484,0.17636266350746
357,3966613915,0.641709,0.377568,-0.563079,0.358613,9.82196807861328,0.79717069864273,0.77380019426346,1.31471920013428,-1.17102551460266,0.39723381400108
358,3966630582,0.641613,0.377633,-0.563187,0.358548,9.82240104675293,0.83853763341904,0.77048206329346,1.10400331020355,-1.23944973945618,0.32877099514008
359,3966647249,0.641527,0.377720,-0.563296,0.358438,9.84379768371582,0.82903224229813,0.78171187639236,1.00750756263733,-1.37797617912292,0.02614416554570
360,3966663916,0.641442,0.377797,-0.563412,0.358326,9.86380195617676,0.83129042387009,0.80142462253571,0.93180930614471,-1.38893830776215,0.06755990535021
361,3966680583,0.641378,0.377847,-0.563503,0.358246,9.89621543884277,0.83324629068375,0.81785237789154,0.95585948228836,-1.04050302505493,0.19668632745743
362,3966697250,0.641285,0.377994,-0.563523,0.358227,9.85805130004883,0.80064952373505,0.71193027496338,1.90117311477661,-0.92383730411530,-0.01910707354546
363,3966713917,0.641303,0.378002,-0.563581,0.358094,9.84436988830566,0.85007840394974,0.85968786478043,0.47302171587944,-0.60964626073837,-0.16057883203030
364,3966730584,0.641284,0.378008,-0.563662,0.357995,9.84880065917969,0.80947220325470,0.70828461647034,0.57111835479736,-0.77329862117767,0.14745870232582
365,3966747251,0.641189,0.378098,-0.563737,0.357951,9.84526443481445,0.79708087444305,0.75897920131683,1.39498937129974,-1.09651827812195,0.23702634871006
366,3966763918,0.641094,0.378253,-0.563768,0.357909,9.82376670837402,0.83019751310349,0.81438630819321,1.79222929477692,-1.06174874305725,-0.11844592541456
367,3966780585,0.640958,0.378418,-0.563830,0.357880,9.84488487243652,0.81364405155182,0.79583042860031,1.88764953613281,-1.34033823013306,0.07469303160906
368,3966797252,0.640848,0.378503,-0.563906,0.357868,9.86303329467773,0.86357009410858,0.78804570436478,1.51504874229431,-1.06892037391663,0.43905925750732
369,3966813919,0.640792,0.378556,-0.563950,0.357842,9.86865711212158,0.86200582981110,0.76743274927139,1.29033589363098,-0.66713398694992,0.28009408712387
370,3966830586,0.640780,0.378578,-0.563994,0.357771,9.86457443237305,0.86802828311920,0.78134417533875,0.81570684909821,-0.54654937982559,0.09709133207798
371,3966847253,0.640770,0.378630,-0.564002,0.357721,9.84494495391846,0.85587990283966,0.81175053119659,1.14193582534790,-0.40097966790199,-0.02311546169221
372,3966863920,0.640758,0.378671,-0.564005,0.357695,9.86228561401367,0.82209819555283,0.80785006284714,1.20587790012360,-0.28367346525192,0.11551968753338
373,3966880587,0.640736,0.378693,-0.564019,0.357690,9.85683631896973,0.80736857652664,0.77688652276993,1.18999803066254,-0.28205987811089,0.33230558037758
374,3966897254,0.640710,0.378687,-0.564055,0.357686,9.86374473571777,0.81466424465179,0.77687621116638,0.97185462713242,-0.32479465007782,0.51295191049576
375,3966913921,0.640710,0.378666,-0.564080,0.357669,9.82303619384766,0.85148888826370,0.77311140298843,0.89222484827042,-0.16415180265903,0.41931194067001
376,3966930588,0.640704,0.378657,-0.564130,0.357610,9.82669830322266,0.85390532016754,0.76370829343796,0.70215302705765,-0.44143491983414,0.26773598790169
377,3966947255,0.640699,0.378642,-0.564174,0.357565,9.84916973114014,0.85520935058594,0.76325893402100,0.78786587715149,-0.35440292954445,0.34340867400169
378,3966963922,0.640663,0.378686,-0.564200,0.357542,9.84872722625732,0.82229894399643,0.71770334243774,1.23663878440857,-0.48438736796379,0.22843325138092
379,3966980589,0.640608,0.378749,-0.564242,0.357507,9.84321498870850,0.83147394657135,0.77584701776505,1.36717379093170,-0.70539933443069,0.20927497744560
380,3966997256,0.640558,0.378769,-0.564306,0.357476,9.85088920593262,0.83525693416595,0.78512102365494,1.04494047164917,-0.66356098651886,0.42486983537674
381,3967013923,0.640519,0.378747,-0.564378,0.357455,9.85061264038086,0.83805894851685,0.79265433549881,0.84860634803772,-0.53900641202927,0.62417501211166
382,3967030590,0.640515,0.378697,-0.564437,0.357421,9.85681629180908,0.85539245605469,0.74057835340500,0.67427361011505,-0.29797816276550,0.56243574619293
383,3967047257,0.640514,0.378676,-0.564468,0.357396,9.82938671112061,0.84199357032776,0.73454517126083,0.82038116455078,-0.21658097207546,0.40243312716484
384,3967063924,0.640489,0.378706,-0.564493,0.357370,9.82866954803467,0.82179355621338,0.72381347417831,1.16703629493713,-0.40849697589874,0.25069069862366
385,3967080591,0.640437,0.378726,-0.564546,0.357358,9.84325218200684,0.83884698152542,0.77687078714371,1.15771329402924,-0.58363664150238,0.48464995622635
386,3967097258,0.640377,0.378748,-0.564598,0.357360,9.86806774139404,0.84617787599564,0.76710319519043,1.24819004535675,-0.56911414861679,0.56105262041092
387,3967113925,0.640343,0.378753,-0.564631,0.357364,9.85834121704102,0.84990423917770,0.76963192224503,1.10634684562683,-0.34911391139030,0.51313120126724
388,3967130592,0.640367,0.378702,-0.564658,0.357331,9.85327339172363,0.82240277528763,0.76527583599091,0.60806471109390,-0.04566744714975,0.41174334287643
389,3967147259,0.640201,0.378878,-0.564648,0.357458,9.82071590423584,0.80757641792297,0.56341171264648,2.81292128562927,-0.76954644918442,0.61355865001678
390,3967163926,0.640073,0.379002,-0.564763,0.357375,9.86538410186768,0.90406304597855,0.95971924066544,1.40770602226257,-1.58381259441376,0.12025803327560
391,3967180593,0.640156,0.378934,-0.564737,0.357340,9.85444259643555,0.79801279306412,0.70606136322021,0.51241409778595,0.44858723878860,0.18719680607319
392,3967197260,0.640207,0.378754,-0.564881,0.357210,9.79553985595703,0.81024360656738,0.61936837434769,-0.69108188152313,-0.39594674110413,0.72657465934753
393,3967213927,0.640139,0.378738,-0.565006,0.357151,9.76300334930420,0.79292637109756,0.68116635084152,0.65889304876328,-0.99226152896881,0.64305156469345
394,3967230594,0.639904,0.378773,-0.565224,0.357190,9.84742355346680,0.80098885297775,0.75329387187958,1.49435365200043,-1.91977405548096,1.53384852409363
395,3967247261,0.639626,0.378945,-0.565340,0.357322,9.87043666839600,0.81129831075668,0.74739527702332,2.77383589744568,-1.73696351051331,1.24400234222412
396,3967263928,0.639406,0.379134,-0.565432,0.357372,9.84040069580078,0.81957203149796,0.74739235639572,2.45032238960266,-1.65908837318420,0.61705482006073
397,3967280595,0.639215,0.379287,-0.565542,0.357376,9.85804557800293,0.83733266592026,0.78216880559921,2.00546789169312,-1.65135312080383,0.52560454607010
398,3967297262,0.639078,0.379347,-0.565654,0.357380,9.88770198822021,0.82904881238937,0.78485530614853,1.43970906734467,-1.22556769847870,0.76463508605957
399,3967313929,0.638975,0.379370,-0.565741,0.357402,9.85822010040283,0.83366960287094,0.73853892087936,1.31535935401917,-0.84868955612183,0.83499318361282
400,3967330596,0.638859,0.379446,-0.565796,0.357443,9.85389137268066,0.83766609430313,0.71236926317215,1.78042185306549,-0.83563983440399,0.66278618574142
401,3967347263,0.638725,0.379542,-0.565849,0.357495,9.84072303771973,0.79600411653519,0.73007893562317,1.94978618621826,-0.92103278636932,0.67898631095886
402,3967363930,0.638606,0.379610,-0.565912,0.357537,9.82441711425781,0.79358690977097,0.69897443056107,1.71726095676422,-0.85741066932678,0.72458970546722
403,3967380597,0.638524,0.379643,-0.565996,0.357516,9.84226989746094,0.82575368881226,0.69314932823181,1.14582896232605,-0.89147567749023,0.54816937446594
404,3967397264,0.638464,0.379658,-0.566101,0.357439,9.84890365600586,0.84799391031265,0.72373414039612,0.76019138097763,-0.99262017011642,0.37650027871132
405,3967413931,0.638406,0.379658,-0.566214,0.357364,9.86939811706543,0.83989530801773,0.72464501857758,0.66349053382874,-0.98667806386948,0.46186736226082
406,3967430598,0.638360,0.379636,-0.566322,0.357299,9.86904430389404,0.82759147882462,0.75259464979172,0.61240607500076,-0.83460265398026,0.54129236936569
407,3967447265,0.638321,0.379649,-0.566359,0.357297,9.88396358489990,0.78648871183395,0.64090138673782,1.13838839530945,-0.41154482960701,0.48301064968109
408,3967463932,0.638307,0.379652,-0.566386,0.357276,9.84525012969971,0.82927340269089,0.74018174409866,0.98655629158020,-0.30178162455559,0.34924834966660
409,3967480599,0.638234,0.379711,-0.566431,0.357273,9.80648899078369,0.80088186264038,0.63723951578140,1.42823457717896,-0.69807416200638,0.40364977717400
410,3967497266,0.638134,0.379692,-0.566587,0.357224,9.88471031188965,0.76402169466019,0.74094521999359,0.74647575616837,-1.21497678756714,0.86722677946091
411,3967513933,0.638042,0.379761,-0.566600,0.357293,9.84039497375488,0.79708623886108,0.66985577344894,1.83072531223297,-0.47100472450256,0.64093852043152
412,3967530600,0.637896,0.379899,-0.566655,0.357320,9.87762737274170,0.79360914230347,0.68664389848709,2.03316831588745,-1.14264643192291,0.43049183487892
413,3967547267,0.637773,0.379981,-0.566724,0.357343,9.85612583160400,0.82392752170563,0.70143193006516,1.67489767074585,-0.98767697811127,0.61407083272934
414,3967563934,0.637709,0.379998,-0.566792,0.357331,9.87035942077637,0.82718884944916,0.68287175893784,1.10981738567352,-0.69313085079193,0.56882601976395
415,3967580601,0.637690,0.379948,-0.566873,0.357289,9.86416912078857,0.81836903095245,0.66331952810287,0.56568837165833,-0.47730541229248,0.62028187513351
416,3967597268,0.637675,0.379923,-0.566921,0.357268,9.84826469421387,0.81587672233582,0.68571060895920,0.81656485795975,-0.32776573300362,0.51564127206802
417,3967613935,0.637656,0.379928,-0.566946,0.357256,9.85369014739990,0.79697370529175,0.70355772972107,1.06295895576477,-0.29110112786293,0.38645079731941
418,3967630602,0.637657,0.379902,-0.566969,0.357244,9.83658885955811,0.77888226509094,0.69785088300705,0.86612540483475,-0.12887029349804,0.45969030261040
419,3967647269,0.637643,0.379879,-0.567023,0.357209,9.87030982971191,0.78663516044617,0.67984753847122,0.75134205818176,-0.38791710138321,0.46086850762367
420,3967663936,0.637613,0.379866,-0.567085,0.357178,9.85076999664307,0.79928392171860,0.66420644521713,0.79788035154343,-0.50510799884796,0.49994066357613
421,3967680603,0.637583,0.379866,-0.567146,0.357134,9.84594345092773,0.81809109449387,0.67111903429031,0.85202562808990,-0.56730854511261,0.38605380058289
422,3967697270,0.637553,0.379859,-0.567211,0.357093,9.85861015319824,0.80239629745483,0.67030256986618,0.78347331285477,-0.56127673387527,0.44186386466026
423,3967713937,0.637524,0.379856,-0.567265,0.357061,9.87185764312744,0.80504363775253,0.65531510114670,0.90828388929367,-0.48790907859802,0.43457704782486
424,3967730604,0.637471,0.379894,-0.567300,0.357058,9.86649990081787,0.81418877840042,0.65154176950455,1.28096127510071,-0.52450966835022,0.40790140628815
425,3967747271,0.637400,0.379982,-0.567322,0.357058,9.86980247497559,0.80261069536209,0.66596543788910,1.58565032482147,-0.65628701448441,0.23789717257023
426,3967763938,0.637350,0.380047,-0.567335,0.357057,9.85107707977295,0.80218923091888,0.67717111110687,1.45653665065765,-0.47845807671547,0.24807821214199
427,3967780605,0.637328,0.380071,-0.567358,0.357034,9.84795379638672,0.80661743879318,0.67992097139359,1.11835944652557,-0.37157621979713,0.27417755126953
428,3967797272,0.637307,0.380059,-0.567402,0.357014,9.84410285949707,0.81385183334351,0.67727780342102,0.95772922039032,-0.36097255349159,0.47749111056328
429,3967813939,0.637282,0.380055,-0.567447,0.356993,9.85100555419922,0.82922852039337,0.65010780096054,0.94535839557648,-0.39683037996292,0.44623082876205
430,3967830606,0.637250,0.380070,-0.567491,0.356965,9.84943866729736,0.82358789443970,0.65918821096420,1.06473910808563,-0.49295487999916,0.37050688266754
431,3967847273,0.637208,0.380128,-0.567512,0.356943,9.82946109771729,0.78573298454285,0.64898049831390,1.32871639728546,-0.51966887712479,0.18604426085949
432,3967863940,0.637136,0.380192,-0.567561,0.356926,9.84578132629395,0.79201048612595,0.67825943231583,1.36874902248383,-0.76279735565186,0.32953932881355
433,3967880607,0.637067,0.380255,-0.567596,0.356927,9.87674427032471,0.81772547960281,0.68644928932190,1.48305857181549,-0.63664209842682,0.36411654949188
434,3967897274,0.637019,0.380320,-0.567609,0.356923,9.87350749969482,0.80246245861053,0.65904331207275,1.46025049686432,-0.48095530271530,0.23624514043331
435,3967913941,0.637028,0.380331,-0.567618,0.356880,9.85583209991455,0.80884528160095,0.68623703718185,0.91691535711288,-0.20522175729275,0.12269122153521
436,3967930608,0.636923,0.380418,-0.567636,0.356947,9.84825420379639,0.77857244014740,0.54386460781097,1.89621698856354,-0.59531587362289,0.60477340221405
437,3967947275,0.636645,0.380638,-0.567774,0.356988,9.79780578613281,0.84618169069290,0.64154970645905,2.57821917533875,-2.19171714782715,0.70887637138367
438,3967963942,0.636641,0.380653,-0.567818,0.356911,9.96372413635254,0.77008193731308,0.80225753784180,0.78048932552338,-0.50773328542709,0.08314522355795
439,3967980609,0.636685,0.380457,-0.567978,0.356785,9.75898265838623,0.79464590549469,0.51288276910782,-0.77109593153000,-0.43998780846596,0.87507706880569
440,3967997276,0.636691,0.380379,-0.568073,0.356707,9.82194614410400,0.80140662193298,0.59977644681931,0.16866603493690,-0.47132495045662,0.54455798864365
441,3968013943,0.636533,0.380345,-0.568300,0.356663,9.85707855224609,0.77369427680969,0.63598030805588,0.59926676750183,-1.71526956558228,1.26736128330231
442,3968030610,0.636313,0.380393,-0.568452,0.356764,9.91935443878174,0.81082475185394,0.69418364763260,1.88992917537689,-1.43908798694611,1.54322278499603
443,3968047277,0.636143,0.380525,-0.568510,0.356832,9.86019134521484,0.80175715684891,0.64011669158936,2.23899197578430,-1.12747108936310,0.70229381322861
444,3968063944,0.636009,0.380630,-0.568596,0.356822,9.89245986938477,0.81253993511200,0.65086477994919,1.64749228954315,-1.24966919422150,0.44537287950516
445,3968080611,0.635931,0.380658,-0.568682,0.356794,9.88414287567139,0.83430111408234,0.66049063205719,1.11856424808502,-0.88756966590881,0.54218882322311
446,3968097278,0.635905,0.380653,-0.568735,0.356762,9.86507797241211,0.79869568347931,0.63916921615601,0.90925723314285,-0.46715000271797,0.42851963639259
447,3968113945,0.635860,0.380682,-0.568766,0.356761,9.86133956909180,0.80105626583099,0.57127857208252,1.26941025257111,-0.44945168495178,0.42247509956360
448,3968130612,0.635757,0.380788,-0.568794,0.356787,9.83892917633057,0.77907145023346,0.59383296966553,1.86014139652252,-0.77500182390213,0.37971463799477
449,3968147279,0.635637,0.380893,-0.568822,0.356844,9.84118938446045,0.77430319786072,0.57916009426117,2.02944135665894,-0.76863706111908,0.56039947271347
450,3968163946,0.635553,0.380937,-0.568893,0.356833,9.83439826965332,0.79602140188217,0.58774530887604,1.30166935920715,-0.83478194475174,0.51889407634735
451,3968180613,0.635491,0.380946,-0.568989,0.356781,9.87132549285889,0.81395900249481,0.59580707550049,0.85904359817505,-0.89039987325668,0.49033591151237
452,3968197280,0.635435,0.380944,-0.569076,0.356745,9.88002014160156,0.81876784563065,0.63731956481934,0.86058026552200,-0.74955564737320,0.56283259391785
453,3968213947,0.635381,0.380954,-0.569131,0.356743,9.89896774291992,0.81025928258896,0.65061432123184,1.11429965496063,-0.54606282711029,0.58178615570068
454,3968230614,0.635373,0.380964,-0.569118,0.356767,9.90312957763672,0.77659010887146,0.61180758476257,1.26471018791199,-0.00522499065846,0.39491581916809
455,3968247281,0.635347,0.381002,-0.569114,0.356779,9.84732246398926,0.80617386102676,0.63166773319244,1.37604880332947,-0.20960152149200,0.31167456507683
456,3968263948,0.635361,0.381019,-0.569076,0.356796,9.82919788360596,0.79638504981995,0.53809303045273,1.33200764656067,0.15952228009701,0.22459134459496
457,3968280615,0.635313,0.380997,-0.569185,0.356731,9.86159420013428,0.75874966382980,0.62015509605408,0.62071728706360,-0.84071117639542,0.55827355384827
458,3968297282,0.635273,0.381000,-0.569195,0.356783,9.88307571411133,0.77029907703400,0.64756321907043,1.40586185455322,-0.13339091837406,0.68804031610489
459,3968313949,0.635182,0.381060,-0.569234,0.356818,9.86805534362793,0.80017852783203,0.63376331329346,1.60748481750488,-0.64903849363327,0.59450268745422
460,3968330616,0.635118,0.381135,-0.569230,0.356859,9.85674858093262,0.77691078186035,0.65258449316025,1.74549889564514,-0.37372767925262,0.37685883045197
461,3968347283,0.635081,0.381129,-0.569262,0.356881,9.88115501403809,0.80896496772766,0.63093876838684,1.17990660667419,-0.28180369734764,0.64846867322922
462,3968363950,0.635079,0.381110,-0.569282,0.356873,9.89393329620361,0.78197467327118,0.62530630826950,0.94428253173828,-0.13089369237423,0.44593629240990
463,3968380617,0.635085,0.381105,-0.569277,0.356874,9.88382625579834,0.76815271377563,0.61187237501144,1.06582760810852,-0.00074276822852,0.34700724482536
464,3968397284,0.635083,0.381111,-0.569248,0.356919,9.88193798065186,0.76822286844254,0.66931891441345,1.38092792034149,0.15615421533585,0.45192965865135
465,3968413951,0.635095,0.381083,-0.569207,0.356993,9.86623287200928,0.75000435113907,0.64295870065689,1.28741598129272,0.42206528782845,0.64401215314865
466,3968430618,0.635140,0.380981,-0.569195,0.357040,9.85526084899902,0.76236945390701,0.63470202684402,0.74150687456131,0.53944832086563,0.81390112638474
467,3968447285,0.635187,0.380886,-0.569185,0.357074,9.86407947540283,0.78539699316025,0.60957503318787,0.71866035461426,0.47937372326851,0.72802180051804
468,3968463952,0.635202,0.380855,-0.569168,0.357108,9.84522342681885,0.81633335351944,0.59026056528091,1.09612739086151,0.23896008729935,0.53390306234360
469,3968480619,0.635217,0.380863,-0.569141,0.357115,9.82999420166016,0.80781286954880,0.56530594825745,1.14654612541199,0.10687538981438,0.24205921590328
470,3968497286,0.635225,0.380853,-0.569146,0.357103,9.82875251770020,0.80692386627197,0.58565795421600,0.94113230705261,-0.05943427234888,0.33361181616783
471,3968513953,0.635215,0.380863,-0.569150,0.357106,9.86251640319824,0.80871409177780,0.59473669528961,1.14942741394043,-0.14262430369854,0.35388422012329
472,3968530620,0.635209,0.380882,-0.569134,0.357120,9.86727333068848,0.78627985715866,0.57689458131790,1.26358342170715,-0.02924970164895,0.31003534793854
473,3968547287,0.635217,0.380876,-0.569133,0.357113,9.87054824829102,0.79033440351486,0.61239802837372,1.03002107143402,-0.03035104647279,0.32405826449394
474,3968563954,0.635249,0.380823,-0.569156,0.357077,9.86793231964111,0.79235541820526,0.62828928232193,0.61450630426407,-0.00589092075825,0.38403043150902
475,3968580621,0.635267,0.380786,-0.569180,0.357047,9.85789012908936,0.77169907093048,0.61235398054123,0.68194454908371,-0.08668617904186,0.37583437561989
476,3968597288,0.635283,0.380757,-0.569194,0.357025,9.84759998321533,0.79014223814011,0.62148654460907,0.80121010541916,-0.04787013679743,0.36619117856026
477,3968613955,0.635291,0.380754,-0.569193,0.357018,9.86291599273682,0.78542596101761,0.62704747915268,1.02941906452179,-0.03954600542784,0.31045791506767
478,3968630622,0.635293,0.380748,-0.569195,0.357016,9.86770057678223,0.77634346485138,0.61610645055771,1.03917765617371,-0.05995932966471,0.36712601780891
479,3968647289,0.635301,0.380751,-0.569180,0.357023,9.86678886413574,0.78761029243469,0.61630278825760,1.10662865638733,0.03974450379610,0.30431085824966
480,3968663956,0.635325,0.380761,-0.569138,0.357035,9.86309242248535,0.77712064981461,0.60668271780014,1.21456062793732,0.22343878448009,0.19646860659122
481,3968680623,0.635328,0.380780,-0.569114,0.357050,9.84656620025635,0.79490953683853,0.60328930616379,1.28060293197632,0.04344554618001,0.26914468407631
482,3968697290,0.635305,0.380818,-0.569094,0.357080,9.85253143310547,0.76686590909958,0.58584028482437,1.47487533092499,-0.08422736823559,0.33446985483170
483,3968713957,0.635271,0.380836,-0.569097,0.357119,9.88278961181641,0.78364056348801,0.60307735204697,1.37002968788147,-0.15330481529236,0.54513424634933
484,3968730624,0.635271,0.380811,-0.569086,0.357161,9.87433528900146,0.80150616168976,0.62891054153442,1.17671799659729,0.15701225399971,0.59673112630844
485,3968747291,0.635298,0.380778,-0.569069,0.357176,9.86990070343018,0.78969305753708,0.62697267532349,0.97700285911560,0.23718000948429,0.43688225746155
486,3968763958,0.635374,0.380688,-0.569053,0.357162,9.83457756042480,0.80608785152435,0.61687427759171,0.47583910822868,0.48636594414711,0.41120544075966
487,3968780625,0.635282,0.380764,-0.569035,0.357274,9.82900142669678,0.76662695407867,0.46707031130791,2.12947201728821,-0.24228332936764,0.71903175115585
488,3968797292,0.635134,0.380930,-0.569089,0.357275,9.82196331024170,0.83955806493759,0.73035115003586,2.07802891731262,-1.28833162784576,0.21035070717335
489,3968813959,0.635187,0.380899,-0.569084,0.357221,9.91038227081299,0.74002802371979,0.65438145399094,0.61277741193771,0.10537704825401,0.08838301897049
490,3968830626,0.635282,0.380652,-0.569251,0.357051,9.78809165954590,0.79734516143799,0.54360151290894,-1.23979556560516,-0.25537145137787,0.78493326902390
491,3968847293,0.635322,0.380548,-0.569310,0.356996,9.83011054992676,0.75277018547058,0.58273226022720,0.12144902348518,-0.06156012043357,0.57177144289017
492,3968863960,0.635164,0.380461,-0.569545,0.356993,9.86788368225098,0.75546079874039,0.62822133302689,0.53517097234726,-1.49996948242188,1.68066060543060
493,3968880627,0.634983,0.380535,-0.569626,0.357109,9.90989589691162,0.80583781003952,0.65828579664230,2.13376212120056,-1.00850009918213,1.22121989727020
494,3968897294,0.634865,0.380665,-0.569651,0.357138,9.85769271850586,0.76241391897202,0.60725945234299,2.03044056892395,-0.87637698650360,0.32086950540543
495,3968913961,0.634769,0.380727,-0.569730,0.357118,9.88484764099121,0.79197388887405,0.63687819242477,1.35258734226227,-0.98890620470047,0.46226438879967
496,3968930628,0.634736,0.380722,-0.569783,0.357096,9.90583419799805,0.80985081195831,0.65427678823471,0.93355077505112,-0.47211879491806,0.49516391754150
497,3968947295,0.634735,0.380669,-0.569822,0.357093,9.85648345947266,0.78257638216019,0.60166680812836,0.74164772033691,-0.11232449114323,0.64863514900208
498,3968963962,0.634708,0.380654,-0.569849,0.357112,9.84014606475830,0.80068922042847,0.56917363405228,1.14516305923462,-0.20240435004234,0.62989950180054
499,3968980629,0.634653,0.380701,-0.569841,0.357174,9.84706974029541,0.77051723003387,0.60667932033539,1.70660614967346,-0.19456686079502,0.55052566528320
500,3968997296,0.634602,0.380728,-0.569834,0.357246,9.84890747070312,0.74493783712387,0.60383647680283,1.61331188678741,-0.11820260435343,0.66237640380859
501,3969013963,0.634590,0.380702,-0.569865,0.357248,9.85386943817139,0.78126138448715,0.57767146825790,0.95653820037842,-0.17398706078529,0.56848025321960
502,3969030630,0.634599,0.380655,-0.569916,0.357198,9.88064956665039,0.79412901401520,0.60665351152420,0.54248327016830,-0.26673063635826,0.43151634931564
503,3969047297,0.634617,0.380585,-0.569963,0.357167,9.89336299896240,0.78823542594910,0.61535084247589,0.50303983688354,-0.10926377028227,0.56795519590378
504,3969063964,0.634645,0.380509,-0.569980,0.357170,9.91018772125244,0.78922140598297,0.64833551645279,0.67429906129837,0.16547723114491,0.63814675807953
505,3969080631,0.634699,0.380485,-0.569907,0.357218,9.88573169708252,0.75591099262238,0.53481847047806,1.21173036098480,0.65564024448395,0.32697808742523
506,3969097298,0.634785,0.380428,-0.569857,0.357206,9.84528160095215,0.79123896360397,0.65955710411072,0.68823242187500,0.59395205974579,0.17729750275612
507,3969113965,0.634860,0.380385,-0.569808,0.357197,9.82037830352783,0.75000375509262,0.52912539243698,0.76807999610901,0.52463132143021,0.17120167613029
508,3969130632,0.634874,0.380309,-0.569862,0.357167,9.86257553100586,0.73871213197708,0.64744013547897,0.48672455549240,-0.13827016949654,0.62302249670029
509,3969147299,0.634908,0.380324,-0.569773,0.357230,9.82826423645020,0.74554085731506,0.61945211887360,1.55126523971558,0.58680617809296,0.24870572984219
510,3969163966,0.634869,0.380349,-0.569769,0.357279,9.85816860198975,0.76395869255066,0.61436349153519,1.49988591670990,-0.13208468258381,0.55197280645370
511,3969180633,0.634848,0.380368,-0.569729,0.357362,9.88310146331787,0.77200978994370,0.66520094871521,1.65836453437805,0.20000316202641,0.58816361427307
512,3969197300,0.634877,0.380318,-0.569704,0.357403,9.87034225463867,0.78160154819489,0.64500260353088,1.03607845306396,0.38805162906647,0.58608901500702
513,3969213967,0.634986,0.380213,-0.569664,0.357385,9.88591670989990,0.78078538179398,0.63813263177872,0.36770230531693,0.74741053581238,0.31193065643311
514,3969230634,0.635095,0.380128,-0.569609,0.357369,9.87064266204834,0.77631527185440,0.64420533180237,0.49775078892708,0.77033394575119,0.19932442903519
515,3969247301,0.635195,0.380059,-0.569526,0.357396,9.87341308593750,0.76016587018967,0.65400904417038,0.82132881879807,0.92404842376709,0.27288407087326
516,3969263968,0.635281,0.380002,-0.569449,0.357428,9.85088062286377,0.73361825942993,0.65192192792892,0.93484437465668,0.83496761322021,0.29781806468964
517,3969280635,0.635362,0.379931,-0.569392,0.357450,9.84722423553467,0.75146585702896,0.62006711959839,0.77954161167145,0.73422002792358,0.38035497069359
518,3969297302,0.635445,0.379841,-0.569362,0.357445,9.86613273620605,0.77624505758286,0.63783317804337,0.53674602508545,0.59573209285736,0.39506942033768
519,3969313969,0.635514,0.379787,-0.569321,0.357446,9.85514736175537,0.77235937118530,0.63249474763870,0.78282016515732,0.51833057403564,0.29251623153687
520,3969330636,0.635582,0.379752,-0.569276,0.357434,9.86752128601074,0.78500330448151,0.61857175827026,0.83402001857758,0.45572036504745,0.15188974142075
521,3969347303,0.635648,0.379720,-0.569225,0.357432,9.87335014343262,0.77108705043793,0.62197148799896,0.91140872240067,0.48919615149498,0.16835865378380
522,3969363970,0.635699,0.379711,-0.569163,0.357449,9.86516284942627,0.76742482185364,0.59688174724579,1.13454651832581,0.47094708681107,0.17264880239964
523,3969380637,0.635736,0.379713,-0.569112,0.357463,9.85192775726318,0.77077579498291,0.60482096672058,1.21032178401947,0.33905449509621,0.17738714814186
524,3969397304,0.635779,0.379700,-0.569061,0.357482,9.87601375579834,0.77520036697388,0.62041097879410,1.11560595035553,0.41084691882133,0.24989672005177
525,3969413971,0.635847,0.379670,-0.569007,0.357477,9.87235355377197,0.77126252651215,0.64108878374100,0.88989412784576,0.49813503026962,0.13663734495640
526,3969430638,0.635922,0.379635,-0.568943,0.357483,9.87120819091797,0.77584880590439,0.62627762556076,0.90784847736359,0.61057472229004,0.16071327030659
527,3969447305,0.635989,0.379638,-0.568858,0.357496,9.83815956115723,0.78148090839386,0.63359284400940,1.12245726585388,0.58712631464005,0.00037778730621
528,3969463972,0.636043,0.379645,-0.568776,0.357523,9.85893440246582,0.78156965970993,0.64667344093323,1.28115344047546,0.55448287725449,0.10111252218485
529,3969480639,0.636106,0.379637,-0.568691,0.357554,9.87049007415771,0.77706778049469,0.66051608324051,1.20776033401489,0.65653669834137,0.13743133842945
530,3969497306,0.636195,0.379588,-0.568606,0.357583,9.86950778961182,0.77507680654526,0.62782394886017,0.98389261960983,0.85016870498657,0.22775454819202
531,3969513973,0.636293,0.379537,-0.568522,0.357597,9.86408519744873,0.78468519449234,0.61949932575226,0.87033867835999,0.84986132383347,0.14424431324005
532,3969530640,0.636386,0.379503,-0.568440,0.357598,9.82430934906006,0.76060259342194,0.61594426631927,0.87902140617371,0.73944497108459,0.04771005734801
533,3969547307,0.636434,0.379467,-0.568407,0.357605,9.86487102508545,0.77422499656677,0.65232312679291,0.93384534120560,0.37556540966034,0.31733494997025
534,3969563974,0.636478,0.379462,-0.568332,0.357650,9.86813163757324,0.79581761360168,0.65296179056168,1.31187593936920,0.56494569778442,0.26527714729309
535,3969580641,0.636545,0.379458,-0.568231,0.357695,9.88367748260498,0.78640675544739,0.68567913770676,1.32974100112915,0.76402050256729,0.13255213201046
536,3969597308,0.636664,0.379410,-0.568115,0.357719,9.86432170867920,0.78610748052597,0.67341119050980,0.91279172897339,1.08796977996826,0.04817108437419
537,3969613975,0.636665,0.379468,-0.568013,0.357817,9.86244583129883,0.76614266633987,0.59249144792557,1.92777156829834,0.50032484531403,0.27977392077446
538,3969630642,0.636648,0.379605,-0.567948,0.357804,9.79125690460205,0.77838099002838,0.70190525054932,1.87677681446075,-0.21665781736374,-0.36825940012932
539,3969647309,0.636752,0.379545,-0.567869,0.357810,9.92829227447510,0.74725216627121,0.70993071794510,0.77952885627747,0.84721040725708,0.14780448377132
540,3969663976,0.636936,0.379282,-0.567959,0.357618,9.74889850616455,0.78509527444839,0.59977853298187,-1.50856244564056,0.41097497940063,0.32020357251167
541,3969680643,0.637005,0.379107,-0.568030,0.357567,9.83287048339844,0.75262135267258,0.63630110025406,-0.20811598002911,0.19198638200760,0.82714289426804
542,3969697310,0.636920,0.378959,-0.568230,0.357556,9.88029861450195,0.80205279588699,0.66729551553726,0.12389503419399,-0.93999880552292,1.61069941520691
543,3969713977,0.636803,0.379009,-0.568238,0.357701,9.91044712066650,0.78188902139664,0.65669006109238,2.11046719551086,-0.30789029598236,1.09601235389709
544,3969730644,0.636707,0.379185,-0.568161,0.357807,9.86002445220947,0.77261686325073,0.66020315885544,2.65702939033508,-0.26059642434120,0.15616703033447
545,3969747311,0.636620,0.379353,-0.568102,0.357877,9.86093997955322,0.79265213012695,0.69806838035583,2.45252490043640,-0.37818431854248,0.05636715143919
546,3969763978,0.636610,0.379431,-0.568049,0.357897,9.89285564422607,0.78149533271790,0.69773703813553,1.65623891353607,-0.01362595614046,0.02417198568583
547,3969780645,0.636654,0.379427,-0.567996,0.357907,9.85587406158447,0.76391130685806,0.66611224412918,1.12184274196625,0.37215894460678,0.16061083972454
548,3969797312,0.636655,0.379470,-0.567937,0.357954,9.82151317596436,0.77069699764252,0.63378459215164,1.58773767948151,0.21442313492298,0.23331248760223
549,3969813979,0.636612,0.379551,-0.567890,0.358018,9.80931282043457,0.74943220615387,0.63510262966156,1.93286848068237,-0.05847379192710,0.29398891329765
550,3969830646,0.636542,0.379592,-0.567884,0.358108,9.83191013336182,0.76375722885132,0.63637697696686,1.80819869041443,-0.17282165586948,0.74337643384933
551,3969847313,0.636508,0.379573,-0.567913,0.358142,9.84286308288574,0.80638670921326,0.64502614736557,1.13222861289978,-0.19290204346180,0.72798341512680
552,3969863980,0.636527,0.379532,-0.567929,0.358128,9.86987495422363,0.80414330959320,0.64801621437073,0.75024074316025,-0.00329123181291,0.44406661391258
553,3969880647,0.636556,0.379482,-0.567939,0.358114,9.87959003448486,0.80897378921509,0.66240096092224,0.71460080146790,0.09173829108477,0.43907213211060
554,3969897314,0.636577,0.379455,-0.567930,0.358118,9.89706993103027,0.80168098211288,0.70463556051254,0.95593631267548,0.13743133842945,0.39244416356087
555,3969913981,0.636592,0.379509,-0.567862,0.358143,9.86768913269043,0.75217550992966,0.56389951705933,1.64491784572601,0.23254409432411,0.04334308579564
556,3969930648,0.636701,0.379441,-0.567842,0.358053,9.80847549438477,0.78731948137283,0.74562150239944,0.20196256041527,0.37523248791695,-0.10113175213337
557,3969947315,0.636765,0.379309,-0.567904,0.357981,9.81416416168213,0.70515656471252,0.59453016519547,-0.11356670409441,0.05275575444102,0.55304861068726
558,3969963982,0.636739,0.379213,-0.568024,0.357937,9.81924819946289,0.73604351282120,0.65121299028397,0.22947058081627,-0.57526129484177,0.90532571077347
559,3969980649,0.636707,0.379198,-0.568072,0.357934,9.79718494415283,0.77200138568878,0.67106759548187,0.97191876173019,-0.36900219321251,0.60248118638992
560,3969997316,0.636597,0.379217,-0.568179,0.357942,9.85881710052490,0.76859617233276,0.67203080654144,1.23087596893311,-0.98598647117615,0.86029863357544
561,3970013983,0.636519,0.379203,-0.568277,0.357938,9.88396644592285,0.81117385625839,0.65717327594757,0.93570244312286,-0.78121298551559,0.83414804935455
562,3970030650,0.636516,0.379142,-0.568368,0.357862,9.87569332122803,0.79045265913010,0.67432606220245,0.27839085459709,-0.52497071027756,0.49454924464226
563,3970047317,0.636556,0.379043,-0.568458,0.357756,9.86017227172852,0.78434437513351,0.65271151065826,-0.08167889714241,-0.33217111229897,0.41000169515610
564,3970063984,0.636568,0.378982,-0.568517,0.357703,9.86124515533447,0.76497578620911,0.67868191003799,0.42198845744133,-0.26617997884750,0.48106411099434
565,3970080651,0.636549,0.378935,-0.568581,0.357688,9.85067749023438,0.73646962642670,0.69752180576324,0.72726619243622,-0.34249299764633,0.68071514368057
566,3970097318,0.636529,0.378879,-0.568655,0.357662,9.83050346374512,0.74641084671021,0.65929985046387,0.63333153724670,-0.39574179053307,0.69649249315262
567,3970113985,0.636524,0.378790,-0.568755,0.357608,9.83073520660400,0.75566321611404,0.66304379701614,0.25358492136002,-0.44409859180450,0.73643547296524
568,3970130652,0.636502,0.378705,-0.568871,0.357551,9.84073829650879,0.76536363363266,0.65030455589294,0.28780350089073,-0.59367674589157,0.78754562139511
569,3970147319,0.636461,0.378661,-0.568965,0.357521,9.85409832000732,0.79525661468506,0.66221296787262,0.62313783168793,-0.61015856266022,0.73350292444229
570,3970163986,0.636400,0.378677,-0.569042,0.357491,9.88049602508545,0.78158497810364,0.63782262802124,1.02596139907837,-0.75475502014160,0.51048034429550
571,3970180653,0.636331,0.378743,-0.569085,0.357475,9.86254215240479,0.75355166196823,0.65472871065140,1.36425411701202,-0.72841238975525,0.30283814668655
572,3970197320,0.636254,0.378802,-0.569134,0.357472,9.86988449096680,0.73851037025452,0.60936206579208,1.42600631713867,-0.73363733291626,0.42246231436729
573,3970213987,0.636180,0.378839,-0.569196,0.357466,9.87327194213867,0.75263863801956,0.66064566373825,1.26208508014679,-0.72886061668396,0.52262073755264
574,3970230654,0.636109,0.378862,-0.569279,0.357436,9.85852909088135,0.76631557941437,0.63118314743042,1.05318784713745,-0.84115952253342,0.51945763826370
575,3970247321,0.636050,0.378870,-0.569357,0.357409,9.85380744934082,0.78809487819672,0.62874686717987,1.02251672744751,-0.72983390092850,0.55366337299347
576,3970263988,0.636000,0.378889,-0.569415,0.357385,9.85098457336426,0.79462671279907,0.63003271818161,1.06694185733795,-0.61708676815033,0.44123637676239
577,3970280655,0.635940,0.378923,-0.569455,0.357391,9.85646724700928,0.77246862649918,0.61603593826294,1.34663248062134,-0.54521745443344,0.49986377358437
578,3970297322,0.635880,0.378989,-0.569475,0.357397,9.84004116058350,0.74580848217010,0.61920821666718,1.46113419532776,-0.53531825542450,0.31024023890495
579,3970313989,0.635830,0.379029,-0.569516,0.357379,9.84628868103027,0.71915483474731,0.60052740573883,1.21619987487793,-0.58576250076294,0.34532964229584
580,3970330656,0.635763,0.379040,-0.569582,0.357380,9.88631153106689,0.74849897623062,0.60114067792892,1.15346157550812,-0.63771784305573,0.64495980739594
581,3970347323,0.635683,0.379059,-0.569648,0.357398,9.88234043121338,0.77362763881683,0.65297287702560,1.28507244586945,-0.67234617471695,0.72508919239044
582,3970363990,0.635646,0.379066,-0.569681,0.357403,9.90752220153809,0.77961730957031,0.67886769771576,1.18835890293121,-0.35227710008621,0.52028995752335
583,3970380657,0.635640,0.379065,-0.569680,0.357417,9.87510776519775,0.79217612743378,0.67174470424652,1.18465781211853,-0.04496309906244,0.42921125888824
584,3970397324,0.635471,0.379290,-0.569622,0.357570,9.84204387664795,0.73922306299210,0.48231074213982,3.25870990753174,-0.62852281332016,0.40568593144417
585,3970413991,0.635364,0.379392,-0.569738,0.357467,9.89292621612549,0.77613854408264,0.83684056997299,1.15017020702362,-1.50679504871368,0.06900700926781
586,3970430658,0.635467,0.379310,-0.569709,0.357417,9.84817600250244,0.73833709955215,0.55022817850113,0.32734948396683,0.53584969043732,0.11941280215979
587,3970447325,0.635554,0.379100,-0.569867,0.357234,9.82150554656982,0.72598868608475,0.55971199274063,-1.16243231296539,-0.37297210097313,0.56768625974655
588,3970463992,0.635488,0.379041,-0.570016,0.357177,9.78117370605469,0.75460976362228,0.57576620578766,0.41197389364243,-0.97848194837570,0.88688457012177
589,3970480659,0.635277,0.379066,-0.570213,0.357211,9.89317607879639,0.76756143569946,0.62833029031754,1.39892077445984,-1.72416996955872,1.43052673339844
590,3970497326,0.635098,0.379188,-0.570276,0.357297,9.90606880187988,0.74592608213425,0.62398380041122,2.24106645584106,-1.12119579315186,0.84870874881744
591,3970513993,0.634968,0.379345,-0.570293,0.357336,9.85733318328857,0.73908984661102,0.61088085174561,2.21253395080566,-0.93596494197845,0.27031004428864
592,3970530660,0.634855,0.379451,-0.570347,0.357337,9.90629673004150,0.75680369138718,0.65285044908524,1.72920942306519,-0.99495089054108,0.35812312364578
593,3970547327,0.634819,0.379467,-0.570379,0.357334,9.89480400085449,0.75820440053940,0.65895742177963,1.12681150436401,-0.39846962690353,0.43963560461998
594,3970563994,0.634795,0.379451,-0.570419,0.357329,9.87257671356201,0.74426591396332,0.61124676465988,0.93899363279343,-0.30465027689934,0.55423963069916
595,3970580661,0.634768,0.379501,-0.570403,0.357350,9.82842254638672,0.74973315000534,0.59439039230347,1.48957705497742,-0.17512683570385,0.26769754290581
596,3970597328,0.634681,0.379604,-0.570394,0.357409,9.83899497985840,0.71712136268616,0.59727948904037,1.98642480373383,-0.46609991788864,0.39485174417496
597,3970613995,0.634613,0.379650,-0.570417,0.357445,9.84175109863281,0.75141930580139,0.59819942712784,1.55485105514526,-0.45255082845688,0.55348414182663
598,3970630662,0.634589,0.379655,-0.570466,0.357405,9.84193801879883,0.77506655454636,0.58135437965393,0.80895787477493,-0.49163573980331,0.34094983339310
599,3970647329,0.634588,0.379636,-0.570520,0.357339,9.86480712890625,0.77834361791611,0.59118282794952,0.59105783700943,-0.43138182163239,0.27807062864304
600,3970663996,0.634581,0.379627,-0.570557,0.357304,9.87981510162354,0.77938663959503,0.61066555976868,0.84001338481903,-0.32579353451729,0.34088584780693
601,3970680663,0.634565,0.379665,-0.570560,0.357285,9.88042068481445,0.75315374135971,0.62418889999390,1.20517361164093,-0.27869179844856,0.16625843942165
602,3970697330,0.634527,0.379759,-0.570524,0.357310,9.85482406616211,0.72907155752182,0.59662604331970,1.73977458477020,-0.22920802235603,0.08824215084314
603,3970713997,0.634585,0.379710,-0.570512,0.357278,9.86856555938721,0.74448412656784,0.64016258716583,0.62040996551514,0.25170239806175,0.22857409715652
604,3970730664,0.634607,0.379645,-0.570566,0.357223,9.83535194396973,0.70633286237717,0.52660769224167,0.36959761381149,-0.20487597584724,0.44997030496597
605,3970747331,0.634583,0.379617,-0.570639,0.357179,9.87167167663574,0.74551808834076,0.64724594354630,0.67619448900223,-0.52139770984650,0.51874041557312
606,3970763998,0.634518,0.379690,-0.570636,0.357221,9.82039070129395,0.75734448432922,0.60490804910660,1.68372142314911,-0.37669882178307,0.39311015605927
607,3970780665,0.634419,0.379789,-0.570647,0.357274,9.85902023315430,0.76605254411697,0.63512265682220,1.96096611022949,-0.60699546337128,0.46919265389442
608,3970797332,0.634371,0.379818,-0.570675,0.357285,9.87880992889404,0.79409193992615,0.62013047933578,1.31104362010956,-0.42035558819771,0.46773275732994
609,3970813999,0.634393,0.379788,-0.570706,0.357228,9.86965274810791,0.78231292963028,0.62258559465408,0.61458307504654,-0.18670377135277,0.24801415205002
610,3970830666,0.634441,0.379735,-0.570730,0.357161,9.87508869171143,0.77659487724304,0.61172455549240,0.40701779723167,-0.02604811452329,0.21361629664898
611,3970847333,0.634462,0.379730,-0.570716,0.357149,9.87341880798340,0.75082945823669,0.61160826683044,0.94917452335358,0.05612382665277,0.22352841496468
612,3970864000,0.634482,0.379718,-0.570694,0.357164,9.86007213592529,0.72845256328583,0.64049798250198,1.11942219734192,0.17987157404423,0.36042827367783
613,3970880667,0.634503,0.379667,-0.570705,0.357162,9.85860252380371,0.72019517421722,0.61667621135712,0.77042359113693,0.08486127108335,0.51614069938660
614,3970897334,0.634528,0.379595,-0.570731,0.357152,9.84854888916016,0.73753499984741,0.57707321643829,0.60906356573105,0.07637066394091,0.59944593906403
615,3970914001,0.634544,0.379547,-0.570767,0.357119,9.84675407409668,0.75251626968384,0.58607959747314,0.61423736810684,-0.12761528789997,0.44505271315575
616,3970930668,0.634547,0.379528,-0.570800,0.357079,9.84620285034180,0.75867587327957,0.58983069658279,0.77525156736374,-0.25880348682404,0.33146032691002
617,3970947335,0.634542,0.379507,-0.570836,0.357052,9.86500453948975,0.74283373355865,0.59110403060913,0.83650439977646,-0.25565317273140,0.42081028223038
618,3970964002,0.634520,0.379531,-0.570854,0.357038,9.86441993713379,0.74888581037521,0.58430850505829,1.14115464687347,-0.32712537050247,0.29582026600838
619,3970980669,0.634494,0.379567,-0.570861,0.357035,9.89317131042480,0.74985033273697,0.59341996908188,1.25007259845734,-0.29586511850357,0.27084788680077
620,3970997336,0.634485,0.379576,-0.570878,0.357015,9.87138462066650,0.75895911455154,0.59990715980530,0.98745274543762,-0.24904508888721,0.29543611407280
621,3971014003,0.634487,0.379577,-0.570895,0.356983,9.85806465148926,0.74453502893448,0.59699177742004,0.91901564598083,-0.21951362490654,0.24035595357418
622,3971030670,0.634483,0.379569,-0.570935,0.356935,9.87569427490234,0.76239031553268,0.59305310249329,0.76500648260117,-0.36075484752655,0.29040315747261
623,3971047337,0.634471,0.379573,-0.570963,0.356907,9.87221908569336,0.75709462165833,0.61187887191772,0.91594213247299,-0.31889092922211,0.31353145837784
624,3971064004,0.634472,0.379596,-0.570964,0.356879,9.87157440185547,0.75655597448349,0.60255879163742,1.02642250061035,-0.19839596748352,0.13616350293159
625,3971080671,0.634473,0.379618,-0.570956,0.356867,9.87086772918701,0.75243872404099,0.61451226472855,1.15392255783081,-0.11062125861645,0.18563444912434
626,3971097338,0.634484,0.379658,-0.570923,0.356856,9.86675834655762,0.73252493143082,0.58226722478867,1.27363634109497,-0.00604459689930,0.02953784726560
627,3971114005,0.634478,0.379714,-0.570898,0.356847,9.87460517883301,0.74291872978210,0.61889070272446,1.31286215782166,-0.14551857113838,0.03809249028563
628,3971130672,0.634484,0.379769,-0.570868,0.356827,9.85083007812500,0.73716676235199,0.58264392614365,1.26246929168701,-0.10108052194118,-0.05022650584579
629,3971147339,0.634494,0.379782,-0.570863,0.356803,9.86978054046631,0.72040033340454,0.59819257259369,1.02853572368622,-0.09641900658607,0.15390032529831
630,3971164006,0.634484,0.379765,-0.570884,0.356806,9.87512874603271,0.75401902198792,0.62806755304337,0.99498301744461,-0.14430196583271,0.50972473621368
631,3971180673,0.634512,0.379750,-0.570855,0.356817,9.88239192962646,0.77143687009811,0.62248367071152,0.94777870178223,0.22448889911175,0.31149524450302
632,3971197340,0.634591,0.379707,-0.570814,0.356790,9.87296772003174,0.78050041198730,0.61440312862396,0.64945471286774,0.45651432871819,0.09235298633575
633,3971214007,0.634556,0.379785,-0.570765,0.356846,9.87070941925049,0.73486316204071,0.49786263704300,1.85660684108734,-0.03467959165573,0.24974298477173
634,3971230674,0.634403,0.380066,-0.570735,0.356866,9.80972766876221,0.78263598680496,0.61481189727783,2.81924772262573,-1.17454731464386,-0.36959126591682
635,3971247341,0.634452,0.380059,-0.570739,0.356781,9.95067119598389,0.69773948192596,0.73669868707657,0.58736962080002,-0.09197520464659,-0.10698424279690
636,3971264008,0.634560,0.379826,-0.570859,0.356645,9.78603076934814,0.77775675058365,0.49620026350021,-1.04177093505859,0.04760760813951,0.72275841236115
637,3971280675,0.634626,0.379716,-0.570907,0.356568,9.83889102935791,0.73695266246796,0.54166311025620,0.00894523505121,0.05557315051556,0.40266364812851
638,3971297342,0.634515,0.379671,-0.571078,0.356539,9.85202693939209,0.72505754232407,0.58955597877502,0.63106489181519,-1.21539950370789,1.11768054962158
639,3971314009,0.634346,0.379743,-0.571148,0.356651,9.90527820587158,0.77315801382065,0.62048196792603,2.07428932189941,-0.92117363214493,1.15370488166809
640,3971330676,0.634223,0.379916,-0.571135,0.356705,9.85651874542236,0.74626415967941,0.57058012485504,2.36166381835938,-0.77851086854935,0.17348121106625
641,3971347343,0.634108,0.380062,-0.571166,0.356706,9.89057922363281,0.75234735012054,0.59214216470718,1.93152415752411,-1.00760364532471,0.14464130997658
642,3971364010,0.634062,0.380124,-0.571180,0.356699,9.89579582214355,0.78688430786133,0.62152826786041,1.43290889263153,-0.47721576690674,0.22336193919182
643,3971380677,0.634048,0.380146,-0.571181,0.356700,9.88058090209961,0.76925843954086,0.58035635948181,1.17953526973724,-0.17953221499920,0.30344006419182
644,3971397344,0.634046,0.380174,-0.571163,0.356703,9.85078144073486,0.75235909223557,0.54268068075180,1.29384469985962,-0.04895867034793,0.21142642199993
645,3971414011,0.633977,0.380298,-0.571132,0.356742,9.84365940093994,0.72977006435394,0.55250269174576,2.03297591209412,-0.40751084685326,0.12053976953030
646,3971430678,0.633886,0.380403,-0.571126,0.356802,9.84057712554932,0.73325711488724,0.55813831090927,2.03113198280334,-0.49504229426384,0.40589088201523
647,3971447345,0.633840,0.380441,-0.571149,0.356806,9.85056114196777,0.75217968225479,0.54190295934677,1.40506780147552,-0.42529886960983,0.39716973900795
648,3971464012,0.633833,0.380466,-0.571167,0.356762,9.87260437011719,0.78088849782944,0.58117043972015,0.97955125570297,-0.34739783406258,0.11642892658710
649,3971480679,0.633827,0.380474,-0.571194,0.356721,9.89402580261230,0.78512775897980,0.58420282602310,0.88666677474976,-0.33218386769295,0.22620496153831
650,3971497346,0.633838,0.380488,-0.571175,0.356718,9.89520645141602,0.76331919431686,0.58918142318726,1.13932323455811,0.01299204025418,0.20796871185303
651,3971514013,0.633872,0.380483,-0.571127,0.356739,9.89331436157227,0.73860859870911,0.56125569343567,1.16377067565918,0.34549611806870,0.24442841112614
652,3971530680,0.633913,0.380477,-0.571082,0.356745,9.82853317260742,0.77744305133820,0.61145156621933,1.13802993297577,0.32651710510254,0.18758100271225
653,3971547347,0.633953,0.380497,-0.571012,0.356764,9.82687950134277,0.73808479309082,0.51835542917252,1.32951045036316,0.40058901906013,0.07159389555454
654,3971564014,0.633942,0.380468,-0.571087,0.356695,9.85090732574463,0.71751767396927,0.60479944944382,0.56668734550476,-0.54000532627106,0.38660445809364
655,3971580681,0.633942,0.380475,-0.571056,0.356736,9.84918975830078,0.73463892936707,0.58471226692200,1.33208453655243,0.15763977169991,0.41837707161903
656,3971597348,0.633882,0.380511,-0.571089,0.356752,9.87188053131104,0.77485966682434,0.56823456287384,1.38520514965057,-0.48968920111656,0.51012170314789
657,3971614015,0.633817,0.380573,-0.571085,0.356807,9.86466217041016,0.79001384973526,0.63294631242752,1.72059082984924,-0.31549724936485,0.49890339374542
658,3971630682,0.633804,0.380585,-0.571086,0.356818,9.88650703430176,0.79540920257568,0.61005711555481,1.18249356746674,-0.12299219518900,0.38127705454826
659,3971647349,0.633845,0.380549,-0.571091,0.356775,9.87254905700684,0.76899182796478,0.60048800706863,0.63646912574768,0.04893946275115,0.21435907483101
660,3971664016,0.633899,0.380497,-0.571089,0.356737,9.86462116241455,0.76918137073517,0.60374963283539,0.57645857334137,0.18842621147633,0.25183045864105
661,3971680683,0.633929,0.380481,-0.571064,0.356741,9.86375617980957,0.76720911264420,0.65506154298782,1.02934229373932,0.20862182974815,0.29238814115524
662,3971697350,0.633956,0.380464,-0.571028,0.356768,9.85070991516113,0.73584192991257,0.61366623640060,1.11194336414337,0.30602693557739,0.36653697490692
663,3971714017,0.633995,0.380412,-0.571019,0.356769,9.86149501800537,0.71445375680923,0.60615074634552,0.77607131004333,0.25609499216080,0.44503989815712
664,3971730684,0.634028,0.380349,-0.571029,0.356761,9.84796810150146,0.75045186281204,0.57576787471771,0.65149104595184,0.15787027776241,0.50594687461853
665,3971747351,0.634056,0.380308,-0.571037,0.356743,9.85405826568604,0.77748513221741,0.55952185392380,0.74588662385941,0.06229648739100,0.38299307227135
666,3971764018,0.634058,0.380313,-0.571048,0.356717,9.88099670410156,0.75680702924728,0.57718759775162,0.99298506975174,-0.18374548852444,0.24113716185093
667,3971780685,0.634039,0.380338,-0.571055,0.356713,9.86499214172363,0.74501860141754,0.57822275161743,1.22069489955902,-0.24374328553677,0.29612761735916
668,3971797352,0.634014,0.380385,-0.571049,0.356716,9.85806465148926,0.74062800407410,0.55586832761765,1.37618958950043,-0.24405060708523,0.22766488790512
669,3971814019,0.633996,0.380421,-0.571052,0.356705,9.87791728973389,0.74925047159195,0.53220176696777,1.26442849636078,-0.26336258649826,0.21414136886597
670,3971830686,0.633969,0.380426,-0.571086,0.356694,9.85348510742188,0.74330973625183,0.57905811071396,1.06117904186249,-0.35914129018784,0.43706154823303
671,3971847353,0.633944,0.380407,-0.571133,0.356682,9.85044002532959,0.77049446105957,0.58876299858093,0.87236213684082,-0.35608053207397,0.55335593223572
672,3971864020,0.633948,0.380382,-0.571171,0.356641,9.86526393890381,0.77407020330429,0.58678859472275,0.72727906703949,-0.26040434837341,0.35714992880821
673,3971880687,0.633940,0.380384,-0.571197,0.356612,9.86856365203857,0.75589627027512,0.56746363639832,0.92540609836578,-0.29145976901054,0.30121177434921
674,3971897354,0.633925,0.380393,-0.571206,0.356615,9.86781024932861,0.76633918285370,0.55404758453369,1.15006792545319,-0.17922487854958,0.38574647903442
675,3971914021,0.633925,0.380406,-0.571208,0.356598,9.84370994567871,0.74980461597443,0.56700319051743,1.07887732982635,-0.14690163731575,0.23191659152508
676,3971930688,0.633923,0.380421,-0.571197,0.356603,9.87173843383789,0.74805045127869,0.55726665258408,1.27418696880341,-0.04851045459509,0.29861205816269
677,3971947355,0.633923,0.380480,-0.571155,0.356607,9.86878204345703,0.76174724102020,0.58193022012711,1.43912005424500,-0.01444556377828,0.01811458170414
678,3971964022,0.633929,0.380512,-0.571138,0.356589,9.88732624053955,0.73974156379700,0.57346785068512,1.16896986961365,-0.09709773957729,0.08765305578709
679,3971980689,0.633940,0.380506,-0.571125,0.356596,9.87258052825928,0.75398135185242,0.59417867660522,1.07771182060242,0.06795688718557,0.33705669641495
680,3971997356,0.633963,0.380488,-0.571114,0.356593,9.87979221343994,0.76478600502014,0.61783498525620,0.95406663417816,0.10592772066593,0.32905274629593
681,3972014023,0.634008,0.380467,-0.571078,0.356593,9.87205314636230,0.75046807527542,0.61176574230194,0.91190809011459,0.31997305154800,0.21743260324001
682,3972030690,0.634097,0.380421,-0.571023,0.356572,9.84284973144531,0.77676558494568,0.59912794828415,0.69610834121704,0.57292407751083,0.07907280325890
683,3972047357,0.634004,0.380576,-0.570960,0.356674,9.84851741790771,0.73674398660660,0.41036254167557,2.55442476272583,-0.26437425613403,0.24883377552032
684,3972064024,0.633914,0.380722,-0.571015,0.356589,9.86547088623047,0.78819364309311,0.72841018438339,1.49688947200775,-1.23627376556396,-0.22756883502007
685,3972080691,0.634008,0.380670,-0.570978,0.356537,9.88594913482666,0.71027767658234,0.56940013170242,0.46121424436569,0.44945803284645,-0.00112695875578
686,3972097358,0.634104,0.380435,-0.571137,0.356363,9.83581924438477,0.79720181226730,0.50752300024033,-1.27223408222198,-0.26113429665565,0.68994855880737
687,3972114025,0.634156,0.380387,-0.571161,0.356283,9.80118942260742,0.72904223203659,0.53855872154236,0.35869944095612,-0.05271093174815,0.12740395963192
688,3972130692,0.634020,0.380340,-0.571343,0.356282,9.88320922851562,0.75011730194092,0.58976751565933,0.76546752452850,-1.28819060325623,1.33536267280579
689,3972147359,0.633889,0.380426,-0.571382,0.356362,9.89095306396484,0.78596937656403,0.58620041608810,2.02512598037720,-0.74707126617432,0.78502285480499
690,3972164026,0.633780,0.380580,-0.571405,0.356355,9.84235477447510,0.72775328159332,0.56204563379288,1.97988104820251,-0.99158287048340,0.03880964592099
691,3972180693,0.633684,0.380669,-0.571467,0.356330,9.87149620056152,0.78896164894104,0.60174530744553,1.45936667919159,-0.99474596977234,0.28986531496048
692,3972197360,0.633647,0.380688,-0.571509,0.356308,9.89974498748779,0.77133703231812,0.61540895700455,1.06217789649963,-0.50188088417053,0.37851092219353
693,3972214027,0.633661,0.380674,-0.571522,0.356278,9.87823677062988,0.76243656873703,0.57715004682541,0.82820582389832,-0.11106947064400,0.27548378705978
694,3972230694,0.633655,0.380698,-0.571517,0.356270,9.82410907745361,0.76117873191833,0.53588652610779,1.16848337650299,-0.14720900356770,0.21859800815582
695,3972247361,0.633584,0.380781,-0.571522,0.356299,9.83223056793213,0.74440175294876,0.53316235542297,1.71822166442871,-0.49622040987015,0.33691588044167
696,3972264028,0.633518,0.380800,-0.571568,0.356322,9.83888721466064,0.75826197862625,0.54096949100494,1.30492222309113,-0.50951337814331,0.65333515405655
697,3972280695,0.633485,0.380784,-0.571639,0.356285,9.83981895446777,0.77928835153580,0.53555190563202,0.70003986358643,-0.56601500511169,0.51459109783173
698,3972297362,0.633470,0.380761,-0.571722,0.356203,9.88625621795654,0.78330504894257,0.56415081024170,0.50638228654861,-0.64494061470032,0.33436742424965
699,3972314029,0.633471,0.380736,-0.571772,0.356149,9.88496208190918,0.79410040378571,0.59177291393280,0.60937088727951,-0.36035785079002,0.34102666378021
700,3972330696,0.633501,0.380704,-0.571784,0.356110,9.91331100463867,0.77592611312866,0.59225213527679,0.67939609289169,-0.02446012757719,0.26472648978233
701,3972347363,0.633541,0.380701,-0.571733,0.356124,9.89062786102295,0.72641307115555,0.52005469799042,1.11415886878967,0.35047775506973,0.18987333774567
702,3972364030,0.633625,0.380614,-0.571715,0.356096,9.85646343231201,0.79097479581833,0.64817684888840,0.41826179623604,0.48398396372795,0.31372353434563
703,3972380697,0.633668,0.380575,-0.571694,0.356095,9.83314704895020,0.72639483213425,0.49221736192703,0.81351697444916,0.28706073760986,0.34025830030441
704,3972397364,0.633663,0.380500,-0.571768,0.356066,9.88198757171631,0.73849391937256,0.62506765127182,0.45495197176933,-0.30132061243057,0.72384685277939
705,3972414031,0.633669,0.380520,-0.571695,0.356150,9.86710262298584,0.75705170631409,0.55658262968063,1.62896132469177,0.44410499930382,0.42953136563301
706,3972430698,0.633625,0.380583,-0.571655,0.356226,9.87668132781982,0.77138471603394,0.54955667257309,1.82046747207642,-0.02388384193182,0.42868614196777
707,3972447365,0.633620,0.380592,-0.571615,0.356288,9.88108253479004,0.77950549125671,0.59181666374207,1.44371736049652,0.22781856358051,0.48955473303795
708,3972464032,0.633676,0.380522,-0.571573,0.356331,9.87574958801270,0.78708553314209,0.57705491781235,0.82605439424515,0.61851465702057,0.56206434965134
709,3972480699,0.633784,0.380408,-0.571536,0.356320,9.88021755218506,0.77671289443970,0.56619668006897,0.33833736181259,0.76770859956741,0.38988289237022
710,3972497366,0.633878,0.380322,-0.571484,0.356328,9.87433719635010,0.76622557640076,0.57575750350952,0.60388982295990,0.76323920488358,0.35487031936646
711,3972514033,0.633966,0.380266,-0.571397,0.356372,9.86680793762207,0.73847472667694,0.59747940301895,0.97152173519135,0.91088372468948,0.31885889172554
712,3972530700,0.634046,0.380188,-0.571322,0.356433,9.86372375488281,0.71084386110306,0.58323645591736,0.90871930122375,0.91913098096848,0.52427273988724
713,3972547367,0.634135,0.380068,-0.571267,0.356490,9.85797023773193,0.74247616529465,0.59493660926819,0.68231594562531,0.96702671051025,0.70435571670532
714,3972564034,0.634231,0.379944,-0.571228,0.356515,9.86083507537842,0.75962895154953,0.55646157264709,0.48317712545395,0.84877276420593,0.60940933227539
715,3972580701,0.634318,0.379853,-0.571188,0.356520,9.85044956207275,0.77884089946747,0.53623908758163,0.54527515172958,0.68180364370346,0.41038587689400
716,3972597368,0.634392,0.379781,-0.571161,0.356509,9.85160350799561,0.76876544952393,0.58034038543701,0.60586202144623,0.49524080753326,0.32822036743164
717,3972614035,0.634437,0.379741,-0.571118,0.356540,9.87423038482666,0.76297789812088,0.57656264305115,0.93042612075806,0.47029396891594,0.41675063967705
718,3972630702,0.634488,0.379732,-0.571043,0.356578,9.87398338317871,0.74647462368011,0.59402322769165,1.28420150279999,0.58619147539139,0.23066154122353
719,3972647369,0.634548,0.379699,-0.570977,0.356614,9.86866378784180,0.72243499755859,0.60408389568329,1.19263625144958,0.63981169462204,0.32112565636635
720,3972664036,0.634606,0.379647,-0.570926,0.356648,9.87304115295410,0.74163162708282,0.60524529218674,0.94291239976883,0.59988147020340,0.42603525519371
721,3972680703,0.634668,0.379606,-0.570875,0.356663,9.86638927459717,0.73776620626450,0.55933368206024,0.82597756385803,0.53483796119690,0.28975006937981
722,3972697370,0.634731,0.379548,-0.570849,0.356653,9.86474990844727,0.76876205205917,0.59122496843338,0.71165531873703,0.41050115227699,0.31225082278252
723,3972714037,0.634787,0.379505,-0.570809,0.356662,9.85780429840088,0.74586194753647,0.59009808301926,0.88046860694885,0.46203386783600,0.31172579526901
724,3972730704,0.634835,0.379477,-0.570753,0.356697,9.86303901672363,0.75125753879547,0.62909930944443,1.08649706840515,0.52178829908371,0.35088756680489
725,3972747371,0.634906,0.379440,-0.570679,0.356728,9.87891387939453,0.74983513355255,0.59538072347641,1.02776730060577,0.70897883176804,0.25631269812584
726,3972764038,0.634992,0.379414,-0.570595,0.356737,9.86500072479248,0.76067835092545,0.61715549230576,1.00737953186035,0.73023730516434,0.06485776603222
727,3972780705,0.635075,0.379391,-0.570521,0.356732,9.84651947021484,0.76660519838333,0.58875620365143,0.89987015724182,0.61875802278519,0.02285292930901
728,3972797372,0.635139,0.379359,-0.570471,0.356734,9.86177444458008,0.74185460805893,0.59677690267563,0.88242787122726,0.48846617341042,0.19181989133358
729,3972814039,0.635171,0.379340,-0.570426,0.356767,9.85530471801758,0.76264345645905,0.61857187747955,1.11446619033813,0.38198137283325,0.36702355742455
730,3972830706,0.635211,0.379317,-0.570376,0.356799,9.87347126007080,0.77338135242462,0.62584584951401,1.12262392044067,0.45172476768494,0.35059306025505
731,3972847373,0.635308,0.379273,-0.570277,0.356834,9.87300395965576,0.78019899129868,0.63819593191147,1.00941574573517,0.94777870178223,0.17583757638931
732,3972864040,0.635379,0.379236,-0.570199,0.356869,9.87829303741455,0.80146187543869,0.64947235584259,1.03431129455566,0.73065996170044,0.27110403776169
733,3972880707,0.635310,0.379465,-0.570036,0.357010,9.80024719238281,0.75091809034348,0.43452584743500,3.19990301132202,0.17866778373718,-0.18879120051861
734,3972897374,0.635356,0.379493,-0.570023,0.356920,9.95166587829590,0.71393257379532,0.82682627439499,0.75599080324173,-0.13026618957520,-0.29960450530052
735,3972914041,0.635523,0.379361,-0.569955,0.356873,9.73530387878418,0.77533900737762,0.43243524432182,0.03066480532289,1.08362853527069,0.06945524364710
736,3972930708,0.635621,0.379198,-0.570053,0.356714,9.85713577270508,0.70711988210678,0.62997037172318,-0.74490696191788,-0.12358128279448,0.30908769369125
737,3972947375,0.635597,0.379087,-0.570191,0.356654,9.82633686065674,0.77890849113464,0.62745070457458,0.03784916177392,-0.65176630020142,0.93964666128159
738,3972964042,0.635488,0.379089,-0.570259,0.356737,9.95043945312500,0.77545189857483,0.67627507448196,1.51287162303925,-0.57775849103928,1.14818525314331
739,3972980709,0.635422,0.379258,-0.570148,0.356852,9.87391376495361,0.75717836618423,0.60119426250458,2.64791107177734,0.04042324051261,0.05548350885510
740,3972997376,0.635338,0.379450,-0.570068,0.356926,9.87060737609863,0.76835536956787,0.62432092428207,2.63473343849182,-0.32571667432785,-0.08025738596916
741,3973014043,0.635310,0.379580,-0.569993,0.356957,9.90595340728760,0.77080225944519,0.64614343643188,2.02160358428955,-0.08602024614811,-0.15152470767498
742,3973030710,0.635368,0.379613,-0.569884,0.356991,9.87776374816895,0.74490898847580,0.62119162082672,1.46655118465424,0.64471644163132,-0.06171379610896
743,3973047377,0.635410,0.379647,-0.569796,0.357023,9.84508132934570,0.75967007875443,0.58581024408340,1.45982789993286,0.48302352428436,0.02497878670692
744,3973064044,0.635409,0.379726,-0.569698,0.357096,9.82107639312744,0.75526452064514,0.59870868921280,1.95084893703461,0.35899397730827,0.10131743550301
745,3973080711,0.635366,0.379799,-0.569629,0.357206,9.82872200012207,0.74063456058502,0.61534565687180,2.10037589073181,0.17369893193245,0.46934628486633
746,3973097378,0.635343,0.379838,-0.569590,0.357266,9.85044288635254,0.76152163743973,0.59002500772476,1.67395019531250,0.07479548454285,0.41399729251862
747,3973114045,0.635367,0.379869,-0.569541,0.357269,9.86650466918945,0.77693498134613,0.60994476079941,1.33919215202332,0.18420015275478,0.05978644639254
748,3973130712,0.635393,0.379892,-0.569490,0.357279,9.90334701538086,0.77778273820877,0.63906848430634,1.29046392440796,0.22324667870998,0.10710591077805
749,3973147379,0.635447,0.379882,-0.569412,0.357319,9.90255165100098,0.80042171478271,0.65877151489258,1.23350095748901,0.61814320087433,0.22465535998344
750,3973164046,0.635529,0.379880,-0.569287,0.357373,9.89733409881592,0.76660895347595,0.60552161931992,1.37460148334503,0.94608825445175,0.06277032196522
751,3973180713,0.635664,0.379840,-0.569165,0.357370,9.81655883789062,0.78462642431259,0.67179173231125,0.84616029262543,1.08616411685944,-0.15622465312481
752,3973197380,0.635853,0.379700,-0.569084,0.357313,9.84318828582764,0.75105524063110,0.63513273000717,-0.01182026136667,1.22763586044312,-0.02341000922024
753,3973214047,0.635982,0.379528,-0.569067,0.357292,9.82933044433594,0.73018252849579,0.60169887542725,-0.05642477422953,0.87663942575455,0.56324243545532
754,3973230714,0.636056,0.379479,-0.569007,0.357309,9.84185600280762,0.75353163480759,0.66062068939209,0.81297904253006,0.64420419931412,0.27760961651802
755,3973247381,0.636069,0.379480,-0.568986,0.357319,9.83706474304199,0.76947742700577,0.65334290266037,1.24429702758789,0.11070448905230,0.30315831303596
756,3973264048,0.636114,0.379440,-0.568957,0.357326,9.86806297302246,0.80210655927658,0.68231451511383,0.88288891315460,0.35277009010315,0.35027283430099
757,3973280715,0.636219,0.379346,-0.568937,0.357270,9.87698745727539,0.77530384063721,0.63361096382141,0.21441030502319,0.51854830980301,0.16198110580444
758,3973297382,0.636367,0.379189,-0.568924,0.357194,9.85318756103516,0.77155601978302,0.64827340841293,-0.23809564113617,0.75555545091629,0.23199343681335
759,3973314049,0.636494,0.379079,-0.568887,0.357145,9.83899784088135,0.75076037645340,0.64427161216736,0.18267618119717,0.73756253719330,0.16004735231400
760,3973330716,0.636587,0.378993,-0.568853,0.357123,9.84548854827881,0.74821406602859,0.65157783031464,0.47929689288139,0.60533696413040,0.27138578891754
761,3973347383,0.636641,0.378912,-0.568837,0.357138,9.83647060394287,0.73736065626144,0.64242547750473,0.69284272193909,0.45264682173729,0.56102693080902
762,3973364050,0.636674,0.378823,-0.568871,0.357120,9.86020851135254,0.73631560802460,0.63810086250305,0.56087327003479,0.09756518155336,0.63179492950439
763,3973380717,0.636693,0.378741,-0.568914,0.357106,9.84135723114014,0.75717073678970,0.64130854606628,0.51219630241394,-0.01681473478675,0.66995769739151
764,3973397384,0.636686,0.378687,-0.568965,0.357093,9.84296131134033,0.77483427524567,0.63793712854385,0.68289220333099,-0.21719568967819,0.65459018945694
765,3973414051,0.636664,0.378682,-0.568994,0.357093,9.86046218872070,0.77555072307587,0.63000500202179,1.02899658679962,-0.27198123931885,0.49812218546867
766,3973430718,0.636632,0.378716,-0.569005,0.357096,9.86854743957520,0.75756710767746,0.66586738824844,1.24811327457428,-0.31462642550468,0.33325323462486
767,3973447385,0.636601,0.378748,-0.569016,0.357099,9.86588096618652,0.75834804773331,0.64626312255859,1.22539496421814,-0.30904284119606,0.33838862180710
768,3973464052,0.636574,0.378758,-0.569055,0.357075,9.86242771148682,0.75547420978546,0.66441470384598,1.02162027359009,-0.43222713470459,0.37415671348572
769,3973480719,0.636544,0.378746,-0.569117,0.357042,9.86461353302002,0.75206631422043,0.65551376342773,0.87461602687836,-0.50528728961945,0.49011820554733
770,3973497386,0.636529,0.378733,-0.569160,0.357014,9.85336399078369,0.75902152061462,0.66116589307785,0.85059142112732,-0.35234111547470,0.42735433578491
771,3973514053,0.636494,0.378759,-0.569185,0.357009,9.85712623596191,0.75548285245895,0.65541952848434,1.18655312061310,-0.39333423972130,0.37258157134056
772,3973530720,0.636479,0.378780,-0.569194,0.356999,9.86205959320068,0.75612115859985,0.66311186552048,1.17803704738617,-0.23849265277386,0.28434577584267
773,3973547387,0.636458,0.378801,-0.569204,0.356997,9.86320018768311,0.74718517065048,0.66809070110321,1.20554494857788,-0.24743150174618,0.33726164698601
