sep=,
DeviceTag:,D
FirmwareVersion:,3.0.0
AppVersion:,2023.6.0
StartTime: ,2024-03-14_12:01:38_000 EDT
© Movella Technologies B. V. 2005-2024

PacketCounter,SampleTimeFine,Quat_W,Quat_X,Quat_Y,Quat_Z,Acc_X,Acc_Y,Acc_Z,Gyr_X,Gyr_Y,Gyr_Z
0,3960647129,0.023159,-0.701117,-0.088418,-0.707164,0.00000000000000,0.00000000000000,0.00000000000000,0.00000000000000,0.00000000000000,0.00000000000000
1,3960663796,0.023132,-0.701273,-0.088763,-0.706967,9.72163009643555,0.90367734432220,0.08436301350594,2.99545669555664,-1.15096437931061,-1.73002910614014
2,3960680463,0.023070,-0.701402,-0.089081,-0.706801,9.70124053955078,0.92342132329941,0.08413832634687,2.65443611145020,-0.88991957902908,-1.79103851318359
3,3960697130,0.022969,-0.701489,-0.089376,-0.706681,9.69668769836426,0.95212668180466,0.08020006120205,2.36407780647278,-0.48334372043610,-1.90756368637085
4,3960713797,0.022843,-0.701551,-0.089629,-0.706591,9.71635437011719,0.96546542644501,0.03408804535866,2.02810311317444,-0.22473222017288,-1.83970248699188
5,3960730464,0.022709,-0.701581,-0.089819,-0.706541,9.74834346771240,0.98696953058243,0.03227702528238,1.63950753211975,0.13377514481544,-1.60401475429535
6,3960747131,0.022543,-0.701618,-0.089939,-0.706495,9.76806545257568,0.99602919816971,0.02551084384322,1.17121744155884,0.10522977262735,-1.42156243324280
7,3960763798,0.022310,-0.701661,-0.089987,-0.706453,9.81548976898193,0.98588931560516,-0.01145591493696,0.48580890893936,0.06734859198332,-1.38793301582336
8,3960780465,0.022073,-0.701685,-0.090044,-0.706430,9.81381034851074,0.97891736030579,0.00588649185374,0.49007344245911,0.24730341136456,-1.47565650939941
9,3960797132,0.021829,-0.701743,-0.090051,-0.706379,9.77950286865234,0.96706855297089,0.01520175393671,0.22324028611183,-0.05216665938497,-1.23912310600281
10,3960813799,0.021639,-0.701839,-0.090077,-0.706286,9.79702758789062,0.93776822090149,0.01946893520653,0.60835283994675,-0.40484073758125,-1.03529739379883
11,3960830466,0.021481,-0.701947,-0.090177,-0.706171,9.84966087341309,0.91438859701157,0.00762995611876,1.12147772312164,-0.56458717584610,-1.22917270660400
12,3960847133,0.021332,-0.702078,-0.090286,-0.706031,9.83571243286133,0.93063586950302,0.03571447730064,1.19894325733185,-0.78996604681015,-1.21640467643738
13,3960863800,0.021131,-0.702202,-0.090381,-0.705901,9.80510330200195,0.89763766527176,0.06532333791256,0.92449033260345,-0.73587203025818,-1.39954829216003
14,3960880467,0.020907,-0.702296,-0.090492,-0.705801,9.79356861114502,0.93431967496872,0.03971633315086,0.85196799039841,-0.46130388975143,-1.61597549915314
15,3960897134,0.020709,-0.702364,-0.090659,-0.705718,9.81724548339844,0.97767865657806,0.01329969055951,1.24865758419037,-0.24956375360489,-1.77555572986603
16,3960913801,0.020520,-0.702420,-0.090782,-0.705652,9.81078624725342,1.02983343601227,0.01750116050243,1.07548975944519,-0.09086743742228,-1.53206825256348
17,3960930468,0.020322,-0.702481,-0.090867,-0.705585,9.78310966491699,1.00356614589691,0.03063195571303,0.86170089244843,-0.12242230772972,-1.39269697666168
18,3960947135,0.020091,-0.702534,-0.090999,-0.705522,9.77063846588135,0.98048013448715,0.00611554924399,0.91470628976822,-0.09596437215805,-1.77341675758362
19,3960963802,0.019845,-0.702547,-0.091163,-0.705495,9.79269599914551,0.97137689590454,0.02403184957802,0.96235883235931,0.26073729991913,-2.04374623298645
20,3960980469,0.019574,-0.702510,-0.091297,-0.705522,9.76723575592041,1.01817893981934,-0.00945905502886,0.66776150465012,0.75489586591721,-2.04984211921692
21,3960997136,0.019247,-0.702433,-0.091369,-0.705598,9.79463005065918,1.04845082759857,0.02501880005002,0.08303637057543,1.16038346290588,-2.05689835548401
22,3961013803,0.018848,-0.702362,-0.091348,-0.705683,9.81797885894775,1.05533063411713,0.03055713698268,-0.74240332841873,1.13963711261749,-1.96160626411438
23,3961030470,0.018369,-0.702309,-0.091264,-0.705759,9.85042190551758,1.02993607521057,0.05254885926843,-1.42344498634338,0.96467673778534,-2.02536892890930
24,3961047137,0.017880,-0.702289,-0.091141,-0.705807,9.88256263732910,1.03769731521606,0.05971242859960,-1.62887156009674,0.67133444547653,-1.86103785037994
25,3961063804,0.017397,-0.702268,-0.090980,-0.705861,9.85965347290039,1.05034744739532,0.03924220800400,-1.81466627120972,0.70634704828262,-1.64904165267944
26,3961080471,0.016932,-0.702196,-0.090837,-0.705963,9.82156753540039,1.02526879310608,0.02929862216115,-1.66373074054718,1.20231151580811,-1.68968915939331
27,3961097138,0.016504,-0.702061,-0.090749,-0.706118,9.77772045135498,1.07350444793701,0.00279522151686,-1.23793220520020,1.78163230419159,-1.81756031513214
28,3961113805,0.016151,-0.701896,-0.090713,-0.706295,9.76065635681152,1.06126761436462,-0.01759523339570,-0.62539166212082,2.06723928451538,-1.72651994228363
29,3961130472,0.015902,-0.701716,-0.090749,-0.706474,9.71724987030029,1.02982056140900,-0.04047640040517,0.24147650599480,2.21776533126831,-1.58248698711395
30,3961147139,0.015766,-0.701521,-0.090831,-0.706661,9.74523925781250,1.01251769065857,-0.08030190318823,0.97338509559631,2.38711667060852,-1.25913953781128
31,3961163806,0.015753,-0.701310,-0.090931,-0.706858,9.77204513549805,1.03129363059998,-0.07125902175903,1.67373859882355,2.58866262435913,-0.76507055759430
32,3961180473,0.015765,-0.701094,-0.090967,-0.707067,9.72725296020508,1.06310033798218,-0.04556422308087,1.45581316947937,2.70020627975464,-0.33494371175766
33,3961197140,0.015720,-0.700887,-0.090922,-0.707279,9.68260955810547,1.05887711048126,-0.07394500076771,0.79521024227142,2.63623809814453,-0.21338579058647
34,3961213807,0.015617,-0.700721,-0.090823,-0.707459,9.65509414672852,0.99850046634674,-0.08116611838341,0.27750080823898,2.25738811492920,-0.21597270667553
35,3961230474,0.015528,-0.700617,-0.090739,-0.707574,9.67361831665039,0.95718914270401,-0.10744494944811,0.43792596459389,1.64929139614105,-0.16614319384098
36,3961247141,0.015533,-0.700574,-0.090698,-0.707622,9.70190334320068,0.93677997589111,-0.08252550661564,1.09886157512665,1.07390201091766,0.12528452277184
37,3961263808,0.015613,-0.700597,-0.090684,-0.707600,9.70140361785889,0.96325242519379,-0.05331740528345,1.66136789321899,0.46849474310875,0.41206994652748
38,3961280475,0.015710,-0.700686,-0.090688,-0.707508,9.71563911437988,1.01246833801270,-0.04245331138372,1.88021540641785,-0.18144674599171,0.45449733734131
39,3961297142,0.015755,-0.700792,-0.090663,-0.707406,9.72401428222656,1.06485641002655,-0.03619151189923,1.49812531471252,-0.33978453278542,0.35287898778915
40,3961313809,0.015712,-0.700918,-0.090569,-0.707294,9.75979614257812,1.07659339904785,-0.00124381075148,0.73283052444458,-0.53698945045471,0.26927912235260
41,3961330476,0.015605,-0.701039,-0.090410,-0.707196,9.78477859497070,1.07520103454590,0.02765838801861,0.09253867715597,-0.47555732727051,0.26897177100182
42,3961347143,0.015506,-0.701131,-0.090220,-0.707132,9.76721954345703,1.03043031692505,0.04732044413686,-0.04723621532321,-0.15810078382492,0.43446820974350
43,3961363810,0.015436,-0.701209,-0.090062,-0.707076,9.78074073791504,1.04212856292725,0.06252254545689,0.25479510426521,-0.04986152052879,0.41162168979645
44,3961380477,0.015398,-0.701261,-0.089933,-0.707041,9.78586959838867,1.08708131313324,0.06684972345829,0.55667924880981,0.20846176147461,0.40936776995659
45,3961397144,0.015332,-0.701261,-0.089780,-0.707063,9.79854106903076,1.11744248867035,0.11736889928579,0.26970171928406,0.71463274955750,0.35276368260384
46,3961413811,0.015227,-0.701225,-0.089557,-0.707129,9.82368087768555,1.08403992652893,0.08946014195681,-0.28659969568253,1.08597850799561,0.46992897987366
47,3961430478,0.015165,-0.701154,-0.089352,-0.707227,9.86069011688232,1.02490532398224,0.06935838609934,-0.00712673319504,1.43696212768555,0.57422387599945
48,3961447145,0.015152,-0.701036,-0.089186,-0.707365,9.86232089996338,0.99966794252396,0.06466461718082,0.40940618515015,1.88331449031830,0.58375185728073
49,3961463812,0.015142,-0.700885,-0.089030,-0.707534,9.81731605529785,1.01530885696411,0.10471259802580,0.46517789363861,2.19354867935181,0.53480601310730
50,3961480479,0.015116,-0.700750,-0.088872,-0.707688,9.78751564025879,1.05395030975342,0.08736805617809,0.37151217460632,2.03650426864624,0.46981376409531
51,3961497146,0.015037,-0.700617,-0.088706,-0.707842,9.76287174224854,1.05783987045288,0.06349888443947,0.05209622904658,1.98923587799072,0.25606295466423
52,3961513813,0.014864,-0.700486,-0.088475,-0.708005,9.75258636474609,1.03426432609558,0.05552243068814,-0.71661132574081,1.97275412082672,0.10930220782757
53,3961530480,0.014657,-0.700379,-0.088216,-0.708147,9.73345279693604,0.98106151819229,0.04148331657052,-1.01393628120422,1.73700201511383,0.09973584860563
54,3961547147,0.014475,-0.700271,-0.087979,-0.708288,9.72748756408691,0.94308924674988,0.03493576496840,-0.76746529340744,1.75122976303101,0.11559011042118
55,3961563814,0.014376,-0.700182,-0.087815,-0.708397,9.71991443634033,0.96424090862274,0.03931368142366,0.00662088254467,1.54700708389282,0.17934012413025
56,3961580481,0.014370,-0.700140,-0.087741,-0.708449,9.73163604736328,0.99240726232529,0.01030033826828,0.94097220897675,1.09614682197571,0.23015573620796
57,3961597148,0.014399,-0.700125,-0.087710,-0.708466,9.74979019165039,1.03174316883087,0.01005594525486,1.31352174282074,0.80726110935211,0.21816898882389
58,3961613815,0.014408,-0.700127,-0.087637,-0.708473,9.72296714782715,1.05379343032837,0.03199435025454,1.00237858295441,0.67307609319687,0.33300352096558
59,3961630482,0.014363,-0.700155,-0.087457,-0.708469,9.72902202606201,1.02034556865692,0.07056929916143,0.23561124503613,0.46964728832245,0.60515129566193
60,3961647149,0.014251,-0.700198,-0.087181,-0.708463,9.77587127685547,0.97719234228134,0.06300955265760,-0.54883533716202,0.35499200224876,0.74652051925659
61,3961663816,0.014167,-0.700192,-0.086931,-0.708501,9.75463485717773,0.98469370603561,0.04575543478131,-0.32902714610100,0.81146150827408,0.72473698854446
62,3961680483,0.014089,-0.700192,-0.086712,-0.708529,9.70975208282471,1.01187252998352,0.07044972479343,-0.13539512455463,0.74974769353867,0.60572749376297
63,3961697150,0.014128,-0.700231,-0.086569,-0.708508,9.75950813293457,1.00952148437500,-0.00423554051667,0.83170837163925,0.37397104501724,0.84095460176468
64,3961713817,0.014254,-0.700259,-0.086522,-0.708483,9.80806255340576,1.02775800228119,0.03011050075293,1.68161451816559,0.45159029960632,0.79453146457672
65,3961730484,0.014368,-0.700314,-0.086450,-0.708435,9.80113124847412,1.01957952976227,0.09468813240528,1.56508970260620,0.20753972232342,0.87947613000870
66,3961747151,0.014440,-0.700352,-0.086309,-0.708413,9.79744720458984,1.00079309940338,0.11829258501530,0.98427051305771,0.39971175789833,0.98972588777542
67,3961763818,0.014417,-0.700334,-0.086043,-0.708464,9.84863281250000,1.03555917739868,0.10715517401695,-0.11199792474508,0.98161953687668,1.09320127964020
68,3961780485,0.014348,-0.700277,-0.085705,-0.708563,9.82841777801514,1.05249631404877,0.08810588717461,-0.67650187015533,1.37761735916138,1.18243587017059
69,3961797152,0.014233,-0.700238,-0.085269,-0.708656,9.79101085662842,1.04296553134918,0.08431386202574,-1.39912581443787,1.24487984180450,1.45083141326904
70,3961813819,0.014121,-0.700219,-0.084876,-0.708724,9.78854656219482,0.95897156000137,0.06384757906199,-1.15666306018829,1.02457189559937,1.26408910751343
71,3961830486,0.014067,-0.700220,-0.084646,-0.708752,9.78167057037354,0.88525104522705,0.04835305735469,-0.07208053767681,0.75415313243866,0.77749913930893
72,3961847153,0.014097,-0.700199,-0.084565,-0.708782,9.77685165405273,0.89593619108200,0.08995541930199,1.07715487480164,0.90617722272873,0.45798069238663
73,3961863820,0.014174,-0.700170,-0.084550,-0.708810,9.79333209991455,0.91901373863220,0.07208062708378,1.60135698318481,0.95254898071289,0.36496809124947
74,3961880487,0.014220,-0.700110,-0.084505,-0.708874,9.79815387725830,0.97607403993607,0.09293255209923,1.30276417732239,1.25913298130035,0.33794671297073
75,3961897154,0.014195,-0.700051,-0.084407,-0.708945,9.80868816375732,0.99647361040115,0.06462769210339,0.71442776918411,1.26116919517517,0.24959571659565
76,3961913821,0.014152,-0.700021,-0.084291,-0.708989,9.81020641326904,0.96091473102570,0.07004579901695,0.52919673919678,0.97270625829697,0.26278626918793
77,3961930488,0.014108,-0.700008,-0.084175,-0.709016,9.81979846954346,0.95768982172012,0.07030192017555,0.53946751356125,0.81166648864746,0.27144339680672
78,3961947155,0.014065,-0.700003,-0.084046,-0.709038,9.83839225769043,0.94128501415253,0.04800992459059,0.48927938938141,0.75171989202499,0.34319731593132
79,3961963822,0.014040,-0.699979,-0.083924,-0.709076,9.81317806243896,0.94359022378922,0.05180975049734,0.59614837169647,0.93117529153824,0.38550955057144
80,3961980489,0.014016,-0.699925,-0.083835,-0.709140,9.78724002838135,0.98787868022919,0.07911583781242,0.73198533058167,1.19610023498535,0.21252135932446
81,3961997156,0.013984,-0.699894,-0.083706,-0.709187,9.75363922119141,1.00324678421021,0.08438925445080,0.51562207937241,0.99687188863754,0.37654510140419
82,3962013823,0.013960,-0.699863,-0.083572,-0.709234,9.73510169982910,0.96927964687347,0.09435188025236,0.52288329601288,1.01057469844818,0.44450843334198
83,3962030490,0.013917,-0.699799,-0.083478,-0.709309,9.76889610290527,0.94179558753967,0.04463460296392,0.62731897830963,1.28574454784393,0.13828295469284
84,3962047157,0.013915,-0.699717,-0.083401,-0.709399,9.81486225128174,0.94313067197800,0.06328511983156,0.91144073009491,1.47376763820648,0.24353837966919
85,3962063824,0.013931,-0.699638,-0.083300,-0.709488,9.80520248413086,0.95562916994095,0.05686308443546,0.85113567113876,1.46531546115875,0.44914439320564
86,3962080491,0.013981,-0.699564,-0.083161,-0.709577,9.80394840240479,0.96421349048615,0.06070585921407,0.83774018287659,1.46275401115417,0.79760503768921
87,3962097158,0.014044,-0.699522,-0.083043,-0.709631,9.76971817016602,0.96259433031082,0.06067122891545,1.01478803157806,1.14113545417786,0.78039342164993
88,3962113825,0.014093,-0.699496,-0.082950,-0.709666,9.75898075103760,0.96394568681717,0.08352145552635,1.05996882915497,0.95869612693787,0.60840404033661
89,3962130492,0.014133,-0.699465,-0.082842,-0.709708,9.76986789703369,0.96730643510818,0.06520700454712,0.96717387437820,1.01825845241547,0.63100731372833
90,3962147159,0.014170,-0.699423,-0.082734,-0.709762,9.76981353759766,0.95449000597000,0.07510524988174,0.91817677021027,1.12483298778534,0.60905718803406
91,3962163826,0.014221,-0.699369,-0.082624,-0.709827,9.79897117614746,0.92420399188995,0.06660145521164,0.96914613246918,1.24819648265839,0.67734068632126
92,3962180493,0.014289,-0.699288,-0.082544,-0.709915,9.83153724670410,0.92968201637268,0.08719124644995,1.21137809753418,1.48941683769226,0.60186004638672
93,3962197160,0.014373,-0.699212,-0.082490,-0.709994,9.82280540466309,0.94082307815552,0.06401903182268,1.41955840587616,1.44033026695251,0.55758845806122
94,3962213827,0.014462,-0.699127,-0.082456,-0.710080,9.80282306671143,0.96594232320786,0.08625090122223,1.53855502605438,1.50410592556000,0.47909840941429
95,3962230494,0.014550,-0.699068,-0.082396,-0.710143,9.77901744842529,0.96284407377243,0.10465411841869,1.41293740272522,1.27631914615631,0.61782950162888
96,3962247161,0.014641,-0.699005,-0.082307,-0.710213,9.78540515899658,0.93825602531433,0.08803123980761,1.26843035221100,1.33580458164215,0.76707464456558
97,3962263828,0.014731,-0.698926,-0.082207,-0.710301,9.76692008972168,0.93758648633957,0.09465608000755,1.21925425529480,1.50031495094299,0.80084502696991
98,3962280495,0.014828,-0.698840,-0.082126,-0.710393,9.75418376922607,0.91847354173660,0.12428402155638,1.33807158470154,1.55572819709778,0.74450993537903
99,3962297162,0.014917,-0.698738,-0.082036,-0.710502,9.76146697998047,0.92049640417099,0.12754559516907,1.22888469696045,1.70789325237274,0.73932343721390
100,3962313829,0.014974,-0.698648,-0.081940,-0.710600,9.76541805267334,0.90791815519333,0.10901917517185,1.08368599414825,1.58746206760406,0.62114626169205
101,3962330496,0.015015,-0.698569,-0.081845,-0.710688,9.79663467407227,0.90270364284515,0.10259070247412,1.01468551158905,1.47203874588013,0.53730326890945
102,3962347163,0.015047,-0.698500,-0.081769,-0.710763,9.78835105895996,0.88780939579010,0.09524400532246,1.06438708305359,1.35080111026764,0.41309446096420
103,3962363830,0.015073,-0.698445,-0.081723,-0.710823,9.78434848785400,0.90179955959320,0.13142415881157,1.18816053867340,1.20575630664825,0.25251561403275
104,3962380497,0.015108,-0.698406,-0.081692,-0.710864,9.76205825805664,0.90729361772537,0.13588024675846,1.30144524574280,1.03463780879974,0.23261456191540
105,3962397164,0.015135,-0.698355,-0.081682,-0.710915,9.74488735198975,0.91426599025726,0.13460390269756,1.35653817653656,1.14411926269531,0.08548238128424
106,3962413831,0.015153,-0.698297,-0.081661,-0.710973,9.74238300323486,0.92156940698624,0.13257636129856,1.25139808654785,1.20092821121216,0.08555921912193
107,3962430498,0.015141,-0.698241,-0.081619,-0.711034,9.75864124298096,0.92607480287552,0.12611404061317,1.03833889961243,1.19725286960602,0.04836957901716
108,3962447165,0.015108,-0.698174,-0.081568,-0.711106,9.74707317352295,0.93997472524643,0.11844348162413,0.85958784818649,1.29038071632385,-0.02688693255186
109,3962463832,0.015037,-0.698118,-0.081470,-0.711174,9.73757266998291,0.91836625337601,0.14381523430347,0.48103204369545,1.19479393959045,0.02212936989963
110,3962480499,0.014936,-0.698075,-0.081358,-0.711231,9.75692367553711,0.91155487298965,0.14301010966301,0.23325483500957,1.06889474391937,-0.04225455224514
111,3962497166,0.014810,-0.698045,-0.081224,-0.711278,9.77916812896729,0.88396263122559,0.13043878972530,0.01322895847261,0.94296997785568,-0.05845458060503
112,3962513833,0.014718,-0.698011,-0.081160,-0.711321,9.76119613647461,0.89415478706360,0.13895453512669,0.52860778570175,0.96036100387573,-0.22484751045704
113,3962530500,0.014637,-0.698019,-0.081098,-0.711321,9.75262928009033,0.93021136522293,0.11678089946508,0.61254054307938,0.55053216218948,-0.15391312539577
114,3962547167,0.014638,-0.698047,-0.081120,-0.711292,9.77296638488770,0.90049290657043,0.13795302808285,1.44856464862823,0.35012561082840,-0.14599879086018
115,3962563834,0.014654,-0.698072,-0.081152,-0.711263,9.81708526611328,0.92807763814926,0.15075357258320,1.55858385562897,0.37872216105461,-0.12212774902582
116,3962580501,0.014654,-0.698106,-0.081157,-0.711229,9.84043121337891,0.92684489488602,0.18235702812672,1.34196460247040,0.29668471217155,-0.05832651630044
117,3962597168,0.014621,-0.698125,-0.081063,-0.711222,9.82760143280029,0.95036339759827,0.18607778847218,0.68434566259384,0.49108505249023,0.23868472874165
118,3962613835,0.014531,-0.698108,-0.080912,-0.711257,9.78876781463623,0.94854450225830,0.15889152884483,0.12011074274778,0.84779310226440,0.21047234535217
119,3962630502,0.014450,-0.698074,-0.080803,-0.711305,9.75918102264404,0.96118456125259,0.14617212116718,0.34980544447899,0.99368315935135,0.04302933812141
120,3962647169,0.014373,-0.698043,-0.080677,-0.711351,9.73728942871094,0.94635117053986,0.13192684948444,0.29627487063408,0.96904367208481,0.14829751849174
121,3962663836,0.014323,-0.698012,-0.080592,-0.711392,9.74340820312500,0.88768398761749,0.12098703533411,0.63253122568130,0.95455974340439,0.07774735242128
122,3962680503,0.014335,-0.697999,-0.080593,-0.711405,9.75476837158203,0.84415256977081,0.11435518413782,1.35858726501465,0.76502579450607,-0.01863964460790
123,3962697170,0.014356,-0.697998,-0.080640,-0.711400,9.77139282226562,0.86570799350739,0.14763961732388,1.64146685600281,0.61667704582214,-0.17861658334732
124,3962713837,0.014404,-0.697985,-0.080681,-0.711407,9.77175235748291,0.91635984182358,0.14264729619026,1.74253427982330,0.75054168701172,-0.03437864407897
125,3962730504,0.014399,-0.697966,-0.080683,-0.711425,9.78964519500732,0.93440872430801,0.13447453081608,1.27761268615723,0.80206167697906,-0.10852742195129
126,3962747171,0.014359,-0.697984,-0.080652,-0.711413,9.77725315093994,0.93007111549377,0.11019148677588,0.95493102073669,0.46830257773399,-0.09698888659477
127,3962763838,0.014342,-0.698039,-0.080644,-0.711360,9.78179359436035,0.91597259044647,0.09595056623220,1.19270658493042,0.09445963799953,-0.06932717561722
128,3962780505,0.014345,-0.698106,-0.080629,-0.711296,9.79708957672119,0.92076110839844,0.11683747172356,1.27730536460876,-0.00306712067686,0.07184362411499
129,3962797172,0.014335,-0.698156,-0.080594,-0.711251,9.77738571166992,0.91424131393433,0.12289524823427,1.10978531837463,0.16871085762978,0.08977250754833
130,3962813839,0.014298,-0.698188,-0.080505,-0.711230,9.74862289428711,0.94530957937241,0.13135051727295,0.69322049617767,0.35477429628372,0.20322397351265
131,3962830506,0.014263,-0.698240,-0.080392,-0.711192,9.79114818572998,0.93346881866455,0.15378020703793,0.57982027530670,0.18907293677330,0.34044396877289
132,3962847173,0.014265,-0.698289,-0.080287,-0.711156,9.77511787414551,0.89945328235626,0.16409228742123,0.80837517976761,0.22613452374935,0.48408004641533
133,3962863840,0.014290,-0.698311,-0.080263,-0.711137,9.77812385559082,0.89107602834702,0.11890275776386,1.30602991580963,0.44525116682053,0.18579453229904
134,3962880507,0.014334,-0.698316,-0.080288,-0.711128,9.77901935577393,0.94550383090973,0.13923344016075,1.63666439056396,0.58194619417191,0.04136451333761
135,3962897174,0.014358,-0.698315,-0.080271,-0.711131,9.79415607452393,0.97170346975327,0.13988776504993,1.32831311225891,0.66306161880493,0.13686145842075
136,3962913841,0.014380,-0.698292,-0.080175,-0.711164,9.80600833892822,0.95890474319458,0.12448838353157,0.91528272628784,0.91970086097717,0.48433613777161
137,3962930508,0.014392,-0.698287,-0.080039,-0.711184,9.79626846313477,0.92255645990372,0.13809581100941,0.69657576084137,0.77347797155380,0.64814215898514
138,3962947175,0.014424,-0.698314,-0.079934,-0.711168,9.77984333038330,0.87332499027252,0.12760499119759,0.94159972667694,0.44662147760391,0.61569094657898
139,3962963842,0.014494,-0.698339,-0.079884,-0.711148,9.79144477844238,0.87226456403732,0.12551014125347,1.40667510032654,0.45544502139091,0.53407597541809
140,3962980509,0.014584,-0.698347,-0.079868,-0.711140,9.78616142272949,0.89955574274063,0.13263024389744,1.65013659000397,0.60428041219711,0.46102860569954
141,3962997176,0.014678,-0.698353,-0.079863,-0.711133,9.78578186035156,0.91162931919098,0.11904163658619,1.72700023651123,0.61160564422607,0.42914077639580
142,3963013843,0.014753,-0.698361,-0.079840,-0.711126,9.77807998657227,0.92120832204819,0.12175326794386,1.56920051574707,0.60124540328979,0.41936957836151
143,3963030510,0.014806,-0.698355,-0.079761,-0.711139,9.75765800476074,0.92243587970734,0.14303438365459,1.17042350769043,0.75779008865356,0.57451850175858
144,3963047177,0.014820,-0.698368,-0.079640,-0.711140,9.79215812683105,0.89530479907990,0.11209668964148,0.77368283271790,0.59053921699524,0.59440678358078
145,3963063844,0.014853,-0.698379,-0.079518,-0.711142,9.80086708068848,0.87630409002304,0.12216039001942,0.86602944135666,0.61484569311142,0.69027507305145
146,3963080511,0.014882,-0.698390,-0.079415,-0.711142,9.79124355316162,0.85725098848343,0.11625022441149,0.92387562990189,0.60016953945160,0.58256083726883
147,3963097178,0.014911,-0.698387,-0.079333,-0.711153,9.78061485290527,0.87597250938416,0.14939363300800,1.02770960330963,0.72165060043335,0.46928864717484
148,3963113845,0.014963,-0.698397,-0.079283,-0.711149,9.79370212554932,0.87856322526932,0.11286857724190,1.31493031978607,0.59357434511185,0.43620988726616
149,3963130512,0.015001,-0.698401,-0.079245,-0.711148,9.81057834625244,0.88016879558563,0.11427254229784,1.29937076568604,0.63240319490433,0.30838969349861
150,3963147179,0.015040,-0.698408,-0.079212,-0.711144,9.80781269073486,0.88138961791992,0.08553268015385,1.33545887470245,0.59764665365219,0.29226648807526
151,3963163846,0.015084,-0.698421,-0.079172,-0.711135,9.79045867919922,0.88006293773651,0.13550366461277,1.32119262218475,0.54902100563049,0.35241791605949
152,3963180513,0.015114,-0.698433,-0.079124,-0.711128,9.79631614685059,0.87368434667587,0.14523001015186,1.21200573444366,0.55787020921707,0.32079911231995
153,3963197180,0.015107,-0.698431,-0.079062,-0.711136,9.79457187652588,0.89729106426239,0.14391013979912,0.96242284774780,0.67821145057678,0.20318554341793
154,3963213847,0.015074,-0.698424,-0.078992,-0.711152,9.76927757263184,0.89722710847855,0.14298921823502,0.80111396312714,0.72683715820312,0.10694583505392
155,3963230514,0.015041,-0.698417,-0.078918,-0.711168,9.77502155303955,0.90317809581757,0.11955470591784,0.76109415292740,0.73116564750671,0.12621937692165
156,3963247181,0.015028,-0.698387,-0.078879,-0.711202,9.79574871063232,0.90596401691437,0.10186488926411,0.99336296319962,0.93586248159409,0.04409226775169
157,3963263848,0.015011,-0.698341,-0.078821,-0.711254,9.81307411193848,0.91460365056992,0.11956162750721,0.90035051107407,1.09521186351776,0.09830154478550
158,3963280515,0.014959,-0.698303,-0.078731,-0.711302,9.79407787322998,0.91722661256790,0.13126841187477,0.58391833305359,1.03002750873566,0.09234659373760
159,3963297182,0.014899,-0.698277,-0.078576,-0.711346,9.82680511474609,0.86898690462112,0.12578919529915,0.20084197819233,0.94685035943985,0.36781117320061
160,3963313849,0.014878,-0.698249,-0.078444,-0.711389,9.82865238189697,0.84563380479813,0.11830805242062,0.50455731153488,0.97050350904465,0.45086026191711
161,3963330516,0.014881,-0.698199,-0.078345,-0.711449,9.76421165466309,0.85789293050766,0.14059993624687,0.79042071104050,1.17123043537140,0.39192554354668
162,3963347183,0.014878,-0.698172,-0.078272,-0.711483,9.73398494720459,0.85239052772522,0.15323004126549,0.90024787187576,0.92466950416565,0.26131352782249
163,3963363850,0.014885,-0.698153,-0.078265,-0.711503,9.76658535003662,0.87755793333054,0.14461112022400,1.27675473690033,0.82503634691238,-0.01180105097592
164,3963380517,0.014899,-0.698160,-0.078284,-0.711493,9.80694103240967,0.85794293880463,0.13162739574909,1.43707740306854,0.54888021945953,-0.08011012524366
165,3963397184,0.014920,-0.698182,-0.078271,-0.711473,9.78605079650879,0.84209048748016,0.15932069718838,1.32242202758789,0.43467307090759,0.11807453632355
166,3963413851,0.014907,-0.698189,-0.078194,-0.711474,9.77060699462891,0.86152303218842,0.12382042407990,0.82962095737457,0.59675025939941,0.24487021565437
167,3963430518,0.014877,-0.698153,-0.078124,-0.711518,9.80188465118408,0.89750945568085,0.16463467478752,0.77593678236008,1.00701451301575,0.10328320413828
168,3963447185,0.014793,-0.698138,-0.077996,-0.711548,9.78055286407471,0.91040712594986,0.12422521412373,0.21772076189518,0.81362587213516,0.12794823944569
169,3963463852,0.014689,-0.698156,-0.077822,-0.711552,9.76838207244873,0.89033615589142,0.10552672296762,-0.05672572180629,0.52024513483047,0.27720624208450
170,3963480519,0.014615,-0.698218,-0.077733,-0.711503,9.74918842315674,0.84676003456116,0.11248964071274,0.50564587116241,0.06056122854352,0.03864956274629
171,3963497186,0.014644,-0.698300,-0.077783,-0.711416,9.75552368164062,0.81540399789810,0.12068902701139,1.67619764804840,-0.18491730093956,-0.10964157432318
172,3963513853,0.014746,-0.698356,-0.077876,-0.711349,9.77034664154053,0.84820079803467,0.16303321719170,2.24211025238037,0.07394386827946,0.02429364621639
173,3963530520,0.014818,-0.698366,-0.077913,-0.711333,9.78716754913330,0.93354052305222,0.14380337297916,1.81654214859009,0.54017180204391,0.12308182567358
174,3963547187,0.014803,-0.698378,-0.077871,-0.711326,9.80956459045410,0.94529843330383,0.15067736804485,1.00287795066833,0.53293621540070,0.07560867816210
175,3963563854,0.014730,-0.698397,-0.077777,-0.711319,9.81351375579834,0.91760802268982,0.15615867078304,0.45694333314896,0.47096630930901,0.04159502312541
176,3963580521,0.014650,-0.698436,-0.077642,-0.711297,9.80979728698730,0.86510241031647,0.11631256341934,0.24652223289013,0.30220428109169,0.21513389050961
177,3963597188,0.014604,-0.698479,-0.077518,-0.711270,9.81417465209961,0.84340560436249,0.15538620948792,0.45069387555122,0.26994505524635,0.32925128936768
178,3963613855,0.014567,-0.698500,-0.077419,-0.711261,9.80260276794434,0.82641500234604,0.14710371196270,0.60257714986801,0.47152981162071,0.24419145286083
179,3963630522,0.014520,-0.698495,-0.077356,-0.711274,9.77212142944336,0.84607082605362,0.15358966588974,0.73093521595001,0.69473171234131,0.00919496081769
180,3963647189,0.014473,-0.698523,-0.077314,-0.711251,9.78200912475586,0.85209703445435,0.16378426551819,0.84862560033798,0.35973039269447,-0.07482109963894
181,3963663856,0.014431,-0.698567,-0.077303,-0.711211,9.76500415802002,0.84584426879883,0.14181977510452,1.02847790718079,0.19953572750092,-0.18948915600777
182,3963680523,0.014375,-0.698606,-0.077311,-0.711173,9.77989006042480,0.84931445121765,0.11871768534184,1.07482397556305,0.22251032292843,-0.34997829794884
183,3963697190,0.014359,-0.698616,-0.077383,-0.711155,9.83462715148926,0.86334812641144,0.07925476878881,1.56028735637665,0.47779211401939,-0.48174291849136
184,3963713857,0.014309,-0.698612,-0.077440,-0.711153,9.81273746490479,0.86604946851730,0.13198094069958,1.29669415950775,0.60225707292557,-0.58195257186890
185,3963730524,0.014271,-0.698614,-0.077503,-0.711146,9.80683135986328,0.85473531484604,0.13760542869568,1.39108979701996,0.55319589376450,-0.54855370521545
186,3963747191,0.014216,-0.698633,-0.077619,-0.711115,9.77067184448242,0.85872340202332,0.13310328125954,1.59281539916992,0.34609159827232,-0.87993067502975
187,3963763858,0.014165,-0.698658,-0.077748,-0.711078,9.76407337188721,0.86743086576462,0.14116263389587,1.67025530338287,0.28919297456741,-0.91619825363159
188,3963780525,0.014149,-0.698663,-0.077899,-0.711057,9.81129360198975,0.88766282796860,0.10947418957949,1.94341492652893,0.47599923610687,-0.85999125242233
189,3963797192,0.014164,-0.698667,-0.078004,-0.711041,9.78668975830078,0.91699457168579,0.08883424103260,1.85784268379211,0.53138661384583,-0.48972120881081
190,3963813859,0.014147,-0.698675,-0.078043,-0.711029,9.77459335327148,0.91201013326645,0.11030752956867,1.37952542304993,0.51742768287659,-0.33176767826080
191,3963830526,0.014100,-0.698692,-0.078011,-0.711017,9.76925182342529,0.92175596952438,0.11814922094345,0.88722383975983,0.46008092164993,-0.12669961154461
192,3963847193,0.014023,-0.698716,-0.077922,-0.711005,9.78447818756104,0.90362215042114,0.09435106813908,0.47261831164360,0.42213568091393,0.00116537779104
193,3963863860,0.013941,-0.698730,-0.077816,-0.711004,9.77651023864746,0.87828075885773,0.11091607064009,0.34288999438286,0.52398461103439,0.05200658738613
194,3963880527,0.013899,-0.698767,-0.077747,-0.710976,9.80509471893311,0.87983280420303,0.09891074150801,0.74296039342880,0.29055047035217,0.08484206348658
195,3963897194,0.013907,-0.698821,-0.077709,-0.710927,9.79423618316650,0.87865322828293,0.08628024905920,1.12538361549377,0.13422335684299,0.18588419258595
196,3963913861,0.013944,-0.698889,-0.077664,-0.710865,9.76167392730713,0.89123135805130,0.11176259815693,1.24208784103394,0.02193727530539,0.38165479898453
197,3963930528,0.013975,-0.698959,-0.077591,-0.710802,9.77554225921631,0.88414502143860,0.12601765990257,1.08602976799011,0.00729961972684,0.48037901520729
198,3963947195,0.013969,-0.699009,-0.077484,-0.710765,9.76671886444092,0.88993644714355,0.14656129479408,0.72736221551895,0.21323852241039,0.44600671529770
199,3963963862,0.013913,-0.699059,-0.077341,-0.710733,9.76115798950195,0.91274464130402,0.13209079205990,0.30032169818878,0.21261100471020,0.38038697838783
200,3963980529,0.013819,-0.699114,-0.077163,-0.710700,9.72713279724121,0.88075888156891,0.12708045542240,-0.05474073812366,0.16807052493095,0.36647930741310
201,3963997196,0.013737,-0.699179,-0.076989,-0.710657,9.74275779724121,0.87220835685730,0.12470234930515,0.01979861594737,0.07094718515873,0.41062277555466
202,3964013863,0.013705,-0.699240,-0.076834,-0.710614,9.76461982727051,0.87475103139877,0.09860676527023,0.35373699665070,0.11743421852589,0.56276220083237
203,3964030530,0.013674,-0.699295,-0.076682,-0.710577,9.78550815582275,0.86204117536545,0.10857007652521,0.38255131244659,0.18243928253651,0.54296362400055
204,3964047197,0.013672,-0.699365,-0.076538,-0.710523,9.81396293640137,0.84908437728882,0.11366900801659,0.57713097333908,0.03456433862448,0.66091012954712
205,3964063864,0.013701,-0.699458,-0.076409,-0.710445,9.84444618225098,0.83744722604752,0.13949461281300,0.80042248964310,-0.17395506799221,0.75647109746933
206,3964080531,0.013726,-0.699575,-0.076293,-0.710342,9.83664703369141,0.84616607427597,0.14368270337582,0.85394018888474,-0.41778790950775,0.68524211645126
207,3964097198,0.013732,-0.699688,-0.076186,-0.710242,9.81661510467529,0.85037732124329,0.12447029352188,0.81239634752274,-0.38838455080986,0.54945641756058
208,3964113865,0.013680,-0.699784,-0.076060,-0.710162,9.79932689666748,0.86402601003647,0.16933341324329,0.42581114172935,-0.24853925406933,0.34513112902641
209,3964130532,0.013609,-0.699876,-0.075941,-0.710086,9.82192802429199,0.84588724374771,0.10508347302675,0.36440464854240,-0.21297596395016,0.21330255270004
210,3964147199,0.013587,-0.699932,-0.075893,-0.710036,9.78904342651367,0.84066772460938,0.09167885780334,0.92871654033661,0.10138787329197,0.09289727360010
211,3964163866,0.013605,-0.699970,-0.075868,-0.710001,9.77273464202881,0.85257154703140,0.09236506372690,1.19941723346710,0.28309717774391,0.16600872576237
212,3964180533,0.013683,-0.699994,-0.075894,-0.709973,9.80220794677734,0.86307841539383,0.09125777333975,1.75808143615723,0.41048195958138,0.20449180901051
213,3964197200,0.013780,-0.700015,-0.075957,-0.709944,9.85040473937988,0.85882765054703,0.08203743398190,2.02656626701355,0.42782169580460,0.11744702607393
214,3964213867,0.013853,-0.700067,-0.076008,-0.709885,9.84039211273193,0.86301249265671,0.10818421840668,1.84159147739410,0.11941920220852,0.08201186358929
215,3964230534,0.013866,-0.700115,-0.075961,-0.709842,9.79710388183594,0.87409394979477,0.12820996344090,1.09092175960541,0.19583471119404,0.25064587593079
216,3964247201,0.013792,-0.700133,-0.075800,-0.709843,9.80663490295410,0.88595902919769,0.08473837375641,0.11138962954283,0.52111589908600,0.35560667514801
217,3964263868,0.013677,-0.700125,-0.075614,-0.709873,9.77539443969727,0.89485591650009,0.07095651328564,-0.23013649880886,0.76301509141922,0.26565489172935
218,3964280535,0.013529,-0.700094,-0.075330,-0.709937,9.75017738342285,0.87716954946518,0.05635251477361,-0.89515751600266,1.03580319881439,0.55479669570923
219,3964297202,0.013412,-0.700085,-0.075079,-0.709974,9.75747013092041,0.80118817090988,0.05713324993849,-0.58278501033783,0.80696654319763,0.55819040536880
220,3964313869,0.013369,-0.700129,-0.074989,-0.709942,9.77479743957520,0.74607193470001,0.03073750250041,0.59991347789764,0.23824933171272,0.19000780582428
221,3964330536,0.013435,-0.700180,-0.075047,-0.709884,9.78035068511963,0.74668967723846,0.05166607722640,1.85572934150696,0.12985637784004,0.00443099625409
222,3964347203,0.013561,-0.700210,-0.075153,-0.709841,9.79100894927979,0.81230413913727,0.06456387042999,2.37427163124084,0.32173392176628,0.06109909713268
223,3964363870,0.013629,-0.700239,-0.075225,-0.709804,9.78582954406738,0.87032628059387,0.08205345273018,1.92115700244904,0.33442497253418,-0.06926313787699
224,3964380537,0.013625,-0.700270,-0.075212,-0.709774,9.80285930633545,0.88370543718338,0.07417416572571,1.13715255260468,0.32966107130051,-0.00105652387720
225,3964397204,0.013593,-0.700339,-0.075153,-0.709713,9.81172561645508,0.84590536355972,0.08873642981052,0.80904108285904,-0.01942082867026,0.10138786584139
226,3964413871,0.013581,-0.700409,-0.075091,-0.709651,9.83011817932129,0.82757443189621,0.06814189255238,0.88102555274963,-0.01732058636844,0.21309764683247
227,3964430538,0.013580,-0.700470,-0.075030,-0.709597,9.80982398986816,0.83352380990982,0.06847453862429,0.95759475231171,0.07468662410975,0.25877788662910
228,3964447205,0.013572,-0.700508,-0.074982,-0.709565,9.79602146148682,0.85293465852737,0.09220318496227,0.96955603361130,0.28004929423332,0.15285660326481
229,3964463872,0.013523,-0.700520,-0.074922,-0.709560,9.79756259918213,0.87677806615829,0.11709974706173,0.70830637216568,0.52804416418076,-0.01195472758263
230,3964480539,0.013473,-0.700545,-0.074855,-0.709544,9.79091167449951,0.84717845916748,0.10838054120541,0.65331590175629,0.40071070194244,0.02529254183173
231,3964497206,0.013417,-0.700558,-0.074802,-0.709537,9.78585529327393,0.83996623754501,0.09385733306408,0.71139281988144,0.50246995687485,-0.07391186058521
232,3964513873,0.013384,-0.700534,-0.074801,-0.709562,9.83150482177734,0.83124732971191,0.07679770141840,1.03553426265717,0.84626924991608,-0.23862712085247
233,3964530540,0.013379,-0.700488,-0.074814,-0.709606,9.84125900268555,0.87473613023758,0.04524801298976,1.26008069515228,1.05806064605713,-0.17865498363972
234,3964547207,0.013369,-0.700421,-0.074765,-0.709677,9.81916522979736,0.89178591966629,0.08112830668688,0.90365439653397,1.29004764556885,0.07733754813671
235,3964563874,0.013392,-0.700364,-0.074691,-0.709741,9.81285762786865,0.87302625179291,0.09089607000351,0.94829738140106,1.23236775398254,0.36544197797775
236,3964580541,0.013422,-0.700322,-0.074629,-0.709788,9.80295944213867,0.85091727972031,0.06754516065121,0.99719196557999,1.07067477703094,0.35079151391983
237,3964597208,0.013416,-0.700287,-0.074547,-0.709831,9.77070045471191,0.84916210174561,0.08388082683086,0.79181665182114,1.00817978382111,0.28197023272514
238,3964613875,0.013392,-0.700239,-0.074461,-0.709888,9.76739692687988,0.82365024089813,0.10590538382530,0.66559714078903,1.12747097015381,0.19872894883156
239,3964630542,0.013369,-0.700187,-0.074374,-0.709949,9.77296638488770,0.82935190200806,0.12564495205879,0.64914095401764,1.16966784000397,0.20753967761993
240,3964647209,0.013342,-0.700137,-0.074282,-0.710008,9.77275371551514,0.82845079898834,0.12323570251465,0.60416519641876,1.14446508884430,0.21285435557365
241,3964663876,0.013319,-0.700087,-0.074192,-0.710068,9.76968860626221,0.82588392496109,0.09390205144882,0.66995126008987,1.15465891361237,0.22416232526302
242,3964680543,0.013330,-0.700051,-0.074123,-0.710110,9.80181121826172,0.84660029411316,0.08895769715309,0.91733163595200,1.01294386386871,0.30001434683800
243,3964697210,0.013370,-0.700019,-0.074044,-0.710150,9.80146312713623,0.86473631858826,0.07867874950171,1.01645278930664,0.99950993061066,0.49054718017578
244,3964713877,0.013422,-0.700007,-0.073958,-0.710169,9.80413246154785,0.86323976516724,0.07403460144997,1.02324020862579,0.81206339597702,0.59357428550720
245,3964730544,0.013458,-0.700004,-0.073842,-0.710184,9.79204845428467,0.83167320489883,0.12050376832485,0.80980950593948,0.73438006639481,0.66074365377426
246,3964747211,0.013471,-0.699991,-0.073702,-0.710211,9.78513526916504,0.82994812726974,0.10623326897621,0.58403360843658,0.83771461248398,0.66119188070297
247,3964763878,0.013458,-0.699970,-0.073552,-0.710247,9.78630065917969,0.81027734279633,0.10183008760214,0.40405309200287,0.90635651350021,0.58030688762665
248,3964780545,0.013422,-0.699940,-0.073416,-0.710291,9.77892208099365,0.81165641546249,0.12221649289131,0.35445418953896,0.97639453411102,0.39389774203300
249,3964797212,0.013397,-0.699912,-0.073299,-0.710331,9.78696346282959,0.77762466669083,0.08517672866583,0.49712967872620,0.94904005527496,0.35380101203918
250,3964813879,0.013398,-0.699897,-0.073242,-0.710352,9.78692245483398,0.79173791408539,0.07910641282797,0.94093382358551,0.80280447006226,0.20560593903065
251,3964830546,0.013427,-0.699902,-0.073208,-0.710351,9.79980850219727,0.79524892568588,0.11418540775776,1.19695830345154,0.61273264884949,0.23941472172737
252,3964847213,0.013450,-0.699911,-0.073179,-0.710344,9.80109596252441,0.81385272741318,0.07486376166344,1.18504834175110,0.56064915657043,0.19269713759422
253,3964863880,0.013446,-0.699918,-0.073141,-0.710341,9.81639099121094,0.80230581760406,0.11551114171743,0.98300242424011,0.57492822408676,0.09883939474821
254,3964880547,0.013406,-0.699918,-0.073075,-0.710348,9.80736541748047,0.81653535366058,0.12022303044796,0.69355350732803,0.64153409004211,0.05076437070966
255,3964897214,0.013344,-0.699923,-0.073004,-0.710352,9.80724811553955,0.81135559082031,0.11954188346863,0.55172318220139,0.59289556741714,-0.02444091625512
256,3964913881,0.013272,-0.699936,-0.072936,-0.710348,9.82173538208008,0.82649368047714,0.13696159422398,0.52481698989868,0.50597888231277,-0.08101937174797
257,3964930548,0.013231,-0.699949,-0.072856,-0.710344,9.83812808990479,0.81550759077072,0.09011685103178,0.61187458038330,0.52584147453308,0.12557905912399
258,3964947215,0.013250,-0.699941,-0.072846,-0.710353,9.78489780426025,0.83564227819443,0.10584941506386,1.25097548961639,0.71716850996017,0.06490258872509
259,3964963882,0.013261,-0.699935,-0.072808,-0.710362,9.76452255249023,0.85269880294800,0.12333783507347,1.08300745487213,0.70678246021271,0.16675147414207
260,3964980549,0.013314,-0.699916,-0.072803,-0.710381,9.77950954437256,0.85055100917816,0.13438990712166,1.37449252605438,0.82985144853592,0.20322395861149
261,3964997216,0.013334,-0.699900,-0.072772,-0.710399,9.83116149902344,0.84995222091675,0.11071875691414,1.13133859634399,0.80097317695618,0.17699655890465
262,3965013883,0.013320,-0.699899,-0.072717,-0.710406,9.83064365386963,0.81284517049789,0.12402584403753,0.86720758676529,0.65586435794830,0.12249273061752
263,3965030550,0.013278,-0.699871,-0.072599,-0.710446,9.79525279998779,0.79072612524033,0.13304452598095,0.41114783287048,0.94442981481552,0.27618169784546
264,3965047217,0.013203,-0.699806,-0.072470,-0.710524,9.80208969116211,0.80769973993301,0.12706731259823,0.18197824060917,1.28632104396820,0.15247240662575
265,3965063884,0.013138,-0.699743,-0.072332,-0.710602,9.78289127349854,0.83619767427444,0.11911001801491,0.16453598439693,1.28771686553955,0.24329504370689
266,3965080551,0.013056,-0.699705,-0.072150,-0.710659,9.77814102172852,0.80985283851624,0.11022867262363,-0.11405974626541,1.05594742298126,0.38109132647514
267,3965097218,0.012973,-0.699698,-0.072000,-0.710683,9.77463626861572,0.77604770660400,0.11613733321428,0.05910130217671,0.73957937955856,0.24390971660614
268,3965113885,0.012902,-0.699719,-0.071958,-0.710668,9.78560447692871,0.74364370107651,0.11222138255835,0.63136589527130,0.41281265020370,-0.20124538242817
269,3965130552,0.012893,-0.699730,-0.071999,-0.710653,9.77551174163818,0.76148331165314,0.09645163267851,1.36151993274689,0.49575942754745,-0.30016162991524
270,3965147219,0.012905,-0.699713,-0.072056,-0.710664,9.78779125213623,0.78292244672775,0.10163370519876,1.54936337471008,0.75360244512558,-0.28991654515266
271,3965163886,0.012899,-0.699686,-0.072087,-0.710687,9.80747890472412,0.81533956527710,0.10509447008371,1.27402687072754,0.85825592279434,-0.26317688822746
272,3965180553,0.012844,-0.699668,-0.072081,-0.710707,9.81604290008545,0.84622550010681,0.08822199702263,0.89909535646439,0.78167396783829,-0.32084387540817
273,3965197220,0.012778,-0.699680,-0.072048,-0.710699,9.83119964599609,0.82454884052277,0.12198966741562,0.72142004966736,0.49309569597244,-0.22384859621525
274,3965213887,0.012704,-0.699695,-0.072011,-0.710689,9.85053062438965,0.82120543718338,0.12400888651609,0.66087168455124,0.46928864717484,-0.23565603792667
275,3965230554,0.012643,-0.699707,-0.071978,-0.710682,9.80240917205811,0.79841011762619,0.08835569769144,0.73749208450317,0.50337916612625,-0.20576600730419
276,3965247221,0.012588,-0.699692,-0.071953,-0.710701,9.77889442443848,0.80632448196411,0.12475526332855,0.80791419744492,0.76100450754166,-0.22091592848301
277,3965263888,0.012514,-0.699697,-0.071907,-0.710702,9.81008625030518,0.82903420925140,0.12426648288965,0.59170460700989,0.56541317701340,-0.20439574122429
278,3965280555,0.012469,-0.699690,-0.071871,-0.710713,9.77264022827148,0.81680357456207,0.13001717627048,0.81613576412201,0.69129949808121,-0.12005311250687
279,3965297222,0.012406,-0.699651,-0.071846,-0.710755,9.79384136199951,0.80793833732605,0.11004812270403,0.75836634635925,0.98414230346680,-0.27561184763908
280,3965313889,0.012362,-0.699590,-0.071877,-0.710813,9.82748603820801,0.83771955966949,0.12091439962387,1.09399521350861,1.18075823783875,-0.46824499964714
281,3965330556,0.012331,-0.699524,-0.071894,-0.710877,9.83027076721191,0.88016223907471,0.06754371523857,1.09737622737885,1.23368692398071,-0.34096267819405
282,3965347223,0.012325,-0.699451,-0.071839,-0.710954,9.84146690368652,0.85380607843399,0.10548581928015,0.86366021633148,1.34927690029144,0.12547661364079
283,3965363890,0.012352,-0.699399,-0.071784,-0.711010,9.82358646392822,0.83411711454391,0.09267328679562,1.00957584381104,1.16101098060608,0.29788851737976
284,3965380557,0.012384,-0.699375,-0.071702,-0.711041,9.79838371276855,0.81924951076508,0.12064290791750,0.94580012559891,0.91291350126266,0.47320741415024
285,3965397224,0.012373,-0.699328,-0.071606,-0.711097,9.78109931945801,0.83054488897324,0.13881582021713,0.65777260065079,1.12695872783661,0.31183463335037
286,3965413891,0.012316,-0.699271,-0.071496,-0.711165,9.78356933593750,0.81527864933014,0.13067096471786,0.36745256185532,1.20907306671143,0.14915555715561
287,3965430558,0.012223,-0.699191,-0.071357,-0.711260,9.76445007324219,0.81353759765625,0.16273646056652,0.00431573996320,1.43349158763885,0.09915956854820
288,3965447225,0.012115,-0.699107,-0.071238,-0.711356,9.77099609375000,0.78633189201355,0.11199983954430,0.04690966010094,1.45475018024445,-0.07092797011137
289,3965463892,0.012054,-0.699023,-0.071163,-0.711447,9.78142356872559,0.77516067028046,0.13142059743404,0.51668500900269,1.44745051860809,-0.05445899814367
290,3965480559,0.012046,-0.698961,-0.071133,-0.711511,9.79693794250488,0.78787064552307,0.14615072309971,0.98015320301056,1.22922396659851,0.00556435901672
291,3965497226,0.012078,-0.698919,-0.071117,-0.711554,9.82182502746582,0.81980991363525,0.12787027657032,1.22862195968628,1.04720723628998,0.14192636311054
292,3965513893,0.012096,-0.698886,-0.071094,-0.711588,9.79496383666992,0.83410555124283,0.13843500614166,1.14431786537170,0.96360749006271,0.11152410507202
293,3965530560,0.012059,-0.698865,-0.071030,-0.711615,9.78674316406250,0.83699053525925,0.13832879066467,0.67902463674545,0.83686292171478,0.04659589752555
294,3965547227,0.012000,-0.698846,-0.070904,-0.711648,9.78724098205566,0.82074534893036,0.15423181653023,0.28808525204659,0.85477906465530,0.24141891300678
295,3965563894,0.011959,-0.698811,-0.070771,-0.711696,9.79268550872803,0.80593317747116,0.12685850262642,0.31003531813622,1.01675367355347,0.35055461525917
296,3965580561,0.011966,-0.698784,-0.070653,-0.711734,9.77640342712402,0.80886834859848,0.15158686041832,0.62189555168152,0.94922584295273,0.51596140861511
297,3965597228,0.012007,-0.698767,-0.070563,-0.711760,9.79571723937988,0.79921555519104,0.18500655889511,0.92034763097763,0.85453575849533,0.55811995267868
298,3965613895,0.012045,-0.698769,-0.070490,-0.711764,9.80344295501709,0.81153088808060,0.17329764366150,1.00401139259338,0.65662640333176,0.46591421961784
299,3965630562,0.012072,-0.698771,-0.070410,-0.711770,9.81512546539307,0.82260942459106,0.15289978682995,0.90901398658752,0.65917485952377,0.45228829979897
300,3965647229,0.012082,-0.698767,-0.070303,-0.711783,9.81552410125732,0.79584175348282,0.17636734247208,0.71066915988922,0.71544587612152,0.49166774749756
301,3965663896,0.012072,-0.698755,-0.070189,-0.711807,9.78947830200195,0.78142786026001,0.18705199658871,0.57594639062881,0.79830300807953,0.42677798867226
302,3965680563,0.012045,-0.698740,-0.070087,-0.711833,9.78621768951416,0.78873401880264,0.19825750589371,0.54271388053894,0.81696182489395,0.27914640307426
303,3965697230,0.011997,-0.698725,-0.069992,-0.711857,9.81044006347656,0.79068249464035,0.17533059418201,0.49343496561050,0.79480689764023,0.14875213801861
304,3965713897,0.012023,-0.698722,-0.069936,-0.711865,9.83483314514160,0.77294415235519,0.12027014791965,1.04112422466278,0.69665908813477,0.32761844992638
305,3965730564,0.012087,-0.698696,-0.069936,-0.711890,9.77348995208740,0.81005352735519,0.13792863488197,1.48186755180359,0.89444023370743,0.23084086179733
306,3965747231,0.012134,-0.698688,-0.069892,-0.711901,9.76074695587158,0.82260757684708,0.15190602838993,1.18378698825836,0.74231362342834,0.37228697538376
307,3965763898,0.012216,-0.698672,-0.069879,-0.711917,9.79881191253662,0.82871240377426,0.19238308072090,1.50033438205719,0.81552761793137,0.38591298460960
308,3965780565,0.012225,-0.698657,-0.069806,-0.711938,9.85084629058838,0.82307243347168,0.19624617695808,0.86574119329453,0.80666553974152,0.32320025563240
309,3965797232,0.012188,-0.698641,-0.069701,-0.711965,9.85441589355469,0.80289030075073,0.17483572661877,0.47738870978355,0.81393963098526,0.24442841112614
310,3965813899,0.012108,-0.698600,-0.069524,-0.712024,9.82385158538818,0.77940070629120,0.18073198199272,-0.08777471631765,1.08882784843445,0.36752301454544
311,3965830566,0.012034,-0.698550,-0.069355,-0.712090,9.81885814666748,0.78328824043274,0.14975126087666,-0.03990458697081,1.15821266174316,0.35234749317169
312,3965847233,0.012008,-0.698497,-0.069198,-0.712158,9.79012012481689,0.81133365631104,0.16401769220829,0.21992985904217,1.20207440853119,0.52402943372726
313,3965863900,0.011957,-0.698453,-0.068992,-0.712222,9.74388504028320,0.83553194999695,0.15848687291145,-0.07138259708881,1.14124429225922,0.64722657203674
314,3965880567,0.011898,-0.698407,-0.068840,-0.712283,9.72689723968506,0.77469956874847,0.15647961199284,0.11655699461699,1.12172734737396,0.34949168562889
315,3965897234,0.011832,-0.698361,-0.068774,-0.712336,9.73612403869629,0.74001938104630,0.12615686655045,0.51010894775391,1.07374215126038,-0.09964621067047
316,3965913901,0.011794,-0.698297,-0.068747,-0.712402,9.74937629699707,0.72477561235428,0.14374217391014,0.79780364036560,1.23284804821014,-0.15806877613068
317,3965930568,0.011804,-0.698235,-0.068735,-0.712463,9.77087116241455,0.72878283262253,0.14272767305374,1.13122975826263,1.22321772575378,0.00747250486165
318,3965947235,0.011805,-0.698177,-0.068720,-0.712522,9.80317401885986,0.72367155551910,0.14414089918137,1.08082401752472,1.18622016906738,-0.02625301666558
319,3965963902,0.011794,-0.698159,-0.068726,-0.712539,9.79114913940430,0.74570643901825,0.13851419091225,1.16270780563354,0.78668767213821,-0.16042517125607
320,3965980569,0.011777,-0.698157,-0.068748,-0.712539,9.82229518890381,0.78378397226334,0.12538930773735,1.21873533725739,0.61983370780945,-0.25334796309471
321,3965997236,0.011757,-0.698171,-0.068774,-0.712523,9.79670619964600,0.77491855621338,0.12587033212185,1.22138631343842,0.46806567907333,-0.27814111113548
322,3966013903,0.011786,-0.698198,-0.068777,-0.712496,9.74841022491455,0.78861975669861,0.12806655466557,1.34195816516876,0.37223574519157,0.07521809637547
323,3966030570,0.011820,-0.698238,-0.068756,-0.712458,9.73347568511963,0.79805594682693,0.14763911068439,1.26727163791656,0.25414839386940,0.22259359061718
324,3966047237,0.011855,-0.698298,-0.068716,-0.712403,9.73802375793457,0.77920120954514,0.17967540025711,1.18729591369629,0.08356784284115,0.32846367359161
325,3966063904,0.011855,-0.698320,-0.068665,-0.712386,9.76168346405029,0.76656466722488,0.16454769670963,0.92372834682465,0.44279873371124,0.18950194120407
326,3966080571,0.011796,-0.698307,-0.068643,-0.712402,9.81871891021729,0.76973611116409,0.15789015591145,0.78054058551788,0.72868764400482,-0.25766372680664
327,3966097238,0.011761,-0.698296,-0.068640,-0.712414,9.82027339935303,0.78873407840729,0.15197756886482,1.00369119644165,0.71965926885605,-0.22964344918728
328,3966113905,0.011748,-0.698281,-0.068618,-0.712431,9.82424736022949,0.78814333677292,0.16265185177326,0.99955487251282,0.76988577842712,-0.03791960328817
329,3966130572,0.011757,-0.698275,-0.068589,-0.712439,9.80585765838623,0.80532807111740,0.20000651478767,1.07717406749725,0.69110113382339,0.11738941073418
330,3966147239,0.011754,-0.698301,-0.068560,-0.712417,9.78396511077881,0.78790128231049,0.19159333407879,1.01616466045380,0.39079219102859,0.07395027577877
331,3966163906,0.011733,-0.698318,-0.068534,-0.712402,9.78509426116943,0.81213402748108,0.21088662743568,0.94073528051376,0.45806396007538,-0.03565287962556
332,3966180573,0.011663,-0.698292,-0.068462,-0.712436,9.80409336090088,0.79630041122437,0.17903596162796,0.44911226630211,0.88263279199600,-0.08546957373619
333,3966197240,0.011552,-0.698252,-0.068339,-0.712489,9.79905891418457,0.79639309644699,0.20574490725994,0.02400550432503,1.03057169914246,-0.04139012470841
334,3966213907,0.011428,-0.698217,-0.068238,-0.712535,9.82077026367188,0.77810502052307,0.17942014336586,0.03389200568199,0.95579546689987,-0.20935821533203
335,3966230574,0.011329,-0.698176,-0.068159,-0.712585,9.84409904479980,0.76422911882401,0.15235683321953,0.26544362306595,1.02351546287537,-0.19725620746613
336,3966247241,0.011263,-0.698138,-0.068122,-0.712626,9.81696987152100,0.79143095016479,0.18861815333366,0.66169768571854,0.97417271137238,-0.23201264441013
337,3966263908,0.011218,-0.698103,-0.068106,-0.712662,9.80391788482666,0.79150134325027,0.14926689863205,0.84728735685349,0.94511502981186,-0.23078323900700
338,3966280575,0.011173,-0.698097,-0.068096,-0.712670,9.78010654449463,0.78499829769135,0.16220508515835,0.92429196834564,0.66868996620178,-0.24384570121765
339,3966297242,0.011132,-0.698087,-0.068072,-0.712682,9.78850746154785,0.78744679689407,0.15123884379864,0.86485767364502,0.71070760488510,-0.15836332738400
340,3966313909,0.011069,-0.698071,-0.068007,-0.712706,9.78127574920654,0.78930753469467,0.17316348850727,0.55368894338608,0.79356467723846,-0.06875728815794
341,3966330576,0.011001,-0.698054,-0.067941,-0.712729,9.76430320739746,0.75111085176468,0.17775301635265,0.51201701164246,0.78500998020172,-0.09216729551554
342,3966347243,0.010912,-0.698041,-0.067873,-0.712750,9.76970958709717,0.76268953084946,0.19501264393330,0.37041723728180,0.74454188346863,-0.18977729976177
343,3966363910,0.010806,-0.698036,-0.067823,-0.712761,9.77436733245850,0.77071493864059,0.13048309087753,0.41243487596512,0.65288692712784,-0.34953647851944
344,3966380577,0.010727,-0.698046,-0.067786,-0.712756,9.79605960845947,0.79089051485062,0.11180421710014,0.61537712812424,0.51331049203873,-0.26839545369148
345,3966397244,0.010681,-0.698062,-0.067768,-0.712743,9.79666423797607,0.77709090709686,0.16180950403214,0.88890796899796,0.46437746286392,-0.20291662216187
346,3966413911,0.010643,-0.698071,-0.067743,-0.712737,9.78314685821533,0.80246186256409,0.16916833817959,0.86905807256699,0.52714133262634,-0.12159628421068
347,3966430578,0.010588,-0.698108,-0.067702,-0.712706,9.78979587554932,0.79015582799911,0.17227305471897,0.70322865247726,0.26758229732513,-0.11990585178137
348,3966447245,0.010554,-0.698152,-0.067644,-0.712669,9.81583786010742,0.77679157257080,0.14559097588062,0.74176293611526,0.21785521507263,0.06590788066387
349,3966463912,0.010547,-0.698188,-0.067630,-0.712635,9.78818702697754,0.81612747907639,0.15969948470592,1.06043612957001,0.27719986438751,-0.01764714904130
350,3966480579,0.010580,-0.698251,-0.067590,-0.712577,9.77452564239502,0.80117243528366,0.15138660371304,1.14470195770264,0.05244840309024,0.31679707765579
351,3966497246,0.010657,-0.698300,-0.067618,-0.712524,9.81389713287354,0.80388069152832,0.16081738471985,1.69793641567230,0.16199393570423,0.20677775144577
352,3966513913,0.010718,-0.698351,-0.067624,-0.712473,9.84025669097900,0.81012696027756,0.18606275320053,1.53903496265411,0.15918932855129,0.22544936835766
353,3966530580,0.010772,-0.698402,-0.067574,-0.712427,9.83482551574707,0.81003826856613,0.21214564144611,1.20081937313080,0.17518448829651,0.46844992041588
354,3966547247,0.010765,-0.698431,-0.067419,-0.712414,9.80737209320068,0.80694341659546,0.20258092880249,0.37972745299339,0.42612487077713,0.65521758794785
355,3966563914,0.010716,-0.698443,-0.067237,-0.712420,9.80288887023926,0.80274409055710,0.17771962285042,0.05083480849862,0.58188849687576,0.57339787483215
356,3966580581,0.010653,-0.698436,-0.067036,-0.712447,9.78958797454834,0.79663980007172,0.19709916412830,-0.14993675053120,0.76755505800247,0.58589696884155
357,3966597248,0.010571,-0.698444,-0.066846,-0.712457,9.79594707489014,0.75114297866821,0.18175715208054,-0.20910209417343,0.60221219062805,0.44049358367920
358,3966613915,0.010534,-0.698479,-0.066747,-0.712433,9.77202892303467,0.68791168928146,0.15952712297440,0.48257523775101,0.32115122675896,0.24545288085938
359,3966630582,0.010546,-0.698525,-0.066772,-0.712386,9.76503753662109,0.69828164577484,0.15903627872467,1.31648647785187,0.17231583595276,-0.10085000842810
360,3966647249,0.010605,-0.698553,-0.066852,-0.712350,9.76158142089844,0.73152017593384,0.16643717885017,1.81959652900696,0.33067914843559,-0.15352250635624
361,3966663916,0.010631,-0.698559,-0.066928,-0.712336,9.77636718750000,0.78449815511703,0.15025870501995,1.62359547615051,0.52487468719482,-0.30189692974091
362,3966680583,0.010610,-0.698573,-0.066959,-0.712320,9.81998634338379,0.78442335128784,0.14243909716606,1.21762132644653,0.46267423033714,-0.31072047352791
363,3966697250,0.010584,-0.698619,-0.066952,-0.712276,9.81138229370117,0.77639609575272,0.14782194793224,1.00293564796448,0.16894775629044,-0.13545276224613
364,3966713917,0.010565,-0.698699,-0.066928,-0.712200,9.82841587066650,0.76765847206116,0.15765473246574,0.94538390636444,-0.13969165086746,-0.00289423484355
365,3966730584,0.010540,-0.698783,-0.066900,-0.712121,9.80759716033936,0.76886111497879,0.15380387008190,0.91037136316299,-0.18603783845901,-0.01865885220468
366,3966747251,0.010521,-0.698848,-0.066866,-0.712061,9.79032897949219,0.77874660491943,0.13933780789375,0.92484265565872,0.00856104493141,0.03962925449014
367,3966763918,0.010481,-0.698928,-0.066810,-0.711988,9.82909870147705,0.78495246171951,0.15125210583210,0.67802572250366,-0.14144612848759,0.04842720925808
368,3966780585,0.010467,-0.699024,-0.066746,-0.711900,9.78438377380371,0.75094634294510,0.18922907114029,0.77042359113693,-0.27464494109154,0.22105678915977
369,3966797252,0.010431,-0.699094,-0.066712,-0.711834,9.77059173583984,0.74153733253479,0.17408619821072,0.82003533840179,-0.05680896341801,-0.04874096438289
370,3966813919,0.010407,-0.699145,-0.066736,-0.711782,9.82522201538086,0.77912175655365,0.13801255822182,1.15398657321930,0.10632471740246,-0.27505478262901
371,3966830586,0.010408,-0.699156,-0.066755,-0.711770,9.83690738677979,0.78773546218872,0.11230959743261,1.25263392925262,0.51361793279648,-0.14418667554855
372,3966847253,0.010413,-0.699130,-0.066785,-0.711792,9.83707904815674,0.79975521564484,0.16458351910114,1.28540527820587,0.84531509876251,-0.20371060073376
373,3966863920,0.010424,-0.699119,-0.066766,-0.711805,9.82360172271729,0.79664140939713,0.12597399950027,1.08802103996277,0.74224960803986,0.07101761549711
374,3966880587,0.010447,-0.699145,-0.066749,-0.711781,9.80830669403076,0.79152232408524,0.14242367446423,1.11797535419464,0.38609227538109,0.13449871540070
375,3966897254,0.010456,-0.699171,-0.066721,-0.711758,9.80027866363525,0.78936225175858,0.13406512141228,1.01908445358276,0.38374865055084,0.12294735759497
376,3966913921,0.010445,-0.699170,-0.066662,-0.711764,9.80591583251953,0.77532440423965,0.14743991196156,0.75907713174820,0.65292531251907,0.15990647673607
377,3966930588,0.010423,-0.699158,-0.066587,-0.711784,9.79306793212891,0.76127737760544,0.13098020851612,0.66428452730179,0.76873302459717,0.17595282196999
378,3966947255,0.010404,-0.699144,-0.066535,-0.711802,9.77960586547852,0.75254219770432,0.13664540648460,0.73970115184784,0.76663285493851,0.07702378928661
379,3966963922,0.010388,-0.699125,-0.066495,-0.711825,9.78752803802490,0.76075273752213,0.15708890557289,0.82891017198563,0.81382429599762,0.03706797957420
380,3966980589,0.010386,-0.699118,-0.066471,-0.711834,9.80856132507324,0.75577884912491,0.14082217216492,0.99288260936737,0.69544231891632,0.03440425544977
381,3966997256,0.010404,-0.699118,-0.066459,-0.711835,9.81632614135742,0.76271414756775,0.11155392229557,1.14716076850891,0.63666129112244,0.07242631167173
382,3967013923,0.010437,-0.699121,-0.066461,-0.711831,9.80518245697021,0.77016943693161,0.13121493160725,1.26362180709839,0.59429788589478,0.08541195094585
383,3967030590,0.010475,-0.699137,-0.066445,-0.711817,9.78225326538086,0.77239608764648,0.12482924014330,1.20532727241516,0.48523899912834,0.20066910982132
384,3967047257,0.010481,-0.699133,-0.066389,-0.711825,9.78895759582520,0.78726756572723,0.15150758624077,0.89331328868866,0.68591451644897,0.23227515816689
385,3967063924,0.010464,-0.699116,-0.066318,-0.711849,9.79311847686768,0.77839410305023,0.14290183782578,0.65701049566269,0.81215947866440,0.17513324320316
386,3967080591,0.010426,-0.699087,-0.066228,-0.711887,9.80228519439697,0.74719357490540,0.16457645595074,0.45150703191757,0.93246233463287,0.16095659136772
387,3967097258,0.010418,-0.699073,-0.066172,-0.711906,9.81785774230957,0.73473614454269,0.15598624944687,0.76796472072601,0.77436792850494,0.14961017668247
388,3967113925,0.010444,-0.699075,-0.066151,-0.711905,9.80137825012207,0.74423998594284,0.12200637161732,1.12284159660339,0.61264938116074,0.16282632946968
389,3967130592,0.010479,-0.699074,-0.066136,-0.711907,9.79564857482910,0.75643634796143,0.12608648836613,1.22253906726837,0.65466701984406,0.17204691469669
390,3967147259,0.010504,-0.699056,-0.066125,-0.711925,9.78074169158936,0.77218484878540,0.13947917521000,1.13627529144287,0.79932749271393,0.09979347884655
391,3967163926,0.010467,-0.699026,-0.066071,-0.711961,9.78695297241211,0.76592010259628,0.18586702644825,0.66979128122330,0.92392057180405,-0.01298563927412
392,3967180593,0.010430,-0.699011,-0.065993,-0.711983,9.82820129394531,0.75232660770416,0.13528296351433,0.50830328464508,0.78104007244110,0.11820900440216
393,3967197260,0.010423,-0.698976,-0.065969,-0.712020,9.79704380035400,0.74735057353973,0.13892856240273,0.91854190826416,0.96477276086807,-0.00446941610426
394,3967213927,0.010416,-0.698959,-0.065901,-0.712043,9.74660968780518,0.77695977687836,0.17857398092747,0.72643381357193,0.81003367900848,0.21123436093330
395,3967230594,0.010466,-0.698973,-0.065864,-0.712032,9.77227210998535,0.75186824798584,0.16187170147896,1.19624757766724,0.52309453487396,0.36140158772469
396,3967247261,0.010511,-0.698977,-0.065838,-0.712030,9.81145477294922,0.76629966497421,0.16860911250114,1.21765983104706,0.61350733041763,0.27835240960121
397,3967263928,0.010532,-0.698975,-0.065815,-0.712033,9.81625080108643,0.76768928766251,0.19075459241867,1.09241378307343,0.65424448251724,0.14188796281815
398,3967280595,0.010450,-0.698951,-0.065709,-0.712068,9.76979827880859,0.76748830080032,0.21373847126961,0.16759030520916,0.87288713455200,0.02126494236290
399,3967297262,0.010304,-0.698869,-0.065542,-0.712166,9.80747795104980,0.78353232145309,0.15729628503323,-0.43193253874779,1.43529081344604,-0.02079751342535
400,3967313929,0.010222,-0.698777,-0.065399,-0.712271,9.83819580078125,0.79882407188416,0.14293983578682,-0.02271846495569,1.54233908653259,0.16213479638100
401,3967330596,0.010207,-0.698687,-0.065252,-0.712373,9.81735229492188,0.79510134458542,0.13307613134384,0.27465137839317,1.55154693126678,0.51729321479797
402,3967347263,0.010236,-0.698623,-0.065160,-0.712443,9.79614830017090,0.76647114753723,0.13582798838615,0.76293188333511,1.28395831584930,0.48174285888672
403,3967363930,0.010324,-0.698585,-0.065138,-0.712481,9.79804611206055,0.75702267885208,0.13204878568649,1.42696678638458,1.03314602375031,0.45199376344681
404,3967380597,0.010449,-0.698546,-0.065177,-0.712514,9.79125881195068,0.75243014097214,0.16458281874657,1.88658666610718,1.01904594898224,0.32809227705002
405,3967397264,0.010561,-0.698482,-0.065171,-0.712576,9.79584312438965,0.76838958263397,0.14782699942589,1.61061000823975,1.27843880653381,0.47773450613022
406,3967413931,0.010612,-0.698412,-0.065078,-0.712652,9.80695056915283,0.77296936511993,0.15054336190224,0.87202924489975,1.35618615150452,0.59028953313828
407,3967430598,0.010628,-0.698346,-0.064923,-0.712731,9.80211544036865,0.74979203939438,0.15514107048512,0.38550314307213,1.33522200584412,0.71769982576370
408,3967447265,0.010652,-0.698300,-0.064737,-0.712793,9.80005168914795,0.73107004165649,0.15864728391171,0.28497332334518,1.16453897953033,0.91847777366638
409,3967463932,0.010668,-0.698264,-0.064588,-0.712841,9.79112339019775,0.71050852537155,0.15438376367092,0.38479876518250,1.04043257236481,0.70174306631088
410,3967480599,0.010707,-0.698258,-0.064496,-0.712854,9.79117774963379,0.67058622837067,0.16743430495262,0.85536819696426,0.73261928558350,0.56629037857056
411,3967497266,0.010777,-0.698237,-0.064464,-0.712877,9.77852630615234,0.70802694559097,0.15039785206318,1.25388884544373,0.86465269327164,0.41357463598251
412,3967513933,0.010849,-0.698238,-0.064433,-0.712877,9.80815410614014,0.73090153932571,0.17826594412327,1.30060648918152,0.64261627197266,0.43129861354828
413,3967530600,0.010926,-0.698258,-0.064386,-0.712862,9.79318618774414,0.72780376672745,0.21828195452690,1.24708878993988,0.48418891429901,0.54608201980591
414,3967547267,0.010946,-0.698263,-0.064319,-0.712862,9.79290771484375,0.72388845682144,0.18893907964230,0.87128639221191,0.60791099071503,0.34657183289528
415,3967563934,0.010988,-0.698246,-0.064306,-0.712879,9.82059478759766,0.73606604337692,0.17747837305069,1.25319743156433,0.79585695266724,0.19173027575016
416,3967580601,0.010991,-0.698211,-0.064267,-0.712917,9.83325767517090,0.77268826961517,0.19098344445229,0.90705448389053,0.97787362337112,0.11746621876955
417,3967597268,0.011007,-0.698175,-0.064195,-0.712958,9.82122898101807,0.77266478538513,0.17699298262596,0.85045057535172,1.00606048107147,0.33689028024673
418,3967613935,0.011048,-0.698148,-0.064127,-0.712990,9.81819343566895,0.75060558319092,0.18636982142925,0.95172315835953,0.92707097530365,0.44471973180771
419,3967630602,0.011070,-0.698141,-0.064036,-0.713005,9.79417800903320,0.74424695968628,0.20660375058651,0.77764636278152,0.73430967330933,0.46934628486633
420,3967647269,0.011087,-0.698118,-0.063934,-0.713036,9.78092288970947,0.71850371360779,0.18690073490143,0.68613213300705,0.89835911989212,0.48892718553543
421,3967663936,0.011126,-0.698084,-0.063837,-0.713078,9.78413486480713,0.69978445768356,0.18833889067173,0.61784875392914,0.99899125099182,0.56766062974930
422,3967680603,0.011136,-0.698057,-0.063736,-0.713113,9.79210662841797,0.69565701484680,0.18420732021332,0.65617817640305,0.93066942691803,0.44880491495132
423,3967697270,0.011141,-0.698023,-0.063656,-0.713154,9.80216979980469,0.70301628112793,0.19336500763893,0.70632779598236,0.98503249883652,0.32071581482887
424,3967713937,0.011137,-0.697990,-0.063608,-0.713190,9.78270721435547,0.69859248399734,0.17992216348648,0.81545078754425,0.94713848829269,0.12372855842113
425,3967730604,0.011132,-0.697969,-0.063559,-0.713216,9.79351329803467,0.71647500991821,0.18213680386543,0.81689780950546,0.84823495149612,0.13045187294483
426,3967747271,0.011141,-0.697968,-0.063531,-0.713218,9.80091953277588,0.72042346000671,0.14722770452499,0.99048787355423,0.63746809959412,0.10700345039368
427,3967763938,0.011174,-0.697983,-0.063504,-0.713205,9.79989051818848,0.70377635955811,0.17883861064911,1.12296974658966,0.49393454194069,0.23127628862858
428,3967780605,0.011213,-0.698001,-0.063480,-0.713190,9.79473781585693,0.71464991569519,0.19687768816948,1.15339756011963,0.47606962919235,0.24330145120621
429,3967797272,0.011238,-0.698001,-0.063446,-0.713192,9.79034614562988,0.72908788919449,0.21805720031261,1.04823184013367,0.63822358846664,0.21482011675835
430,3967813939,0.011219,-0.697988,-0.063378,-0.713212,9.78268909454346,0.73699665069580,0.18390583992004,0.66002005338669,0.77207559347153,0.16090537607670
431,3967830606,0.011193,-0.697983,-0.063287,-0.713225,9.79812049865723,0.71193343400955,0.17171998322010,0.50734269618988,0.69423860311508,0.23520781099796
432,3967847273,0.011173,-0.697979,-0.063215,-0.713235,9.79425716400146,0.71687829494476,0.18069660663605,0.64192467927933,0.67974179983139,0.17533811926842
433,3967863940,0.011171,-0.697978,-0.063151,-0.713242,9.80730628967285,0.71294683218002,0.17151382565498,0.79018372297287,0.66471987962723,0.22368209064007
434,3967880607,0.011204,-0.697981,-0.063125,-0.713241,9.80332183837891,0.70978546142578,0.18008100986481,0.96151989698410,0.59749943017960,0.21563971042633
435,3967897274,0.011247,-0.697981,-0.063081,-0.713244,9.80927848815918,0.72278469800949,0.20888946950436,1.08649718761444,0.65639585256577,0.34950450062752
436,3967913941,0.011249,-0.697975,-0.063026,-0.713255,9.79796028137207,0.72075706720352,0.21069827675819,0.84122985601425,0.70486778020859,0.20384505391121
437,3967930608,0.011251,-0.697966,-0.062970,-0.713269,9.81093978881836,0.72007453441620,0.19935005903244,0.81154471635818,0.72758632898331,0.20362734794617
438,3967947275,0.011232,-0.697943,-0.062903,-0.713297,9.79829311370850,0.72171711921692,0.19707858562469,0.67150735855103,0.85830086469650,0.14977666735649
439,3967963942,0.011194,-0.697927,-0.062804,-0.713322,9.82716941833496,0.70195394754410,0.15283976495266,0.38394075632095,0.80717784166336,0.20547147095203
440,3967980609,0.011187,-0.697894,-0.062740,-0.713360,9.84807205200195,0.68603157997131,0.17809681594372,0.70111572742462,0.95594924688339,0.18545517325401
441,3967997276,0.011191,-0.697855,-0.062684,-0.713403,9.78853225708008,0.72236520051956,0.20652246475220,0.82025319337845,1.02461683750153,0.19609722495079
442,3968013943,0.011189,-0.697836,-0.062619,-0.713427,9.79470825195312,0.71010053157806,0.20760849118233,0.75148302316666,0.82335227727890,0.22450172901154
443,3968030610,0.011244,-0.697814,-0.062587,-0.713450,9.83876514434814,0.70604968070984,0.19414283335209,1.01739406585693,0.85328066349030,0.33719757199287
444,3968047277,0.011292,-0.697805,-0.062585,-0.713459,9.86895942687988,0.69345551729202,0.21238532662392,1.13938736915588,0.71515136957169,0.16752627491951
445,3968063944,0.011343,-0.697792,-0.062567,-0.713472,9.81881332397461,0.67583775520325,0.23555828630924,1.24591064453125,0.76338011026382,0.25946304202080
446,3968080611,0.011345,-0.697745,-0.062487,-0.713526,9.80288028717041,0.69650185108185,0.19721369445324,0.69110095500946,1.11084187030792,0.29964935779572
447,3968097278,0.011316,-0.697676,-0.062396,-0.713602,9.80886077880859,0.74099683761597,0.19727310538292,0.48349729180336,1.31211936473846,0.19435556232929
448,3968113945,0.011256,-0.697613,-0.062231,-0.713679,9.79320335388184,0.74610203504562,0.18496671319008,0.01077654398978,1.28733909130096,0.39275154471397
449,3968130612,0.011164,-0.697559,-0.062015,-0.713751,9.77208900451660,0.70248824357986,0.21138721704483,-0.42185392975807,1.20148539543152,0.48563596606255
450,3968147279,0.011083,-0.697531,-0.061856,-0.713794,9.78107357025146,0.64846855401993,0.20363590121269,-0.07491714507341,0.93358922004700,0.27864694595337
451,3968163946,0.011072,-0.697532,-0.061830,-0.713796,9.78990459442139,0.62564307451248,0.15020668506622,0.73788267374039,0.61148399114609,-0.00338087650016
452,3968180613,0.011107,-0.697524,-0.061860,-0.713800,9.78679466247559,0.65021377801895,0.17765620350838,1.39044308662415,0.68779706954956,-0.04492467641830
453,3968197280,0.011172,-0.697503,-0.061938,-0.713813,9.79191112518311,0.66857993602753,0.19629584252834,1.61209547519684,0.79033750295639,-0.13884644210339
454,3968213947,0.011224,-0.697487,-0.062009,-0.713821,9.81190776824951,0.69760048389435,0.18522672355175,1.52453851699829,0.73726803064346,-0.16730217635632
455,3968230614,0.011223,-0.697495,-0.062056,-0.713809,9.81671905517578,0.71926307678223,0.19255548715591,1.31865072250366,0.51430946588516,-0.29177990555763
456,3968247281,0.011195,-0.697512,-0.062051,-0.713793,9.85344028472900,0.72723579406738,0.17530865967274,0.95192795991898,0.44632047414780,-0.17611292004585
457,3968263948,0.011176,-0.697521,-0.062026,-0.713787,9.83014774322510,0.70357835292816,0.19830165803432,0.71410131454468,0.52979224920273,-0.04142853990197
458,3968280615,0.011162,-0.697507,-0.061982,-0.713805,9.80893230438232,0.72281295061111,0.19261524081230,0.62892633676529,0.75330150127411,0.05693063512444
459,3968297282,0.011126,-0.697498,-0.061904,-0.713821,9.80567264556885,0.71567094326019,0.22781158983707,0.36567890644073,0.71866035461426,0.11450797319412
460,3968313949,0.011090,-0.697511,-0.061813,-0.713817,9.79371547698975,0.69889104366302,0.22429257631302,0.46600386500359,0.52463132143021,0.20252600312233
461,3968330616,0.011029,-0.697506,-0.061734,-0.713830,9.76776695251465,0.67632871866226,0.21187239885330,0.41449669003487,0.68048453330994,0.00690902536735
462,3968347283,0.010995,-0.697476,-0.061736,-0.713859,9.82771682739258,0.68738716840744,0.18087346851826,0.92694282531738,0.88956111669540,-0.26442551612854
463,3968363950,0.011007,-0.697435,-0.061798,-0.713894,9.85302066802979,0.69446361064911,0.15484659373760,1.45394968986511,0.98425132036209,-0.32734310626984
464,3968380617,0.011054,-0.697401,-0.061850,-0.713922,9.85449314117432,0.72725933790207,0.19785816967487,1.55518400669098,0.93419122695923,-0.10181048512459
465,3968397284,0.011116,-0.697387,-0.061876,-0.713933,9.84270191192627,0.72753256559372,0.23208856582642,1.53970098495483,0.76227867603302,0.09953734278679
466,3968413951,0.011164,-0.697404,-0.061877,-0.713914,9.80733776092529,0.73295080661774,0.24914705753326,1.16565322875977,0.45213460922241,0.16551567614079
467,3968430618,0.011156,-0.697422,-0.061828,-0.713902,9.78946304321289,0.69213914871216,0.22294791042805,0.64871203899384,0.45715466141701,0.12717345356941
468,3968447285,0.011113,-0.697408,-0.061764,-0.713921,9.77742671966553,0.68030554056168,0.22054255008698,0.39562013745308,0.75552970170975,0.02044533565640
469,3968463952,0.011083,-0.697378,-0.061745,-0.713953,9.77841854095459,0.67665237188339,0.20250824093819,0.67584866285324,0.89414566755295,-0.14677354693413
470,3968480619,0.011104,-0.697359,-0.061784,-0.713968,9.78400611877441,0.66293692588806,0.18988651037216,1.20630049705505,0.78038698434830,-0.16808333992958
471,3968497286,0.011118,-0.697329,-0.061850,-0.713991,9.79072570800781,0.69133210182190,0.20205847918987,1.49595463275909,0.86799520254135,-0.33213269710541
472,3968513953,0.011180,-0.697310,-0.061936,-0.714001,9.78562164306641,0.71720981597900,0.19775664806366,1.63796424865723,0.77389419078827,-0.19274838268757
473,3968530620,0.011233,-0.697314,-0.061999,-0.713991,9.77785396575928,0.73561096191406,0.18579319119453,1.48711812496185,0.54802846908569,-0.11346423625946
474,3968547287,0.011242,-0.697326,-0.062001,-0.713979,9.79947566986084,0.72292619943619,0.17856712639332,1.13321471214294,0.50635665655136,-0.03106820583344
475,3968563954,0.011225,-0.697343,-0.061976,-0.713965,9.81980609893799,0.67845857143402,0.19632238149643,0.73059582710266,0.44944527745247,-0.02524131536484
476,3968580621,0.011200,-0.697368,-0.061921,-0.713946,9.81720066070557,0.67568862438202,0.20801009237766,0.54206073284149,0.38794916868210,0.07558948546648
477,3968597288,0.011177,-0.697405,-0.061847,-0.713916,9.79660129547119,0.68028420209885,0.21122883260250,0.63645642995834,0.28636920452118,0.19229374825954
478,3968613955,0.011167,-0.697434,-0.061806,-0.713892,9.78900241851807,0.69201171398163,0.18379214406013,0.82864135503769,0.35029849410057,0.09218651056290
479,3968630622,0.011154,-0.697455,-0.061778,-0.713874,9.79272174835205,0.70212447643280,0.19984866678715,0.88635951280594,0.42489549517632,0.00567961623892
480,3968647289,0.011173,-0.697471,-0.061819,-0.713854,9.82127857208252,0.70395326614380,0.19530795514584,1.22155284881592,0.43377029895782,-0.16230769455433
481,3968663956,0.011188,-0.697485,-0.061865,-0.713836,9.82162666320801,0.70043742656708,0.21361581981182,1.42363715171814,0.46909013390541,-0.21216280758381
482,3968680623,0.011210,-0.697487,-0.061893,-0.713832,9.82079029083252,0.68380928039551,0.19640791416168,1.30589556694031,0.58804839849472,-0.09725142270327
483,3968697290,0.011208,-0.697496,-0.061897,-0.713822,9.82077407836914,0.71131497621536,0.21873094141483,1.13114011287689,0.52666753530502,-0.09457489848137
484,3968713957,0.011195,-0.697495,-0.061895,-0.713823,9.82564258575439,0.70478886365891,0.20922482013702,1.02658903598785,0.61929583549500,-0.11779281497002
485,3968730624,0.011169,-0.697496,-0.061870,-0.713826,9.82011508941650,0.72024434804916,0.20792575180531,0.82545238733292,0.61442941427231,-0.08254972845316
486,3968747291,0.011138,-0.697489,-0.061831,-0.713836,9.78975105285645,0.71190148591995,0.20629854500294,0.72643375396729,0.68743848800659,-0.03674141690135
487,3968763958,0.011112,-0.697482,-0.061799,-0.713846,9.78423118591309,0.69845825433731,0.18919456005096,0.76609498262405,0.68508213758469,-0.05317196249962
488,3968780625,0.011089,-0.697478,-0.061784,-0.713852,9.78014564514160,0.69422519207001,0.18770420551300,0.95236337184906,0.65967422723770,-0.11030108481646
489,3968797292,0.011085,-0.697447,-0.061774,-0.713883,9.79146099090576,0.70913130044937,0.20511321723461,0.84256184101105,0.90203452110291,-0.05975443124771
490,3968813959,0.011054,-0.697420,-0.061721,-0.713915,9.84830951690674,0.69355756044388,0.19809542596340,0.50419241189957,0.88652598857880,0.01269749645144
491,3968830626,0.011048,-0.697396,-0.061715,-0.713938,9.82637977600098,0.68975871801376,0.17754805088043,0.85463809967041,0.83262401819229,-0.08462436497211
492,3968847293,0.011001,-0.697388,-0.061661,-0.713952,9.76712608337402,0.72253751754761,0.20024995505810,0.59889531135559,0.70275479555130,-0.04729384928942
493,3968863960,0.011008,-0.697382,-0.061626,-0.713960,9.78588771820068,0.68779802322388,0.20559433102608,0.78531736135483,0.68222624063492,0.12175636738539
494,3968880627,0.011028,-0.697376,-0.061632,-0.713965,9.83855533599854,0.67495620250702,0.18475568294525,1.19170117378235,0.67606645822525,-0.00160079356283
495,3968897294,0.011069,-0.697383,-0.061662,-0.713955,9.85674095153809,0.69860839843750,0.20606365799904,1.27567267417908,0.53736084699631,-0.01411259826273
496,3968913961,0.011106,-0.697378,-0.061676,-0.713959,9.83578872680664,0.68652492761612,0.23737001419067,1.16638314723969,0.66206908226013,0.03711920604110
497,3968930628,0.011105,-0.697350,-0.061644,-0.713988,9.81111907958984,0.71045386791229,0.20290441811085,0.74930596351624,0.88570642471313,0.06046518310905
498,3968947295,0.011107,-0.697299,-0.061609,-0.714041,9.79839706420898,0.72649055719376,0.16975146532059,0.74098175764084,1.11606705188751,0.07530774921179
499,3968963962,0.011047,-0.697245,-0.061483,-0.714106,9.79553985595703,0.73516088724136,0.20422977209091,0.17031803727150,1.17387461662292,0.21876443922520
500,3968980629,0.010963,-0.697192,-0.061343,-0.714171,9.78247642517090,0.69362860918045,0.19643822312355,-0.02736716717482,1.16660070419312,0.15915089845657
501,3968997296,0.010904,-0.697172,-0.061277,-0.714197,9.78627967834473,0.65283977985382,0.18937718868256,0.30863937735558,0.80728018283844,-0.05958794429898
502,3969013963,0.010900,-0.697162,-0.061309,-0.714204,9.78150939941406,0.64486426115036,0.19400945305824,1.06476485729218,0.68701589107513,-0.25164479017258
503,3969030630,0.010945,-0.697132,-0.061384,-0.714227,9.78546428680420,0.66342175006866,0.20655259490013,1.49649250507355,0.87330985069275,-0.22669801115990
504,3969047297,0.010984,-0.697092,-0.061440,-0.714260,9.80097961425781,0.69342923164368,0.20406384766102,1.37543416023254,0.96995943784714,-0.16940240561962
505,3969063964,0.011002,-0.697076,-0.061494,-0.714271,9.82490253448486,0.69246619939804,0.19831609725952,1.26763021945953,0.74354308843613,-0.25174725055695
506,3969080631,0.011009,-0.697076,-0.061521,-0.714268,9.81823730468750,0.69540202617645,0.22049589455128,1.09250342845917,0.59331178665161,-0.16964572668076
507,3969097298,0.010982,-0.697086,-0.061511,-0.714259,9.80156612396240,0.70432609319687,0.18622836470604,0.93186044692993,0.51336169242859,-0.14827190339565
508,3969113965,0.010968,-0.697086,-0.061494,-0.714261,9.81207180023193,0.69186639785767,0.21159625053406,0.77804332971573,0.61457031965256,-0.06351949274540
509,3969130632,0.010945,-0.697054,-0.061468,-0.714295,9.78835678100586,0.71640390157700,0.22667205333710,0.85030955076218,0.92710930109024,-0.07673564553261
510,3969147299,0.010880,-0.697044,-0.061396,-0.714312,9.81525993347168,0.71944606304169,0.25075909495354,0.44980382919312,0.72238695621490,-0.04771645739675
511,3969163966,0.010829,-0.697055,-0.061300,-0.714311,9.77629566192627,0.68127793073654,0.23559693992138,0.37957382202148,0.54617166519165,0.14378330111504
512,3969180633,0.010776,-0.697057,-0.061251,-0.714313,9.76619338989258,0.65446418523788,0.21062780916691,0.41404846310616,0.58721590042114,-0.09617567807436
513,3969197300,0.010719,-0.697028,-0.061256,-0.714342,9.81712341308594,0.67617934942245,0.20132783055305,0.83294427394867,0.87117123603821,-0.38831412792206
514,3969213967,0.010701,-0.696970,-0.061279,-0.714397,9.84141254425049,0.71408981084824,0.21792222559452,1.08695828914642,1.14913296699524,-0.30021926760674
515,3969230634,0.010709,-0.696919,-0.061288,-0.714446,9.84594249725342,0.73279589414597,0.20925784111023,1.13069188594818,1.10464358329773,-0.10224588960409
516,3969247301,0.010786,-0.696900,-0.061310,-0.714462,9.81619930267334,0.74022608995438,0.22910498082638,1.39776825904846,0.80712658166885,0.19393296539783
517,3969263968,0.010836,-0.696909,-0.061290,-0.714453,9.79453849792480,0.72704976797104,0.23000864684582,1.24296510219574,0.55403476953506,0.27698215842247
518,3969280635,0.010845,-0.696904,-0.061230,-0.714463,9.79470443725586,0.71503239870071,0.21815904974937,0.81702589988708,0.69414895772934,0.25749087333679
519,3969297302,0.010806,-0.696864,-0.061145,-0.714510,9.78178119659424,0.70384579896927,0.23021884262562,0.46289190649986,1.02792084217072,0.12671241164207
520,3969313969,0.010759,-0.696831,-0.061076,-0.714549,9.78444290161133,0.67480790615082,0.22409990429878,0.34398493170738,0.93875014781952,0.01023867633194
521,3969330636,0.010717,-0.696803,-0.060989,-0.714585,9.79464149475098,0.65887176990509,0.21287652850151,0.43572968244553,0.91590374708176,0.12167954444885
522,3969347303,0.010691,-0.696780,-0.060949,-0.714611,9.82789325714111,0.67352116107941,0.21553000807762,0.80918836593628,0.84790199995041,-0.01901742815971
523,3969363970,0.010687,-0.696774,-0.060955,-0.714616,9.81873512268066,0.68864780664444,0.22619950771332,1.12477540969849,0.66852349042892,-0.11766475439072
524,3969380637,0.010743,-0.696783,-0.061006,-0.714602,9.80839824676514,0.66848188638687,0.21452972292900,1.44165563583374,0.51571810245514,-0.03496133908629
525,3969397304,0.010800,-0.696801,-0.061051,-0.714580,9.80154514312744,0.69401687383652,0.20823517441750,1.42544281482697,0.43501245975494,-0.00542989186943
526,3969413971,0.010817,-0.696821,-0.061047,-0.714561,9.79389667510986,0.69638901948929,0.22143606841564,1.18216061592102,0.42899355292320,0.04280522465706
527,3969430638,0.010788,-0.696823,-0.061011,-0.714563,9.81303691864014,0.71254241466522,0.22525759041309,0.77801781892776,0.60908919572830,-0.03479485958815
528,3969447305,0.010728,-0.696839,-0.060929,-0.714554,9.81337738037109,0.69020444154739,0.23557549715042,0.40928453207016,0.47303456068039,0.03308520466089
529,3969463972,0.010667,-0.696847,-0.060840,-0.714555,9.81680679321289,0.67298501729965,0.21048125624657,0.37132650613785,0.56597018241882,0.05956874042749
530,3969480639,0.010647,-0.696851,-0.060792,-0.714556,9.80830955505371,0.65135967731476,0.19089794158936,0.59835743904114,0.58415520191193,0.06285996735096
531,3969497306,0.010626,-0.696861,-0.060798,-0.714546,9.81442546844482,0.67470848560333,0.22389690577984,0.98897683620453,0.50909721851349,-0.19739708304405
532,3969513973,0.010615,-0.696866,-0.060834,-0.714538,9.82340145111084,0.69165349006653,0.23281383514404,1.22396028041840,0.54389208555222,-0.29964295029640
533,3969530640,0.010643,-0.696862,-0.060899,-0.714536,9.82203102111816,0.68890249729156,0.22705878317356,1.37877643108368,0.62110161781311,-0.24554893374443
534,3969547307,0.010679,-0.696862,-0.060940,-0.714532,9.80834579467773,0.71339738368988,0.24526542425156,1.31301581859589,0.60049617290497,-0.09508714824915
535,3969563974,0.010695,-0.696867,-0.060967,-0.714525,9.79184913635254,0.71907174587250,0.21144618093967,1.14908182621002,0.55560988187790,-0.12181401252747
536,3969580641,0.010683,-0.696857,-0.060952,-0.714535,9.81930541992188,0.73208200931549,0.21375955641270,0.78089916706085,0.69722247123718,-0.06718210875988
537,3969597308,0.010631,-0.696843,-0.060892,-0.714555,9.81905841827393,0.70936346054077,0.22378318011761,0.36370673775673,0.75748914480209,-0.05025211349130
538,3969613975,0.010549,-0.696818,-0.060785,-0.714590,9.80767154693604,0.68173438310623,0.21834912896156,0.14663912355900,0.87450087070465,0.02901278622448
539,3969630642,0.010467,-0.696797,-0.060703,-0.714618,9.79028987884521,0.68068814277649,0.24513471126556,0.11399570852518,0.81844741106033,-0.09577867388725
540,3969647309,0.010403,-0.696792,-0.060645,-0.714629,9.81915283203125,0.66492062807083,0.22460369765759,0.32263678312302,0.65873938798904,-0.11931674927473
541,3969663976,0.010424,-0.696781,-0.060673,-0.714638,9.81012535095215,0.65997552871704,0.19852554798126,1.16015934944153,0.71029782295227,-0.10640795528889
542,3969680643,0.010477,-0.696766,-0.060710,-0.714647,9.77516746520996,0.71481984853745,0.21377083659172,1.35740268230438,0.74199348688126,-0.00062751118094
543,3969697310,0.010555,-0.696765,-0.060782,-0.714642,9.77775192260742,0.70519089698792,0.22938452661037,1.65342164039612,0.61641442775726,-0.03233603760600
544,3969713977,0.010628,-0.696756,-0.060856,-0.714643,9.82734870910645,0.73005580902100,0.20989215373993,1.63394308090210,0.67930644750595,-0.07781138271093
545,3969730644,0.010644,-0.696760,-0.060879,-0.714637,9.87419891357422,0.70650470256805,0.22045481204987,1.16984093189240,0.56739175319672,-0.10309111326933
546,3969747311,0.010637,-0.696750,-0.060841,-0.714650,9.85055446624756,0.68538308143616,0.25503858923912,0.70619970560074,0.71854507923126,0.07120971381664
547,3969763978,0.010557,-0.696719,-0.060726,-0.714692,9.81207275390625,0.69608151912689,0.21565371751785,-0.04171027988195,0.93096399307251,0.06837949901819
548,3969780645,0.010469,-0.696672,-0.060611,-0.714749,9.80271530151367,0.70471292734146,0.24929854273796,-0.08847907930613,1.08250153064728,0.01680833473802
549,3969797312,0.010356,-0.696631,-0.060466,-0.714802,9.77523422241211,0.70094865560532,0.23833231627941,-0.32976347208023,1.02477037906647,0.04286925494671
550,3969813979,0.010251,-0.696597,-0.060316,-0.714849,9.75991249084473,0.65933787822723,0.20725485682487,-0.13727127015591,0.97597831487656,0.12065503001213
551,3969830646,0.010214,-0.696595,-0.060283,-0.714855,9.76581764221191,0.61316239833832,0.19993366301060,0.73944503068924,0.63988852500916,-0.10047861933708
552,3969847313,0.010238,-0.696592,-0.060378,-0.714849,9.78013992309570,0.63142025470734,0.21912750601768,1.50079524517059,0.59719210863113,-0.41417014598846
553,3969863980,0.010285,-0.696563,-0.060500,-0.714866,9.81374073028564,0.68515264987946,0.20984898507595,1.75550079345703,0.84421372413635,-0.44124275445938
554,3969880647,0.010301,-0.696521,-0.060590,-0.714899,9.84038734436035,0.71061456203461,0.20974674820900,1.43605911731720,0.97262299060822,-0.44476449489594
555,3969897314,0.010289,-0.696494,-0.060627,-0.714922,9.83148193359375,0.70866495370865,0.22485123574734,1.04981970787048,0.83974432945251,-0.32216933369637
556,3969913981,0.010290,-0.696511,-0.060641,-0.714905,9.82449722290039,0.71488869190216,0.23643073439598,0.99173015356064,0.43941789865494,-0.13170050084591
557,3969930648,0.010281,-0.696542,-0.060633,-0.714876,9.84162235260010,0.71542227268219,0.23134893178940,0.85449725389481,0.31500419974327,-0.06203395500779
558,3969947315,0.010269,-0.696555,-0.060597,-0.714867,9.78512001037598,0.68781965970993,0.22591041028500,0.69787567853928,0.49396020174026,0.04207526519895
559,3969963982,0.010227,-0.696563,-0.060553,-0.714863,9.76396656036377,0.71172928810120,0.24085715413094,0.68704140186310,0.54688870906830,-0.05764137580991
560,3969980649,0.010208,-0.696585,-0.060516,-0.714844,9.78570079803467,0.69118398427963,0.24181598424911,0.64776438474655,0.39824545383453,0.02030446752906
561,3969997316,0.010184,-0.696606,-0.060495,-0.714827,9.76848888397217,0.67338871955872,0.24740213155746,0.71419095993042,0.41178181767464,-0.08630199730396
562,3970013983,0.010128,-0.696588,-0.060496,-0.714845,9.78602981567383,0.68351072072983,0.25377133488655,0.65315580368042,0.75637501478195,-0.36519864201546
563,3970030650,0.010116,-0.696544,-0.060558,-0.714883,9.84416198730469,0.68310958147049,0.20243620872498,1.16081237792969,0.99671179056168,-0.45006641745567
564,3970047317,0.010138,-0.696498,-0.060595,-0.714924,9.86264514923096,0.73107928037643,0.22192639112473,1.21482956409454,1.03779458999634,-0.16127036511898
565,3970063984,0.010174,-0.696456,-0.060581,-0.714966,9.84931278228760,0.73964840173721,0.22643798589706,1.01067078113556,1.03011071681976,0.14693365991116
566,3970080651,0.010201,-0.696439,-0.060544,-0.714985,9.80984783172607,0.70341902971268,0.25855609774590,0.88377267122269,0.79724019765854,0.22632023692131
567,3970097318,0.010197,-0.696451,-0.060483,-0.714978,9.78726387023926,0.70119804143906,0.24707673490047,0.61321282386780,0.51348972320557,0.20389628410339
568,3970113985,0.010175,-0.696446,-0.060413,-0.714990,9.77750492095947,0.67579233646393,0.23515351116657,0.46240529417992,0.68296909332275,0.14845761656761
569,3970130652,0.010156,-0.696414,-0.060342,-0.715027,9.77017784118652,0.65780645608902,0.25274431705475,0.47295767068863,0.94218224287033,0.15469428896904
570,3970147319,0.010165,-0.696380,-0.060320,-0.715062,9.78830432891846,0.65970689058304,0.22993174195290,0.82917922735214,0.93899363279343,0.06129759177566
571,3970163986,0.010203,-0.696350,-0.060336,-0.715089,9.79596805572510,0.65436524152756,0.22117422521114,1.18595111370087,0.89657890796661,0.02024043537676
572,3970180653,0.010265,-0.696333,-0.060388,-0.715100,9.81661605834961,0.69223648309708,0.20527389645576,1.46729385852814,0.76567244529724,-0.02606092020869
573,3970197320,0.010312,-0.696328,-0.060428,-0.715101,9.81453514099121,0.69741678237915,0.21766027808189,1.50687837600708,0.66253012418747,-0.03588339313865
574,3970213987,0.010368,-0.696348,-0.060436,-0.715080,9.80708599090576,0.71314042806625,0.22207336127758,1.28753137588501,0.43245124816895,0.17761766910553
575,3970230654,0.010419,-0.696373,-0.060424,-0.715056,9.80624103546143,0.69467014074326,0.21325638890266,1.10710251331329,0.38714233040810,0.24187994003296
576,3970247321,0.010448,-0.696389,-0.060372,-0.715044,9.80438137054443,0.68228656053543,0.23111642897129,0.79739373922348,0.48901683092117,0.32637622952461
577,3970263988,0.010454,-0.696386,-0.060289,-0.715054,9.80254173278809,0.65284609794617,0.22392129898071,0.54034477472305,0.67978036403656,0.34803178906441
578,3970280655,0.010427,-0.696364,-0.060216,-0.715082,9.79482650756836,0.65906912088394,0.26511058211327,0.42603522539139,0.83850216865540,0.13262896239758
579,3970297322,0.010380,-0.696344,-0.060164,-0.715106,9.82022953033447,0.65739578008652,0.25142365694046,0.59116029739380,0.81507927179337,-0.06602953374386
580,3970313989,0.010364,-0.696325,-0.060172,-0.715124,9.81166744232178,0.66208755970001,0.22778384387493,0.88924098014832,0.77877336740494,-0.19861368834972
581,3970330656,0.010375,-0.696326,-0.060209,-0.715120,9.82119846343994,0.67226558923721,0.24194969236851,1.34581279754639,0.59319651126862,-0.19142931699753
582,3970347323,0.010453,-0.696339,-0.060278,-0.715101,9.80805015563965,0.68766289949417,0.24071078002453,1.64891350269318,0.48030850291252,-0.01287038065493
583,3970363990,0.010531,-0.696342,-0.060338,-0.715092,9.80743408203125,0.67488461732864,0.23559983074665,1.58274328708649,0.57535737752914,0.02241751737893
584,3970380657,0.010553,-0.696338,-0.060371,-0.715092,9.81075382232666,0.69603520631790,0.23975408077240,1.17183876037598,0.63205099105835,-0.12842208147049
585,3970397324,0.010521,-0.696322,-0.060350,-0.715111,9.79464435577393,0.70883470773697,0.23052288591862,0.65560179948807,0.76548027992249,-0.14065213501453
586,3970413991,0.010454,-0.696316,-0.060286,-0.715123,9.80113983154297,0.69170641899109,0.23519642651081,0.26055157184601,0.67040592432022,-0.10041458159685
587,3970430658,0.010383,-0.696328,-0.060195,-0.715120,9.84386062622070,0.64940345287323,0.20431944727898,0.31427419185638,0.51404047012329,0.02193087153137
588,3970447325,0.010389,-0.696316,-0.060214,-0.715130,9.80799007415771,0.66367667913437,0.20764201879501,1.05134356021881,0.71566361188889,-0.14437878131866
589,3970463992,0.010403,-0.696325,-0.060203,-0.715122,9.77697944641113,0.69269120693207,0.22411568462849,1.09761309623718,0.53958916664124,0.05871071293950
590,3970480659,0.010482,-0.696355,-0.060251,-0.715088,9.80437183380127,0.67888104915619,0.21589903533459,1.55871832370758,0.32772088050842,0.09842319041491
591,3970497326,0.010544,-0.696362,-0.060325,-0.715073,9.84573650360107,0.69592958688736,0.23381187021732,1.58663618564606,0.51889413595200,-0.12114806473255
592,3970513993,0.010558,-0.696386,-0.060347,-0.715048,9.86370563507080,0.68089395761490,0.26111799478531,1.28593039512634,0.38093128800392,-0.09229537099600
593,3970530660,0.010542,-0.696391,-0.060312,-0.715046,9.81099319458008,0.67292129993439,0.27071765065193,0.67367160320282,0.57376927137375,0.01274872012436
594,3970547327,0.010464,-0.696364,-0.060230,-0.715080,9.79765129089355,0.67668741941452,0.24011693894863,0.14069695770741,0.86982649564743,-0.07923288643360
595,3970563994,0.010376,-0.696329,-0.060158,-0.715122,9.80781936645508,0.71129465103149,0.24349570274353,0.13995419442654,0.95188951492310,-0.18325887620449
596,3970580661,0.010272,-0.696309,-0.060059,-0.715151,9.79204940795898,0.70415878295898,0.21916428208351,-0.05665528774261,0.80474460124969,-0.11912466585636
597,3970597328,0.010189,-0.696302,-0.059981,-0.715166,9.77754020690918,0.65629839897156,0.22262248396873,0.10901406407356,0.68006205558777,-0.11231168359518
598,3970613995,0.010127,-0.696329,-0.059983,-0.715140,9.77802181243896,0.64099043607712,0.20229998230934,0.83407109975815,0.33899044990540,-0.37614810466766
599,3970630662,0.010143,-0.696351,-0.060076,-0.715111,9.78619575500488,0.65147274732590,0.21048986911774,1.62680983543396,0.36507701873779,-0.42004832625389
600,3970647329,0.010189,-0.696348,-0.060195,-0.715103,9.79406166076660,0.68854445219040,0.21478454768658,1.73469042778015,0.59571933746338,-0.42020192742348
601,3970663996,0.010199,-0.696333,-0.060268,-0.715111,9.79295635223389,0.67551183700562,0.23445457220078,1.32986903190613,0.71590697765350,-0.38252565264702
602,3970680663,0.010209,-0.696345,-0.060298,-0.715097,9.80392074584961,0.70401340723038,0.21723513305187,1.12352025508881,0.47964262962341,-0.16261503100395
603,3970697330,0.010162,-0.696380,-0.060279,-0.715065,9.82505607604980,0.69853675365448,0.21910651028156,0.78695660829544,0.27559906244278,-0.19326063990593
604,3970713997,0.010105,-0.696414,-0.060249,-0.715036,9.82551193237305,0.69602680206299,0.22447463870049,0.50904601812363,0.28075999021530,-0.19717936217785
605,3970730664,0.010045,-0.696429,-0.060199,-0.715026,9.80998325347900,0.69113427400589,0.24176949262619,0.54186868667603,0.46989700198174,-0.11998268961906
606,3970747331,0.010001,-0.696448,-0.060156,-0.715012,9.81853103637695,0.70742028951645,0.22597695887089,0.67545163631439,0.44099304080009,-0.06891096383333
607,3970763998,0.010008,-0.696494,-0.060107,-0.714971,9.80222702026367,0.68403160572052,0.24476271867752,0.90723377466202,0.20291021466255,0.21750943362713
608,3970780665,0.010048,-0.696537,-0.060104,-0.714929,9.75905227661133,0.66638070344925,0.26671165227890,1.10671842098236,0.21096540987492,0.15930460393429
609,3970797332,0.010055,-0.696537,-0.060134,-0.714926,9.80048084259033,0.68886071443558,0.22464326024055,1.27702999114990,0.59719216823578,-0.18033902347088
610,3970813999,0.010069,-0.696509,-0.060197,-0.714948,9.83847808837891,0.70811283588409,0.22191266715527,1.43873596191406,0.86271911859512,-0.31813538074493
611,3970830666,0.010105,-0.696465,-0.060227,-0.714988,9.84659576416016,0.75005954504013,0.20394557714462,1.25239050388336,1.02976489067078,-0.06308407336473
612,3970847333,0.010138,-0.696432,-0.060213,-0.715021,9.82772350311279,0.72352015972137,0.23243930935860,1.01852095127106,0.94232320785522,0.14181111752987
613,3970864000,0.010176,-0.696428,-0.060180,-0.715026,9.79987716674805,0.69857293367386,0.27376022934914,0.96761572360992,0.66721719503403,0.26499539613724
614,3970880667,0.010199,-0.696429,-0.060122,-0.715030,9.80468082427979,0.67217606306076,0.24876582622528,0.74634760618210,0.63174360990524,0.31871801614761
615,3970897334,0.010171,-0.696411,-0.060032,-0.715056,9.78864955902100,0.66823643445969,0.22588875889778,0.48302346467972,0.82821863889694,0.20823763310909
616,3970914001,0.010143,-0.696380,-0.059954,-0.715093,9.79002571105957,0.67032194137573,0.22139438986778,0.53364694118500,0.93356359004974,0.15222266316414
617,3970930668,0.010137,-0.696363,-0.059925,-0.715112,9.77349567413330,0.65072870254517,0.23344105482101,0.74548971652985,0.78403681516647,0.02683570794761
618,3970947335,0.010154,-0.696356,-0.059928,-0.715118,9.80170917510986,0.64220267534256,0.21121951937675,1.00004148483276,0.67100793123245,-0.01062927022576
619,3970964002,0.010201,-0.696349,-0.059976,-0.715121,9.81519412994385,0.66213381290436,0.23922313749790,1.39698719978333,0.67598956823349,-0.07933533936739
620,3970980669,0.010244,-0.696355,-0.060010,-0.715111,9.80052185058594,0.69527208805084,0.23196838796139,1.44914734363556,0.55089718103409,-0.01520113833249
621,3970997336,0.010280,-0.696373,-0.060031,-0.715091,9.81114006042480,0.68968176841736,0.23336946964264,1.36946630477905,0.44758829474449,0.01096863858402
622,3971014003,0.010317,-0.696391,-0.060019,-0.715074,9.79865360260010,0.68543589115143,0.22057221829891,1.05549299716949,0.44990625977516,0.17592723667622
623,3971030670,0.010307,-0.696407,-0.059980,-0.715062,9.79834175109863,0.68936562538147,0.24802066385746,0.71978729963303,0.47690206766129,0.06840511411428
624,3971047337,0.010257,-0.696426,-0.059891,-0.715051,9.80030536651611,0.68161851167679,0.22288723289967,0.43188771605492,0.45246753096581,0.11753027886152
625,3971064004,0.010232,-0.696436,-0.059814,-0.715049,9.81553745269775,0.67133277654648,0.21631404757500,0.41828739643097,0.54090821743011,0.17544059455395
626,3971080671,0.010215,-0.696438,-0.059775,-0.715050,9.80105876922607,0.65364825725555,0.23190131783485,0.64675265550613,0.60333913564682,0.03212472423911
627,3971097338,0.010216,-0.696453,-0.059770,-0.715036,9.78922843933105,0.64867842197418,0.23218894004822,1.06365060806274,0.47165146470070,-0.03818853199482
628,3971114005,0.010269,-0.696479,-0.059823,-0.715005,9.80505180358887,0.65829539299011,0.21362298727036,1.44443452358246,0.34778839349747,-0.04991914704442
629,3971130672,0.010311,-0.696510,-0.059885,-0.714969,9.80815982818604,0.69126534461975,0.24648886919022,1.51542019844055,0.29666551947594,-0.14961658418179
630,3971147339,0.010355,-0.696544,-0.059928,-0.714932,9.83006000518799,0.70313715934753,0.23147103190422,1.32552754878998,0.27836525440216,-0.04808783903718
631,3971164006,0.010389,-0.696582,-0.059929,-0.714894,9.81212902069092,0.70609021186829,0.24019607901573,1.06873464584351,0.24527359008789,0.10368661582470
632,3971180673,0.010397,-0.696611,-0.059910,-0.714868,9.81521415710449,0.68997824192047,0.24559405446053,0.85860806703568,0.34207680821419,0.06935278326273
633,3971197340,0.010384,-0.696629,-0.059868,-0.714853,9.80399036407471,0.70406937599182,0.20759168267250,0.66299104690552,0.44637170433998,0.06662503629923
634,3971214007,0.010335,-0.696622,-0.059839,-0.714864,9.80444049835205,0.68748980760574,0.23727896809578,0.71561247110367,0.68367338180542,-0.17508843541145
635,3971230674,0.010283,-0.696613,-0.059805,-0.714876,9.80413055419922,0.69246393442154,0.24007244408131,0.63325470685959,0.69548076391220,-0.16798087954521
636,3971247341,0.010230,-0.696623,-0.059745,-0.714872,9.83587169647217,0.67049950361252,0.22630955278873,0.53444093465805,0.53363412618637,-0.03695912286639
637,3971264008,0.010254,-0.696624,-0.059753,-0.714871,9.83334159851074,0.65233099460602,0.19717741012573,1.07855713367462,0.60674566030502,0.00336166704074
638,3971280675,0.010272,-0.696614,-0.059771,-0.714878,9.77780246734619,0.70682340860367,0.22967013716698,1.16626799106598,0.69941246509552,-0.07892553508282
639,3971297342,0.010293,-0.696616,-0.059756,-0.714877,9.78650951385498,0.69250702857971,0.22518005967140,0.95241463184357,0.59755069017410,0.10428850352764
640,3971314009,0.010334,-0.696623,-0.059796,-0.714866,9.83141136169434,0.65705001354218,0.22006519138813,1.33454322814941,0.53839814662933,-0.06627285480499
641,3971330676,0.010374,-0.696645,-0.059845,-0.714841,9.85778903961182,0.65856713056564,0.21344465017319,1.35847842693329,0.38791075348854,-0.10344970226288
642,3971347343,0.010397,-0.696673,-0.059858,-0.714812,9.82295799255371,0.65542089939117,0.24042581021786,1.24935543537140,0.34704568982124,-0.00439257826656
643,3971364010,0.010399,-0.696674,-0.059818,-0.714814,9.80698871612549,0.70189201831818,0.23639537394047,0.76544195413589,0.61545395851135,0.12640507519245
644,3971380677,0.010366,-0.696656,-0.059758,-0.714838,9.79295158386230,0.72601991891861,0.22865408658981,0.60221219062805,0.81136542558670,0.04336870089173
645,3971397344,0.010297,-0.696647,-0.059646,-0.714857,9.78958511352539,0.73424899578094,0.24789553880692,0.04886262863874,0.72282242774963,0.11986104398966
646,3971414011,0.010202,-0.696655,-0.059498,-0.714862,9.78667354583740,0.68264788389206,0.22358804941177,-0.25876507163048,0.56092447042465,0.16838429868221
647,3971430678,0.010144,-0.696687,-0.059438,-0.714837,9.78660964965820,0.62220644950867,0.21602080762386,0.36228519678116,0.31268623471260,-0.05390192195773
648,3971447345,0.010160,-0.696730,-0.059489,-0.714791,9.80868244171143,0.62343317270279,0.20622839033604,1.28723657131195,0.17704138159752,-0.22357323765755
649,3971464012,0.010221,-0.696752,-0.059595,-0.714760,9.80284595489502,0.66976821422577,0.23997887969017,1.90366995334625,0.37646180391312,-0.26423338055611
650,3971480679,0.010267,-0.696754,-0.059687,-0.714749,9.81722450256348,0.70476657152176,0.23343163728714,1.76723134517670,0.56668728590012,-0.28601700067520
651,3971497346,0.010297,-0.696762,-0.059753,-0.714735,9.83525085449219,0.71842640638351,0.21278670430183,1.41126620769501,0.50757330656052,-0.23874878883362
652,3971514013,0.010265,-0.696785,-0.059789,-0.714710,9.83300113677979,0.69035607576370,0.24388331174850,0.94401359558105,0.36210596561432,-0.39889216423035
653,3971530680,0.010195,-0.696807,-0.059771,-0.714691,9.82251453399658,0.68403160572052,0.23054049909115,0.63672536611557,0.38186615705490,-0.31348663568497
654,3971547347,0.010115,-0.696819,-0.059726,-0.714684,9.81197547912598,0.65696358680725,0.22151027619839,0.48211425542831,0.49840393662453,-0.24462687969208
655,3971564014,0.010042,-0.696825,-0.059694,-0.714682,9.79979801177979,0.67723292112350,0.23097191751003,0.58000600337982,0.54542881250381,-0.27239105105400
656,3971580681,0.010016,-0.696832,-0.059669,-0.714678,9.80508995056152,0.69362616539001,0.26256757974625,0.69486618041992,0.54282915592194,-0.08160206675529
657,3971597348,0.010000,-0.696863,-0.059645,-0.714650,9.78061008453369,0.68297719955444,0.22523894906044,0.88470751047134,0.33233121037483,-0.02430645190179
658,3971614015,0.009977,-0.696881,-0.059640,-0.714634,9.77130889892578,0.66040891408920,0.20498967170715,0.91145986318588,0.43484601378441,-0.15107649564743
659,3971630682,0.009973,-0.696867,-0.059708,-0.714642,9.83456897735596,0.69491481781006,0.19824065268040,1.23854696750641,0.70845371484756,-0.42129051685333
660,3971647349,0.009970,-0.696847,-0.059754,-0.714657,9.83887100219727,0.71539914608002,0.19893898069859,1.28321564197540,0.78319162130356,-0.31786641478539
661,3971664016,0.009985,-0.696820,-0.059735,-0.714685,9.84040451049805,0.72787278890610,0.19901093840599,1.04691278934479,0.88712793588638,0.08100656419992
662,3971680683,0.010041,-0.696813,-0.059703,-0.714693,9.80611896514893,0.70272666215897,0.24052858352661,1.02333629131317,0.70307505130768,0.34576505422592
663,3971697350,0.010072,-0.696828,-0.059645,-0.714683,9.79201889038086,0.70161330699921,0.25139191746712,0.94178533554077,0.51496249437332,0.37077584862709
664,3971714017,0.010090,-0.696824,-0.059594,-0.714691,9.79141521453857,0.68818694353104,0.24218438565731,0.74997174739838,0.66877955198288,0.25202250480652
665,3971730684,0.010092,-0.696805,-0.059542,-0.714714,9.77852821350098,0.65807169675827,0.23594647645950,0.70021915435791,0.81847298145294,0.17665719985962
666,3971747351,0.010090,-0.696793,-0.059482,-0.714731,9.78060340881348,0.65667295455933,0.21578788757324,0.79611307382584,0.76343125104904,0.19744189083576
667,3971764018,0.010102,-0.696779,-0.059467,-0.714745,9.78998947143555,0.66229933500290,0.23642246425152,1.04491496086121,0.75716912746429,0.05492003262043
668,3971780685,0.010134,-0.696749,-0.059498,-0.714772,9.82276630401611,0.66063165664673,0.22623603045940,1.20979678630829,0.89008611440659,-0.07776015996933
669,3971797352,0.010166,-0.696738,-0.059519,-0.714780,9.81814193725586,0.67223149538040,0.21104724705219,1.20306062698364,0.71252614259720,-0.02381980977952
670,3971814019,0.010205,-0.696743,-0.059521,-0.714775,9.81495666503906,0.68180280923843,0.21352517604828,1.28774893283844,0.58386069536209,0.11504585295916
671,3971830686,0.010232,-0.696755,-0.059506,-0.714764,9.81290340423584,0.69865429401398,0.21840161085129,1.13060224056244,0.51249086856842,0.13668856024742
672,3971847353,0.010224,-0.696763,-0.059462,-0.714760,9.80659484863281,0.70790487527847,0.23299464583397,0.80274683237076,0.55608367919922,0.10216264426708
673,3971864020,0.010198,-0.696756,-0.059389,-0.714773,9.80259513854980,0.67819195985794,0.24110431969166,0.43958440423012,0.69788843393326,0.14611403644085
674,3971880687,0.010141,-0.696750,-0.059306,-0.714786,9.80688571929932,0.67931509017944,0.23995275795460,0.24497909843922,0.67947292327881,0.03515983372927
675,3971897354,0.010102,-0.696751,-0.059232,-0.714792,9.80985450744629,0.64965379238129,0.23589020967484,0.35942938923836,0.62567341327667,0.08753780275583
676,3971914021,0.010069,-0.696744,-0.059182,-0.714803,9.81044864654541,0.64505892992020,0.22955223917961,0.65662634372711,0.68827080726624,0.00210664467886
677,3971930688,0.010062,-0.696745,-0.059169,-0.714804,9.79895401000977,0.65327256917953,0.20285983383656,0.83618414402008,0.60506802797318,-0.04907393082976
678,3971947355,0.010073,-0.696755,-0.059187,-0.714792,9.80267620086670,0.64803808927536,0.23466312885284,1.05745232105255,0.50213056802750,-0.10072194039822
679,3971964022,0.010111,-0.696770,-0.059234,-0.714773,9.81832313537598,0.66549474000931,0.22451467812061,1.33642590045929,0.45011124014854,-0.10629270970821
680,3971980689,0.010126,-0.696783,-0.059267,-0.714757,9.82128715515137,0.67658299207687,0.22409112751484,1.31934213638306,0.48349735140800,-0.14765721559525
681,3971997356,0.010146,-0.696819,-0.059285,-0.714721,9.82075023651123,0.69578981399536,0.25946494936943,1.13934874534607,0.26619914174080,-0.04743471741676
682,3972014023,0.010145,-0.696855,-0.059275,-0.714686,9.79670715332031,0.68616831302643,0.25054034590721,0.87672907114029,0.25880989432335,-0.01687876880169
683,3972030690,0.010120,-0.696879,-0.059255,-0.714665,9.79807090759277,0.68120670318604,0.24022457003593,0.69318848848343,0.37606486678123,-0.09353758394718
684,3972047357,0.010119,-0.696899,-0.059248,-0.714646,9.77552986145020,0.66954267024994,0.23936437070370,0.87182426452637,0.42065656185150,-0.03453872352839
685,3972064024,0.010074,-0.696899,-0.059213,-0.714649,9.79438400268555,0.67426353693008,0.25009378790855,0.67125117778778,0.61188095808029,-0.12418316304684
686,3972080691,0.010023,-0.696918,-0.059178,-0.714635,9.83595085144043,0.64857351779938,0.22453233599663,0.51162010431290,0.42926248908043,-0.15051303803921
687,3972097358,0.010003,-0.696926,-0.059193,-0.714626,9.83119773864746,0.64927750825882,0.18405854701996,0.89064955711365,0.51044189929962,-0.24371767044067
688,3972114025,0.010001,-0.696936,-0.059191,-0.714616,9.78558349609375,0.69032382965088,0.22986352443695,0.90036964416504,0.50722748041153,-0.07338038086891
689,3972130692,0.010062,-0.696966,-0.059215,-0.714584,9.80809402465820,0.68292456865311,0.21153087913990,1.33926868438721,0.33070474863052,0.13014450669289
690,3972147359,0.010109,-0.696982,-0.059246,-0.714565,9.85344600677490,0.68294954299927,0.19826529920101,1.48884701728821,0.46300721168518,0.01615521125495
691,3972164026,0.010184,-0.697012,-0.059300,-0.714531,9.84709739685059,0.67464023828506,0.22834143042564,1.54880630970001,0.32413512468338,0.04730025306344
692,3972180693,0.010215,-0.697034,-0.059304,-0.714508,9.80966758728027,0.66245239973068,0.25592565536499,1.10865211486816,0.39783567190170,0.06654819846153
693,3972197360,0.010190,-0.697014,-0.059257,-0.714532,9.78166484832764,0.67150086164474,0.22450996935368,0.55233144760132,0.81642401218414,0.02467143349349
694,3972214027,0.010152,-0.696972,-0.059208,-0.714578,9.80445194244385,0.71152538061142,0.18786162137985,0.45726984739304,1.01884102821350,-0.05308231711388
695,3972230694,0.010076,-0.696945,-0.059092,-0.714615,9.82543277740479,0.69214016199112,0.19018018245697,0.14619089663029,0.89885854721069,0.09779569506645
696,3972247361,0.010036,-0.696933,-0.058987,-0.714636,9.78408813476562,0.65664529800415,0.21969714760780,0.18672299385071,0.75737398862839,0.22763927280903
697,3972264028,0.010023,-0.696960,-0.058941,-0.714613,9.79155731201172,0.62758445739746,0.21673682332039,0.77876061201096,0.37078866362572,0.09258351475000
698,3972280695,0.010047,-0.696986,-0.058987,-0.714584,9.77905464172363,0.64313429594040,0.20647102594376,1.41048502922058,0.35787984728813,-0.15947745740414
699,3972297362,0.010095,-0.696975,-0.059053,-0.714589,9.80751991271973,0.66361385583878,0.22804388403893,1.60843276977539,0.70307499170303,-0.16071967780590
700,3972314029,0.010117,-0.696944,-0.059079,-0.714617,9.81979465484619,0.69910091161728,0.22912660241127,1.29707181453705,0.90797662734985,-0.09896747022867
701,3972330696,0.010126,-0.696939,-0.059091,-0.714620,9.83697605133057,0.68533420562744,0.23205180466175,1.00397300720215,0.64671432971954,-0.08861995488405
702,3972347363,0.010122,-0.696937,-0.059072,-0.714623,9.85722637176514,0.66965353488922,0.21488609910011,0.81305593252182,0.62955367565155,-0.01304967049509
703,3972364030,0.010112,-0.696950,-0.059034,-0.714615,9.84068107604980,0.67138248682022,0.20726247131824,0.71857064962387,0.50393623113632,0.06889174878597
704,3972380697,0.010096,-0.696952,-0.058998,-0.714615,9.81674003601074,0.65696281194687,0.23108355700970,0.68088155984879,0.59564250707626,0.01614240370691
705,3972397364,0.010069,-0.696914,-0.058959,-0.714657,9.79150390625000,0.67571336030960,0.23357747495174,0.58264404535294,0.98452013731003,-0.03937951847911
706,3972414031,0.010025,-0.696886,-0.058890,-0.714690,9.81079006195068,0.67163878679276,0.24216367304325,0.49640610814095,0.89283943176270,0.02996045537293
707,3972430698,0.010006,-0.696873,-0.058864,-0.714705,9.79310798645020,0.65263712406158,0.25344491004944,0.71025943756104,0.74418342113495,-0.04644863680005
708,3972447365,0.009955,-0.696841,-0.058837,-0.714739,9.81439399719238,0.65311044454575,0.19706958532333,0.68779700994492,0.91189527511597,-0.21291835606098
709,3972464032,0.009970,-0.696782,-0.058900,-0.714791,9.85692405700684,0.66480511426926,0.22046732902527,1.28735196590424,1.15375602245331,-0.32663875818253
710,3972480699,0.009988,-0.696712,-0.058926,-0.714856,9.85193824768066,0.71345943212509,0.19371810555458,1.22469055652618,1.26942300796509,-0.14430196583271
711,3972497366,0.010005,-0.696638,-0.058923,-0.714929,9.83063030242920,0.69513702392578,0.22826734185219,0.94868797063828,1.32607841491699,-0.01403575856239
712,3972514033,0.010015,-0.696592,-0.058871,-0.714978,9.81005191802979,0.69192767143250,0.23628003895283,0.71977454423904,1.07387006282806,0.20046418905258
713,3972530700,0.010007,-0.696573,-0.058805,-0.715002,9.79184150695801,0.68382275104523,0.22819577157497,0.55311262607574,0.81433653831482,0.19315175712109
714,3972547367,0.009959,-0.696534,-0.058727,-0.715047,9.78160095214844,0.64943289756775,0.24861384928226,0.30948460102081,1.00562500953674,0.04303573444486
715,3972564034,0.009900,-0.696489,-0.058662,-0.715097,9.78394699096680,0.63381928205490,0.24372822046280,0.41260132193565,1.05010139942169,-0.07464820891619
716,3972580701,0.009866,-0.696441,-0.058626,-0.715148,9.77617263793945,0.64895653724670,0.23366478085518,0.71714925765991,1.08875107765198,-0.08345898240805
717,3972597368,0.009825,-0.696391,-0.058619,-0.715197,9.81038951873779,0.65949708223343,0.23679518699646,0.86170727014542,1.07746863365173,-0.26935595273972
718,3972614035,0.009817,-0.696346,-0.058640,-0.715239,9.81438827514648,0.65680289268494,0.23398511111736,1.08827698230743,1.03067421913147,-0.23189735412598
719,3972630702,0.009842,-0.696321,-0.058669,-0.715261,9.80899810791016,0.67661660909653,0.23597566783428,1.15244984626770,0.84771001338959,-0.10256606340408
720,3972647369,0.009864,-0.696313,-0.058676,-0.715268,9.80706596374512,0.67442691326141,0.21999914944172,1.00230813026428,0.68239283561707,-0.00154956849292
721,3972664036,0.009867,-0.696314,-0.058657,-0.715269,9.81019115447998,0.68224221467972,0.24523378908634,0.82960170507431,0.60586196184158,0.03094654344022
722,3972680703,0.009852,-0.696313,-0.058629,-0.715272,9.81091976165771,0.66576725244522,0.23237957060337,0.70283162593842,0.62238216400146,-0.02198850177228
723,3972697370,0.009827,-0.696299,-0.058592,-0.715289,9.80030632019043,0.66940194368362,0.25122261047363,0.62914395332336,0.74607872962952,-0.02150186151266
724,3972714037,0.009784,-0.696288,-0.058522,-0.715306,9.79297924041748,0.66803240776062,0.23575273156166,0.51758784055710,0.73658919334412,0.03997502475977
725,3972730704,0.009757,-0.696280,-0.058480,-0.715318,9.79556083679199,0.67156910896301,0.22369039058685,0.58578163385391,0.69814455509186,-0.00598056521267
726,3972747371,0.009753,-0.696263,-0.058463,-0.715335,9.81621360778809,0.67141705751419,0.22869546711445,0.79332125186920,0.76960390806198,-0.02644510939717
727,3972764038,0.009761,-0.696244,-0.058474,-0.715353,9.80646038055420,0.65957158803940,0.22671306133270,1.02057003974915,0.78938990831375,-0.09941569715738
728,3972780705,0.009771,-0.696226,-0.058479,-0.715370,9.81375694274902,0.67674595117569,0.26808318495750,0.99407374858856,0.77887582778931,-0.05467031151056
729,3972797372,0.009775,-0.696209,-0.058486,-0.715386,9.81580924987793,0.68446230888367,0.25520250201225,0.94665187597275,0.77047479152679,-0.09927482903004
730,3972814039,0.009779,-0.696193,-0.058457,-0.715404,9.81292629241943,0.69910788536072,0.24598683416843,0.82414621114731,0.77541810274124,0.07614015042782
731,3972830706,0.009755,-0.696185,-0.058404,-0.715416,9.80960845947266,0.68003064393997,0.24936155974865,0.68842446804047,0.70427876710892,0.06250139325857
732,3972847373,0.009749,-0.696166,-0.058351,-0.715439,9.80699634552002,0.68178707361221,0.24247018992901,0.63388228416443,0.80914992094040,0.13567686080933
733,3972864040,0.009707,-0.696138,-0.058299,-0.715471,9.79303264617920,0.66637867689133,0.24187846481800,0.46024098992348,0.88819074630737,-0.04527044296265
734,3972880707,0.009654,-0.696104,-0.058237,-0.715510,9.78689765930176,0.67922151088715,0.26285609602928,0.39394256472588,0.94542241096497,-0.05486240610480
735,3972897374,0.009584,-0.696084,-0.058162,-0.715536,9.81684970855713,0.66878652572632,0.25628888607025,0.21493536233902,0.80783092975616,-0.07185642421246
736,3972914041,0.009573,-0.696094,-0.058122,-0.715530,9.84897994995117,0.60849612951279,0.22581334412098,0.72001785039902,0.52769207954407,0.06730376929045
737,3972930708,0.009631,-0.696089,-0.058164,-0.715531,9.78687667846680,0.66719961166382,0.24478086829185,1.40671992301941,0.65394985675812,0.00874033477157
738,3972947375,0.009662,-0.696098,-0.058152,-0.715523,9.75617694854736,0.67385625839233,0.24799467623234,0.99765938520432,0.53610575199127,0.13562564551830
739,3972964042,0.009723,-0.696105,-0.058183,-0.715512,9.81831645965576,0.67740035057068,0.24643829464912,1.37173295021057,0.54413539171219,0.08168530464172
740,3972980709,0.009753,-0.696106,-0.058185,-0.715510,9.85768127441406,0.66780531406403,0.24416480958462,1.16072273254395,0.60826957225800,0.06341063976288
741,3972997376,0.009747,-0.696113,-0.058177,-0.715505,9.85869884490967,0.64029836654663,0.26512804627419,1.00118124485016,0.55087149143219,-0.05643758177757
742,3973014043,0.009712,-0.696105,-0.058099,-0.715519,9.82707118988037,0.65815448760986,0.26264739036560,0.36692112684250,0.70758283138275,0.11927194148302
743,3973030710,0.009665,-0.696086,-0.058035,-0.715544,9.82030773162842,0.67794966697693,0.25220862030983,0.37545013427734,0.80612766742706,-0.01039875578135
744,3973047377,0.009611,-0.696064,-0.057936,-0.715574,9.80680847167969,0.70986789464951,0.24745485186577,0.16262142360210,0.84692871570587,0.12101359665394
745,3973064044,0.009517,-0.696043,-0.057769,-0.715610,9.76106548309326,0.67405885457993,0.25327619910240,-0.30625107884407,0.85404908657074,0.25338003039360
746,3973080711,0.009436,-0.696036,-0.057672,-0.715625,9.75960063934326,0.63121855258942,0.23548606038094,0.06925033777952,0.68540221452713,-0.01523955632001
747,3973097378,0.009388,-0.696035,-0.057690,-0.715625,9.78425121307373,0.59599775075912,0.22285629808903,0.76430213451385,0.58961063623428,-0.39734259247780
748,3973114045,0.009399,-0.696015,-0.057781,-0.715637,9.80600452423096,0.63302177190781,0.22991703450680,1.43285775184631,0.76619756221771,-0.46832826733589
749,3973130712,0.009432,-0.695982,-0.057874,-0.715661,9.82579898834229,0.65161025524139,0.24402955174446,1.53807449340820,0.88748639822006,-0.36831060051918
750,3973147379,0.009454,-0.695968,-0.057932,-0.715670,9.82327079772949,0.67016863822937,0.24078243970871,1.31777977943420,0.72707408666611,-0.25213140249252
751,3973164046,0.009423,-0.695975,-0.057975,-0.715660,9.82741641998291,0.68197882175446,0.21891987323761,1.14075756072998,0.51685786247253,-0.42859008908272
752,3973180713,0.009378,-0.696000,-0.057988,-0.715635,9.82517910003662,0.67867231369019,0.23942878842354,0.79181021451950,0.34567540884018,-0.34360718727112
753,3973197380,0.009333,-0.696014,-0.057983,-0.715623,9.81642436981201,0.67655831575394,0.22556397318840,0.67953693866730,0.45805111527443,-0.27066218852997
754,3973214047,0.009323,-0.696019,-0.057988,-0.715618,9.76924037933350,0.66341656446457,0.25585439801216,0.91088366508484,0.55601966381073,-0.14503191411495
755,3973230714,0.009324,-0.696029,-0.057972,-0.715609,9.77098464965820,0.68190687894821,0.24972535669804,0.90417307615280,0.51516741514206,0.01385006587952
756,3973247381,0.009331,-0.696056,-0.057946,-0.715584,9.76219272613525,0.68153345584869,0.27908265590668,0.99568724632263,0.37012270092964,0.09882019460201
757,3973264048,0.009306,-0.696053,-0.057938,-0.715589,9.76962566375732,0.67423427104950,0.24598953127861,0.76016569137573,0.63854378461838,-0.16431824862957
758,3973280715,0.009281,-0.696024,-0.057977,-0.715613,9.83516025543213,0.67121964693069,0.22980180382729,1.00340950489044,0.85123169422150,-0.39675351977348
759,3973297382,0.009279,-0.695996,-0.058005,-0.715639,9.84236145019531,0.67593121528625,0.23270697891712,1.09647321701050,0.87227249145508,-0.23088566958904
760,3973314049,0.009322,-0.695979,-0.058013,-0.715654,9.84057426452637,0.67072498798370,0.24644438922405,1.16100442409515,0.77238297462463,0.08775550872087
761,3973330716,0.009389,-0.695991,-0.058010,-0.715642,9.80079174041748,0.67065012454987,0.25696772336960,1.24511647224426,0.52495145797729,0.27613690495491
762,3973347383,0.009427,-0.696013,-0.058016,-0.715620,9.76983737945557,0.68681317567825,0.28204050660133,1.16341209411621,0.40598049759865,0.09418429434299
763,3973364050,0.009407,-0.696009,-0.057991,-0.715626,9.76808929443359,0.68604761362076,0.27375510334969,0.69630038738251,0.64607387781143,-0.05920375511050
764,3973380717,0.009352,-0.695981,-0.057959,-0.715656,9.77893638610840,0.66320520639420,0.25583827495575,0.51776707172394,0.87357866764069,-0.20321114361286
