sep=,
DeviceTag:,E
FirmwareVersion:,3.0.0
AppVersion:,2023.6.0
StartTime: ,2024-03-14_12:01:38_000 EDT
© Movella Technologies B. V. 2005-2024

PacketCounter,SampleTimeFine,Quat_W,Quat_X,Quat_Y,Quat_Z,Acc_X,Acc_Y,Acc_Z,Gyr_X,Gyr_Y,Gyr_Z
0,3960663796,0.429299,-0.059484,0.289252,0.853521,0.00000000000000,0.00000000000000,0.00000000000000,0.00000000000000,0.00000000000000,0.00000000000000
1,3960680463,0.429092,-0.059333,0.289466,0.853563,-3.33768725395203,4.28699159622192,7.99476671218872,3.12852096557617,-0.28124025464058,1.59537029266357
2,3960697130,0.428977,-0.059255,0.289629,0.853570,-3.33369421958923,4.27887487411499,7.96923875808716,2.63854980468750,-0.06200834736228,0.98526298999786
3,3960713797,0.428930,-0.059159,0.289715,0.853572,-3.37281799316406,4.29313087463379,7.97759675979614,2.27066206932068,-0.52420234680176,0.59566819667816
4,3960730464,0.428931,-0.059049,0.289668,0.853594,-3.34970259666443,4.28617477416992,8.00139331817627,1.48090696334839,-1.05540978908539,0.41388198733330
5,3960747131,0.428975,-0.058967,0.289734,0.853556,-3.36075258255005,4.28128147125244,7.99971437454224,2.13031721115112,-0.53237283229828,0.14170867204666
6,3960763798,0.428918,-0.058893,0.289846,0.853552,-3.36327028274536,4.33908510208130,7.99961805343628,2.40160655975342,-0.34475976228714,0.51265740394592
7,3960780465,0.428872,-0.058853,0.289977,0.853533,-3.35638499259949,4.34139919281006,7.96660852432251,2.39922499656677,-0.03006930835545,0.46774554252625
8,3960797132,0.428793,-0.058843,0.290106,0.853530,-3.36196064949036,4.31797790527344,7.96572399139404,2.26890754699707,0.17465941607952,0.60769331455231
9,3960813799,0.428707,-0.058764,0.290202,0.853546,-3.34407353401184,4.33073854446411,7.96987056732178,2.23134636878967,-0.31725171208382,0.84397053718567
10,3960830466,0.428629,-0.058739,0.290254,0.853569,-3.32859563827515,4.30588483810425,7.97127771377563,1.79958021640778,-0.13629797101021,0.69637721776962
11,3960847133,0.428558,-0.058657,0.290285,0.853599,-3.39171481132507,4.29133129119873,7.99864912033081,1.87235867977142,-0.61079877614975,0.69313722848892
12,3960863800,0.428499,-0.058517,0.290340,0.853620,-3.33632993698120,4.25937700271606,7.99169874191284,2.17504954338074,-0.84519356489182,0.80402749776840
13,3960880467,0.428439,-0.058405,0.290491,0.853606,-3.36071372032166,4.28599929809570,7.98395156860352,2.72684955596924,-0.39320617914200,0.67422229051590
14,3960897134,0.428392,-0.058362,0.290616,0.853590,-3.35752606391907,4.32299995422363,7.98186969757080,2.37015414237976,-0.08278024196625,0.46595263481140
15,3960913801,0.428392,-0.058316,0.290755,0.853546,-3.36010813713074,4.34318017959595,7.99158143997192,2.50079226493835,-0.08366388827562,0.21280953288078
16,3960930468,0.428376,-0.058205,0.290865,0.853524,-3.34257507324219,4.34323883056641,7.95158958435059,2.40487217903137,-0.45093715190887,0.62957930564880
17,3960947135,0.428321,-0.058133,0.290974,0.853520,-3.33182406425476,4.29784011840820,7.95612716674805,2.34102010726929,-0.28906494379044,0.59327340126038
18,3960963802,0.428279,-0.058117,0.291105,0.853497,-3.32762932777405,4.33280944824219,7.95048809051514,2.34597611427307,0.09127726405859,0.35981363058090
19,3960980469,0.428259,-0.058201,0.291211,0.853465,-3.33062314987183,4.34064960479736,7.99448013305664,1.91445291042328,0.58193969726562,0.03453231602907
20,3960997136,0.428199,-0.058327,0.291363,0.853435,-3.36298584938049,4.35563564300537,7.97833299636841,2.11242651939392,0.95628207921982,0.05025852099061
21,3961013803,0.428203,-0.058299,0.291400,0.853422,-3.43794727325439,4.36688280105591,7.99538469314575,1.84616959095001,-0.37747997045517,0.06228368356824
22,3961030470,0.428272,-0.058135,0.291243,0.853453,-3.35124301910400,4.34461164474487,8.01693058013916,1.03992044925690,-1.88433933258057,0.02697657793760
23,3961047137,0.428329,-0.057945,0.291284,0.853423,-3.32520604133606,4.23244619369507,7.95576810836792,2.34694910049438,-1.34647226333618,0.15475831925869
24,3961063804,0.428371,-0.057729,0.291346,0.853395,-3.34170174598694,4.35979366302490,7.98086071014404,2.57015132904053,-1.44552958011627,0.23670615255833
25,3961080471,0.428410,-0.057598,0.291297,0.853401,-3.33830881118774,4.36258697509766,7.97432279586792,1.67617833614349,-1.39550793170929,-0.04701211303473
26,3961097138,0.428424,-0.057476,0.291307,0.853399,-3.35265326499939,4.32759189605713,7.95751237869263,1.96517908573151,-1.04798209667206,0.17952580749989
27,3961113805,0.428519,-0.057271,0.291200,0.853402,-3.41178202629089,4.36168432235718,7.99365806579590,1.52330887317657,-2.03691387176514,-0.13257132470608
28,3961130472,0.428770,-0.056911,0.290860,0.853415,-3.35774755477905,4.33305263519287,7.99492979049683,0.58414256572723,-3.84930777549744,-0.62283688783646
29,3961147139,0.429096,-0.056354,0.290474,0.853420,-3.33281683921814,4.28791236877441,7.97414398193359,0.90772050619125,-5.23340463638306,-0.62053173780441
30,3961163806,0.429318,-0.055815,0.290265,0.853415,-3.28378701210022,4.30761337280273,7.96287012100220,1.95403778553009,-4.51344394683838,-0.21382761001587
31,3961180473,0.429517,-0.055371,0.290099,0.853400,-3.31359672546387,4.39150857925415,7.97457647323608,1.87650787830353,-3.69493889808655,-0.12979234755039
32,3961197140,0.429718,-0.054965,0.289787,0.853431,-3.33171868324280,4.41358423233032,7.97923851013184,0.86426848173141,-3.98646306991577,-0.25242593884468
33,3961213807,0.429916,-0.054562,0.289348,0.853506,-3.27918505668640,4.36078691482544,8.00109100341797,0.01797371543944,-4.35410785675049,-0.15553313493729
34,3961230474,0.430033,-0.054233,0.289120,0.853546,-3.25142550468445,4.28843259811401,7.99004316329956,1.08777773380280,-3.13249731063843,0.11494340002537
35,3961247141,0.430053,-0.054052,0.289020,0.853581,-3.24905514717102,4.34446811676025,7.96779775619507,1.45926439762115,-1.80470907688141,0.23207026720047
36,3961263808,0.429973,-0.054003,0.289097,0.853598,-3.23909425735474,4.33451032638550,7.95356225967407,2.01648139953613,-0.18416811525822,0.78721272945404
37,3961280475,0.429786,-0.054065,0.289297,0.853620,-3.26341438293457,4.39689826965332,7.96284198760986,2.37796616554260,1.02489852905273,1.20879769325256
38,3961297142,0.429535,-0.054216,0.289461,0.853682,-3.28002071380615,4.34082174301147,7.97304201126099,1.75889468193054,1.59584403038025,1.61039221286774
39,3961313809,0.429211,-0.054473,0.289734,0.853736,-3.27712035179138,4.34540510177612,7.99837160110474,2.11834359169006,2.64640069007874,1.75302958488464
40,3961330476,0.428843,-0.054832,0.290061,0.853787,-3.28866171836853,4.34982061386108,8.00531864166260,2.13574695587158,3.46418833732605,1.77474892139435
41,3961347143,0.428438,-0.055246,0.290461,0.853828,-3.28808546066284,4.32452297210693,7.98755025863647,2.42255806922913,4.06713628768921,1.84859025478363
42,3961363810,0.427966,-0.055722,0.291031,0.853839,-3.25669384002686,4.29503297805786,7.94444370269775,3.24491834640503,5.10647583007812,2.14915585517883
43,3961380477,0.427439,-0.056360,0.291705,0.853831,-3.30580782890320,4.37271165847778,7.94384479522705,3.36062359809875,6.53627872467041,2.23179483413696
44,3961397144,0.427083,-0.056888,0.292000,0.853873,-3.41489934921265,4.41163969039917,7.93347644805908,1.46865177154541,4.35343647003174,1.33702790737152
45,3961413811,0.426961,-0.057152,0.291789,0.853989,-3.35642004013062,4.38169431686401,8.02369308471680,-0.78943467140198,0.83198380470276,0.53173887729645
46,3961430478,0.426912,-0.057285,0.291728,0.854025,-3.33843946456909,4.26167345046997,7.99749374389648,0.62787616252899,0.42924961447716,0.28535747528076
47,3961447145,0.426872,-0.057355,0.291742,0.854036,-3.35280990600586,4.31772708892822,7.99982118606567,1.35507190227509,0.20466469228268,0.17620897293091
48,3961463812,0.426857,-0.057441,0.291796,0.854019,-3.31485986709595,4.34546136856079,7.95869827270508,1.52972495555878,0.49080970883369,0.14387293159962
49,3961480479,0.426801,-0.057572,0.291861,0.854016,-3.33027172088623,4.40143537521362,7.96456003189087,1.47200667858124,0.78436970710754,0.19946528971195
50,3961497146,0.426772,-0.057697,0.291824,0.854035,-3.36691641807556,4.35217571258545,7.93693208694458,0.84303557872772,0.41162806749344,0.11373959481716
51,3961513813,0.426745,-0.057771,0.291690,0.854089,-3.35265493392944,4.35501575469971,7.97832870483398,0.47042202949524,-0.33958595991135,-0.00116537779104
52,3961530480,0.426771,-0.057832,0.291627,0.854094,-3.32716917991638,4.30861663818359,7.99559020996094,0.91295832395554,-0.13152121007442,-0.10953271389008
53,3961547147,0.426764,-0.057870,0.291655,0.854085,-3.33678865432739,4.34206151962280,7.96873521804810,1.55829584598541,0.04024395346642,0.07228544354439
54,3961563814,0.426750,-0.057936,0.291718,0.854066,-3.34053969383240,4.35304164886475,7.95206546783447,1.69095695018768,0.33927226066589,0.06904543936253
55,3961580481,0.426684,-0.058052,0.291815,0.854058,-3.34148383140564,4.38455486297607,7.93368721008301,1.72120535373688,0.79359024763107,0.25582605600357
56,3961597148,0.426638,-0.058158,0.291838,0.854066,-3.38127732276917,4.35303974151611,7.95607805252075,1.30172061920166,0.47307300567627,0.16605353355408
57,3961613815,0.426679,-0.058108,0.291706,0.854094,-3.38392376899719,4.36590337753296,7.98267507553101,0.81501537561417,-1.05327105522156,0.02084233425558
58,3961630482,0.426729,-0.058041,0.291615,0.854104,-3.31795573234558,4.30216693878174,7.96818685531616,1.08848202228546,-0.96374183893204,0.10704187303782
59,3961647149,0.426742,-0.057962,0.291675,0.854082,-3.35898375511169,4.34633302688599,7.95516061782837,2.10631799697876,-0.56755185127258,0.19585391879082
60,3961663816,0.426689,-0.057959,0.291715,0.854096,-3.31917500495911,4.37561368942261,7.95566034317017,1.76280057430267,-0.18738251924515,0.31129038333893
61,3961680483,0.426618,-0.057993,0.291804,0.854098,-3.33362078666687,4.36620378494263,7.94155120849609,1.89257991313934,0.30210816860199,0.47939929366112
62,3961697150,0.426544,-0.058086,0.291841,0.854117,-3.34207010269165,4.34043788909912,7.93372488021851,1.35586595535278,0.52573275566101,0.45998489856720
63,3961713817,0.426468,-0.058140,0.291865,0.854143,-3.37554931640625,4.36928510665894,7.96341228485107,1.48709261417389,0.12032207101583,0.31777036190033
64,3961730484,0.426435,-0.058149,0.291762,0.854194,-3.36094665527344,4.34979057312012,7.98009920120239,0.78273046016693,-0.53950583934784,0.32045966386795
65,3961747151,0.426424,-0.058091,0.291735,0.854212,-3.35789084434509,4.32857036590576,7.97173070907593,1.48882126808167,-0.72480100393295,0.27133455872536
66,3961763818,0.426428,-0.058079,0.291684,0.854229,-3.33764719963074,4.36511230468750,7.97868251800537,1.19366073608398,-0.51984816789627,0.14483340084553
67,3961780485,0.426413,-0.058098,0.291664,0.854242,-3.35626482963562,4.33702993392944,7.95675086975098,1.30019664764404,-0.22817072272301,0.16214758157730
68,3961797152,0.426350,-0.058125,0.291726,0.854250,-3.34986877441406,4.35540246963501,7.96426105499268,1.72895336151123,0.18764504790306,0.50768858194351
69,3961813819,0.426313,-0.058157,0.291717,0.854269,-3.36961579322815,4.38374042510986,7.96964979171753,1.28082072734833,-0.04688404873013,0.33648046851158
70,3961830486,0.426274,-0.058201,0.291668,0.854302,-3.35733652114868,4.31310272216797,7.96322107315063,0.98886144161224,-0.10068351775408,0.34123158454895
71,3961847153,0.426253,-0.058230,0.291654,0.854316,-3.35789442062378,4.35535478591919,7.97252321243286,1.28316426277161,-0.12084070593119,0.22423279285431
72,3961863820,0.426248,-0.058275,0.291639,0.854320,-3.33051848411560,4.30793619155884,7.93951416015625,1.24866366386414,-0.03822695091367,0.09442761540413
73,3961880487,0.426248,-0.058309,0.291633,0.854320,-3.35408139228821,4.34342002868652,7.95719814300537,1.33219969272614,-0.06847555190325,0.10549230128527
74,3961897154,0.426308,-0.058364,0.291574,0.854307,-3.34915709495544,4.34969425201416,7.96864175796509,0.92950403690338,-0.11822821199894,-0.16506104171276
75,3961913821,0.426313,-0.058348,0.291548,0.854314,-3.37982368469238,4.34955549240112,7.97076892852783,1.37439668178558,-0.47693413496017,0.12269123643637
76,3961930488,0.426311,-0.058296,0.291477,0.854343,-3.35504913330078,4.36722135543823,7.96631956100464,1.13441860675812,-0.75704741477966,0.37378534674644
77,3961947155,0.426326,-0.058214,0.291401,0.854367,-3.37254476547241,4.35790395736694,7.97360897064209,1.25089228153229,-1.03781378269196,0.21958409249783
78,3961963822,0.426358,-0.058110,0.291267,0.854404,-3.32897710800171,4.35162639617920,7.98363113403320,0.89212238788605,-1.30229055881500,0.30933097004890
79,3961980489,0.426380,-0.058066,0.291210,0.854415,-3.34661030769348,4.31717205047607,7.95041084289551,1.21497046947479,-0.68590813875198,0.22552622854710
80,3961997156,0.426361,-0.058076,0.291206,0.854425,-3.34268712997437,4.32661485671997,7.96313571929932,1.40248119831085,-0.19878017902374,0.25439175963402
81,3962013823,0.426322,-0.058111,0.291241,0.854430,-3.35157060623169,4.34286308288574,7.94378137588501,1.58981227874756,0.07120970636606,0.25142064690590
82,3962030490,0.426370,-0.058132,0.291134,0.854442,-3.36659955978394,4.38024139404297,7.96919775009155,0.77787697315216,-0.55600053071976,-0.16734057664871
83,3962047157,0.426489,-0.058108,0.290908,0.854461,-3.32197284698486,4.28762578964233,7.97808742523193,0.14592196047306,-1.20018553733826,-0.33392557501793
84,3962063824,0.426587,-0.058069,0.290826,0.854442,-3.34611415863037,4.32788562774658,7.98816108703613,1.21977281570435,-0.96908217668533,-0.51039707660675
85,3962080491,0.426682,-0.058061,0.290699,0.854439,-3.34856057167053,4.34613513946533,7.96553564071655,0.82692515850067,-0.91191446781158,-0.51402127742767
86,3962097158,0.426751,-0.058054,0.290670,0.854414,-3.35522341728210,4.32969760894775,7.95618963241577,1.42040991783142,-0.54380881786346,-0.36398208141327
87,3962113825,0.426697,-0.058020,0.290624,0.854460,-3.37041020393372,4.37200021743774,7.97063970565796,1.32854998111725,-0.68827724456787,0.33044865727425
88,3962130492,0.426754,-0.057901,0.290398,0.854516,-3.36675405502319,4.36500024795532,8.00245380401611,0.40710741281509,-1.76767313480377,0.12844128906727
89,3962147159,0.426789,-0.057824,0.290200,0.854571,-3.29848241806030,4.28341436386108,7.95961189270020,0.50625425577164,-1.47621357440948,0.03208630904555
90,3962163826,0.426770,-0.057765,0.290154,0.854600,-3.32920503616333,4.32412052154541,7.95684862136841,1.39911293983459,-0.83282256126404,0.23963885009289
91,3962180493,0.426761,-0.057754,0.290116,0.854618,-3.32720065116882,4.34190845489502,7.96938323974609,1.25820457935333,-0.44195994734764,0.24235376715660
92,3962197160,0.426697,-0.057787,0.290103,0.854652,-3.34795784950256,4.35605335235596,7.99423217773438,1.27695322036743,-0.08659654855728,0.39921873807907
93,3962213827,0.426627,-0.057868,0.290069,0.854693,-3.33231711387634,4.33040142059326,8.00115966796875,0.95552653074265,0.20110450685024,0.44584664702415
94,3962230494,0.426534,-0.057907,0.290093,0.854729,-3.35016918182373,4.33288192749023,7.99840164184570,1.42523777484894,0.16322332620621,0.66465592384338
95,3962247161,0.426498,-0.057884,0.289976,0.854788,-3.35304450988770,4.33796787261963,7.99042367935181,0.76110064983368,-0.74801892042160,0.43993017077446
96,3962263828,0.426477,-0.057828,0.289895,0.854830,-3.30705714225769,4.27994585037231,7.96312427520752,1.08143854141235,-0.82585591077805,0.45847368240356
97,3962280495,0.426446,-0.057799,0.289881,0.854852,-3.31701970100403,4.33930158615112,7.97301054000854,1.41802787780762,-0.42049652338028,0.46100938320160
98,3962297162,0.426422,-0.057855,0.289816,0.854882,-3.30213212966919,4.33223867416382,7.97468090057373,0.86592048406601,-0.09910833090544,0.22374612092972
99,3962313829,0.426360,-0.057946,0.289797,0.854914,-3.31474757194519,4.32908821105957,7.97624349594116,1.04665648937225,0.28366705775261,0.34445878863335
100,3962330496,0.426261,-0.058042,0.289803,0.854954,-3.34593415260315,4.31722784042358,7.98279190063477,1.18654024600983,0.39834788441658,0.47779846191406
101,3962347163,0.426218,-0.058064,0.289760,0.854989,-3.36076021194458,4.34092569351196,8.03043842315674,1.08140015602112,-0.20432528853416,0.42680355906487
102,3962363830,0.426159,-0.058045,0.289712,0.855036,-3.33307790756226,4.29317474365234,7.97285938262939,1.15980076789856,-0.46682989597321,0.57697081565857
103,3962380497,0.426081,-0.058013,0.289741,0.855067,-3.33291149139404,4.33517074584961,7.97027873992920,1.70929539203644,-0.30590525269508,0.63358765840530
104,3962397164,0.426006,-0.058057,0.289735,0.855104,-3.30827426910400,4.32307434082031,7.96171045303345,1.24252963066101,0.06119513884187,0.52552771568298
105,3962413831,0.425921,-0.058113,0.289759,0.855134,-3.33412146568298,4.33101749420166,7.96924829483032,1.43390786647797,0.20093803107738,0.47031962871552
106,3962430498,0.425897,-0.058162,0.289700,0.855162,-3.33574652671814,4.30330562591553,7.98086452484131,0.84262579679489,-0.01927355490625,0.42895507812500
107,3962447165,0.425887,-0.058169,0.289651,0.855184,-3.34945249557495,4.31718349456787,8.03074455261230,1.13648045063019,-0.37708300352097,0.20940303802490
108,3962463832,0.425894,-0.058144,0.289492,0.855236,-3.33691501617432,4.29974031448364,8.00098419189453,0.54300844669342,-0.94979566335678,0.18066558241844
109,3962480499,0.425866,-0.058108,0.289506,0.855248,-3.32706451416016,4.28568267822266,7.96663427352905,1.69381272792816,-0.47574317455292,0.26832506060600
110,3962497166,0.425811,-0.058109,0.289530,0.855266,-3.32415795326233,4.34884357452393,7.97952079772949,1.59337246417999,-0.13661813735962,0.45020088553429
111,3962513833,0.425747,-0.058153,0.289551,0.855288,-3.31540918350220,4.32573318481445,7.96282720565796,1.42081975936890,0.14435958862305,0.46544036269188
112,3962530500,0.425654,-0.058241,0.289579,0.855319,-3.32852482795715,4.32194662094116,7.96724987030029,1.33901274204254,0.43337327241898,0.49531757831573
113,3962547167,0.425638,-0.058245,0.289526,0.855345,-3.36072516441345,4.32691478729248,8.00880908966064,1.07512509822845,-0.35488954186440,0.33543029427528
114,3962563834,0.425615,-0.058224,0.289402,0.855400,-3.32715964317322,4.29143285751343,8.02029895782471,0.75723302364349,-0.81103897094727,0.28201502561569
115,3962580501,0.425621,-0.058148,0.289354,0.855418,-3.35449028015137,4.30162668228149,7.99365758895874,1.40753972530365,-0.91541075706482,0.23322284221649
116,3962597168,0.425619,-0.058100,0.289260,0.855454,-3.30402183532715,4.35268735885620,7.99083805084229,1.02452707290649,-0.87317526340485,0.25974479317665
117,3962613835,0.425589,-0.058111,0.289213,0.855484,-3.31323099136353,4.30858182907104,7.95814085006714,1.13111448287964,-0.34098190069199,0.28640761971474
118,3962630502,0.425540,-0.058162,0.289178,0.855517,-3.32593035697937,4.33270454406738,7.98118591308594,1.07734048366547,-0.02830203250051,0.33125540614128
119,3962647169,0.425511,-0.058225,0.289128,0.855544,-3.31670641899109,4.30454349517822,7.98738098144531,0.93876308202744,-0.01171781029552,0.23312041163445
120,3962663836,0.425486,-0.058305,0.289111,0.855557,-3.31354141235352,4.30791330337524,7.98015117645264,1.14194846153259,0.14779168367386,0.08588577806950
121,3962680503,0.425532,-0.058308,0.288984,0.855577,-3.34489989280701,4.33329010009766,7.98554801940918,0.70055222511292,-0.71920466423035,-0.11690917611122
122,3962697170,0.425546,-0.058306,0.288869,0.855608,-3.31632924079895,4.29090642929077,7.99976587295532,0.81635993719101,-0.74310123920441,-0.04653827100992
123,3962713837,0.425585,-0.058298,0.288814,0.855608,-3.33425951004028,4.31790351867676,7.99879360198975,1.20339357852936,-0.56278783082962,-0.10356495529413
124,3962730504,0.425610,-0.058298,0.288739,0.855621,-3.31352138519287,4.31405735015869,7.98821878433228,1.04608035087585,-0.58446902036667,-0.05903727561235
125,3962747171,0.425608,-0.058344,0.288713,0.855628,-3.33231949806213,4.31366539001465,7.99800014495850,1.18488836288452,-0.07881028205156,0.06178423762321
126,3962763838,0.425558,-0.058384,0.288726,0.855645,-3.33835124969482,4.32417058944702,7.98138141632080,1.39678239822388,0.07245192676783,0.37664118409157
127,3962780505,0.425469,-0.058414,0.288763,0.855675,-3.31909060478210,4.34869003295898,7.97427558898926,1.52305293083191,0.16693718731403,0.69554489850998
128,3962797172,0.425420,-0.058461,0.288719,0.855711,-3.33184695243835,4.31550073623657,8.01399612426758,1.02242696285248,-0.08021896332502,0.36012095212936
129,3962813839,0.425387,-0.058473,0.288626,0.855758,-3.32736039161682,4.25453567504883,8.01216602325439,0.80109483003616,-0.43615865707397,0.38484999537468
130,3962830506,0.425356,-0.058473,0.288621,0.855775,-3.33418965339661,4.28282690048218,7.99355554580688,1.41672158241272,-0.25767654180527,0.34192311763763
131,3962847173,0.425312,-0.058478,0.288652,0.855786,-3.33381581306458,4.31159591674805,7.99360227584839,1.64114022254944,-0.10802155733109,0.35563877224922
132,3962863840,0.425240,-0.058521,0.288703,0.855802,-3.32500171661377,4.30804824829102,7.98787403106689,1.63483917713165,0.20761013031006,0.44772914052010
133,3962880507,0.425184,-0.058600,0.288728,0.855816,-3.33016228675842,4.33280944824219,7.97955989837646,1.38133776187897,0.32454493641853,0.27416476607323
134,3962897174,0.425153,-0.058712,0.288730,0.855823,-3.33244657516479,4.29511308670044,7.99539041519165,1.14101374149323,0.44993194937706,0.12581598758698
135,3962913841,0.425125,-0.058754,0.288765,0.855822,-3.36638879776001,4.29117250442505,8.00760746002197,1.56318795681000,0.11234369874001,0.20302546024323
136,3962930508,0.425136,-0.058746,0.288666,0.855850,-3.33259248733521,4.29956007003784,8.01487159729004,0.89246809482574,-0.66936230659485,0.08296593278646
137,3962947175,0.425148,-0.058704,0.288691,0.855839,-3.34103822708130,4.27475833892822,8.00274467468262,1.76650142669678,-0.45650786161423,0.15382346510887
138,3962963842,0.425123,-0.058688,0.288700,0.855849,-3.32030463218689,4.30409479141235,7.95979499816895,1.53514206409454,-0.27842286229134,0.37874141335487
139,3962980509,0.425080,-0.058710,0.288730,0.855859,-3.32911491394043,4.31125593185425,7.97556877136230,1.59287285804749,-0.01974739134312,0.31262218952179
140,3962997176,0.425054,-0.058761,0.288681,0.855886,-3.31493210792542,4.34952974319458,8.00542068481445,1.00111711025238,-0.10735562443733,0.19614844024181
141,3963013843,0.425027,-0.058819,0.288649,0.855906,-3.35307240486145,4.30450296401978,8.00631809234619,1.08744490146637,0.00401479098946,0.19667352735996
142,3963030510,0.424999,-0.058838,0.288533,0.855957,-3.34247970581055,4.31589698791504,8.02190208435059,0.72530680894852,-0.59206312894821,0.13451148569584
143,3963047177,0.424987,-0.058837,0.288438,0.855995,-3.33154964447021,4.25416564941406,7.98735952377319,0.90578669309616,-0.62274712324142,0.14520479738712
144,3963063844,0.424996,-0.058802,0.288390,0.856009,-3.34692335128784,4.28817939758301,7.99760055541992,1.25977993011475,-0.62849730253220,0.21163134276867
145,3963080511,0.424991,-0.058784,0.288294,0.856045,-3.32828950881958,4.33726882934570,7.98805761337280,0.89350539445877,-0.65728586912155,0.28273215889931
146,3963097178,0.424989,-0.058827,0.288110,0.856105,-3.33087944984436,4.33658027648926,7.99467563629150,0.16846112906933,-0.60025924444199,0.13057994842529
147,3963113845,0.424978,-0.058924,0.287893,0.856177,-3.33776736259460,4.29527521133423,8.01859378814697,-0.16524034738541,-0.42394143342972,-0.01093662343919
148,3963130512,0.424983,-0.059000,0.287704,0.856233,-3.32007217407227,4.25765371322632,7.99547338485718,0.01177543774247,-0.38649562001228,0.08707676827908
149,3963147179,0.424969,-0.059062,0.287531,0.856294,-3.35209703445435,4.27980089187622,7.99626255035400,0.20967197418213,-0.48005884885788,0.08939472585917
150,3963163846,0.424995,-0.059083,0.287280,0.856364,-3.31772804260254,4.29617691040039,8.02189350128174,-0.18826614320278,-0.95934927463531,0.05271733552217
151,3963180513,0.425004,-0.059125,0.287100,0.856417,-3.32591938972473,4.25732088088989,8.02801895141602,0.21959689259529,-0.62347716093063,0.03051112964749
152,3963197180,0.425011,-0.059178,0.286973,0.856452,-3.31742215156555,4.25992822647095,8.01712322235107,0.48368939757347,-0.32355242967606,0.10883475840092
153,3963213847,0.424993,-0.059271,0.286864,0.856491,-3.32411336898804,4.29386615753174,7.98711919784546,0.48361256718636,-0.02298739738762,0.13945475220680
154,3963230514,0.424930,-0.059380,0.286741,0.856556,-3.30531692504883,4.29612398147583,7.98905420303345,0.29914990067482,0.08529669046402,0.39578664302826
155,3963247181,0.424894,-0.059528,0.286655,0.856593,-3.33057188987732,4.30621862411499,7.98833513259888,0.42023396492004,0.44576975703239,0.21588303148746
156,3963263848,0.424855,-0.059722,0.286531,0.856639,-3.33644437789917,4.24430370330811,8.02743434906006,0.08237683773041,0.55528968572617,0.05386991053820
157,3963280515,0.424839,-0.059837,0.286454,0.856666,-3.35777616500854,4.22844314575195,8.03757190704346,0.64101547002792,0.18869517743587,0.03349500894547
158,3963297182,0.424852,-0.059846,0.286372,0.856686,-3.34277987480164,4.22845649719238,8.04722404479980,0.90405780076981,-0.45297339558601,0.15424606204033
159,3963313849,0.424850,-0.059839,0.286304,0.856710,-3.31887316703796,4.25529527664185,8.01728248596191,1.05726027488708,-0.52968347072601,0.18455873429775
160,3963330516,0.424853,-0.059873,0.286201,0.856740,-3.30671381950378,4.30318880081177,8.00836181640625,0.73944497108459,-0.42668193578720,0.03933470323682
161,3963347183,0.424864,-0.059932,0.286061,0.856778,-3.33287501335144,4.26325035095215,8.02702999114990,0.39175269007683,-0.34597635269165,0.06426867097616
162,3963363850,0.424860,-0.060007,0.285929,0.856818,-3.31657814979553,4.24578428268433,8.00776863098145,0.42463937401772,-0.25492319464684,0.03065199777484
163,3963380517,0.424867,-0.060005,0.285779,0.856865,-3.34944772720337,4.24704265594482,8.02848052978516,0.53862863779068,-0.78574633598328,0.12062940001488
164,3963397184,0.424911,-0.059919,0.285559,0.856923,-3.34629797935486,4.22051715850830,8.05085849761963,0.35229629278183,-1.55417859554291,0.09505512565374
165,3963413851,0.424970,-0.059773,0.285351,0.856973,-3.34673547744751,4.23497200012207,8.02827262878418,0.66372108459473,-1.94679558277130,0.00785669591278
166,3963430518,0.425029,-0.059739,0.285123,0.857022,-3.29110336303711,4.25759363174438,8.02067279815674,0.20068190991879,-1.31951510906219,-0.17845648527145
167,3963447185,0.425052,-0.059772,0.284980,0.857056,-3.33111548423767,4.27522706985474,8.01668739318848,0.49745622277260,-0.57891100645065,-0.05324880033731
168,3963463852,0.425133,-0.059755,0.284724,0.857102,-3.34952211380005,4.25770139694214,8.02265453338623,-0.09448524564505,-1.22289109230042,-0.12829400599003
169,3963480519,0.425221,-0.059651,0.284338,0.857194,-3.31632065773010,4.21581983566284,8.04469680786133,-0.62101835012436,-2.24173879623413,-0.09768684208393
170,3963497186,0.425291,-0.059581,0.284140,0.857230,-3.27864384651184,4.19440793991089,8.04316043853760,0.45007276535034,-1.38391816616058,-0.04917638376355
171,3963513853,0.425307,-0.059579,0.284085,0.857240,-3.30978679656982,4.22168254852295,8.07174396514893,1.18697571754456,-0.52808260917664,-0.03141397237778
172,3963530520,0.425320,-0.059637,0.284048,0.857241,-3.29570913314819,4.21230030059814,8.01891994476318,1.10838317871094,-0.08575130999088,-0.09357599169016
173,3963547187,0.425294,-0.059733,0.284073,0.857239,-3.30514645576477,4.26144838333130,7.99614572525024,1.36453580856323,0.38508054614067,0.05155196040869
174,3963563854,0.425244,-0.059806,0.284045,0.857269,-3.35964345932007,4.21570014953613,8.04198169708252,1.13663387298584,0.00729321548715,0.09423551708460
175,3963580521,0.425215,-0.059736,0.283943,0.857322,-3.33651375770569,4.24440288543701,8.05821132659912,1.02719092369080,-1.02101182937622,0.42206525802612
176,3963597188,0.425187,-0.059719,0.283906,0.857349,-3.27764844894409,4.19886064529419,8.04650592803955,1.26636242866516,-0.45947906374931,0.36491054296494
177,3963613855,0.425131,-0.059713,0.283905,0.857377,-3.31631231307983,4.22367811203003,8.05220317840576,1.47928071022034,-0.29804217815399,0.40080675482750
178,3963630522,0.425102,-0.059749,0.283886,0.857395,-3.28400516510010,4.21492862701416,8.04550552368164,1.22372996807098,-0.08002687990665,0.27398547530174
179,3963647189,0.425065,-0.059810,0.283966,0.857383,-3.31602048873901,4.20466279983521,8.06587791442871,1.76413226127625,0.41343379020691,0.27023318409920
180,3963663856,0.425043,-0.059813,0.283980,0.857389,-3.33593082427979,4.26135540008545,8.04158115386963,1.54662919044495,-0.18710076808929,0.25746524333954
181,3963680523,0.425062,-0.059844,0.283944,0.857390,-3.29465270042419,4.18694353103638,8.02605819702148,1.13822185993195,-0.18465475738049,0.05662327632308
182,3963697190,0.425045,-0.059880,0.284018,0.857371,-3.32891798019409,4.21293878555298,8.04470729827881,1.86367607116699,0.17564548552036,0.09852564334869
183,3963713857,0.425048,-0.059871,0.283999,0.857376,-3.31341314315796,4.26395797729492,8.04816150665283,1.42293274402618,-0.44277954101562,0.05661046877503
184,3963730524,0.425045,-0.059884,0.284043,0.857362,-3.31098699569702,4.19197416305542,8.04527282714844,1.72312653064728,-0.04966302961111,0.11951526254416
185,3963747191,0.425014,-0.059924,0.284089,0.857360,-3.32116913795471,4.22499132156372,8.05819225311279,1.65225613117218,0.11907984316349,0.18884883821011
186,3963763858,0.424975,-0.059917,0.284149,0.857360,-3.31836080551147,4.24654388427734,8.02893638610840,1.83966410160065,-0.06855238974094,0.40942540764809
187,3963780525,0.424930,-0.059955,0.284164,0.857375,-3.26845979690552,4.22838115692139,8.03759193420410,1.41964161396027,0.06293681263924,0.35490876436234
188,3963797192,0.424900,-0.059987,0.284235,0.857364,-3.31983089447021,4.18636798858643,8.01514911651611,1.82209384441376,0.17614492774010,0.23459309339523
189,3963813859,0.424862,-0.059982,0.284326,0.857353,-3.31716513633728,4.21018695831299,8.07347011566162,2.06951212882996,0.00051865709247,0.30235150456429
190,3963830526,0.424832,-0.059987,0.284502,0.857308,-3.31537866592407,4.21774911880493,8.04100036621094,2.56685972213745,0.35668882727623,0.26678827404976
191,3963847193,0.424774,-0.059990,0.284666,0.857283,-3.32438373565674,4.24535369873047,8.05131053924561,2.50248241424561,0.29884257912636,0.38719356060028
192,3963863860,0.424709,-0.059953,0.284752,0.857289,-3.30627489089966,4.31248235702515,8.03465175628662,2.05697512626648,-0.11929114907980,0.63862067461014
193,3963880527,0.424638,-0.059994,0.284777,0.857313,-3.33368778228760,4.23684549331665,8.00431919097900,1.44018292427063,0.15562918782234,0.54463493824005
194,3963897194,0.424543,-0.060044,0.284894,0.857318,-3.31912708282471,4.18874454498291,8.02816104888916,2.00035834312439,0.51702439785004,0.60081630945206
195,3963913861,0.424446,-0.060123,0.285059,0.857305,-3.32892751693726,4.24370813369751,8.03696060180664,2.20045757293701,0.86925029754639,0.59347826242447
196,3963930528,0.424370,-0.060186,0.285159,0.857306,-3.32096481323242,4.28549385070801,8.04052066802979,1.87819814682007,0.50494790077209,0.45677039027214
197,3963947195,0.424271,-0.060286,0.285245,0.857319,-3.31379556655884,4.19191598892212,8.01617431640625,1.68338799476624,0.68944889307022,0.47120317816734
198,3963963862,0.424173,-0.060389,0.285390,0.857311,-3.33042573928833,4.22949743270874,8.03375244140625,2.06552982330322,0.88249206542969,0.42065656185150
199,3963980529,0.424076,-0.060479,0.285536,0.857305,-3.34449267387390,4.25891876220703,8.02281856536865,2.08708310127258,0.82397979497910,0.49015668034554
200,3963997196,0.423954,-0.060603,0.285749,0.857285,-3.32732224464417,4.23463296890259,8.01845550537109,2.41110920906067,1.25929307937622,0.51858669519424
201,3964013863,0.423869,-0.060719,0.285964,0.857247,-3.35689330101013,4.26593399047852,7.99315786361694,2.42222476005554,1.25641167163849,0.46625998616219
202,3964030530,0.423835,-0.060800,0.286016,0.857241,-3.34969973564148,4.27845668792725,7.99404954910278,1.54671883583069,0.42516446113586,0.18997579813004
203,3964047197,0.423817,-0.060840,0.286044,0.857237,-3.33708500862122,4.21530771255493,8.02107429504395,1.49331653118134,0.12404870986938,0.24469734728336
204,3964063864,0.423738,-0.060855,0.286143,0.857243,-3.37126445770264,4.24015283584595,8.02814388275146,2.03243851661682,0.18067839741707,0.49558657407761
205,3964080531,0.423667,-0.060831,0.286232,0.857249,-3.34370827674866,4.27157354354858,8.04788017272949,2.03794479370117,-0.02927531860769,0.65476953983307
206,3964097198,0.423584,-0.060801,0.286295,0.857272,-3.35404253005981,4.26399707794189,8.01661586761475,1.86859333515167,-0.13031738996506,0.74961316585541
207,3964113865,0.423490,-0.060812,0.286315,0.857311,-3.31985545158386,4.25326681137085,8.02149105072021,1.54245424270630,-0.10205379873514,0.56849300861359
208,3964130532,0.423469,-0.060825,0.286294,0.857327,-3.34314084053040,4.22316122055054,8.01697731018066,1.28448331356049,-0.23367747664452,0.26321533322334
209,3964147199,0.423434,-0.060832,0.286328,0.857333,-3.33342123031616,4.21705865859985,8.03444099426270,1.67692112922668,-0.12301780283451,0.26535397768021
210,3964163866,0.423420,-0.060810,0.286372,0.857327,-3.36909103393555,4.28024005889893,8.02528381347656,1.83582210540771,-0.27687326073647,0.20709788799286
211,3964180533,0.423453,-0.060793,0.286292,0.857338,-3.34835505485535,4.27489519119263,8.00850772857666,1.08713757991791,-0.71709161996841,-0.10674092918634
212,3964197200,0.423503,-0.060779,0.286221,0.857338,-3.34684920310974,4.24211692810059,8.01636028289795,1.09322047233582,-0.63529741764069,-0.10435895621777
213,3964213867,0.423491,-0.060716,0.286200,0.857355,-3.35730123519897,4.26731586456299,8.00406551361084,1.51835298538208,-0.71006095409393,0.34299889206886
214,3964230534,0.423483,-0.060666,0.286170,0.857373,-3.32320713996887,4.27219343185425,8.01668262481689,1.43235814571381,-0.67648261785507,0.27406227588654
215,3964247201,0.423478,-0.060609,0.286140,0.857390,-3.34880518913269,4.25483322143555,8.02883625030518,1.44816124439240,-0.70757651329041,0.29053127765656
216,3964263868,0.423473,-0.060585,0.286125,0.857399,-3.32441449165344,4.26637983322144,8.03691959381104,1.45213115215302,-0.47601205110550,0.20045137405396
217,3964280535,0.423458,-0.060606,0.286069,0.857423,-3.32848954200745,4.23609876632690,8.02362823486328,1.10753786563873,-0.38690540194511,0.06496021151543
218,3964297202,0.423441,-0.060640,0.286091,0.857422,-3.32167482376099,4.24140644073486,8.00473976135254,1.51153993606567,0.01840912736952,0.16761590540409
219,3964313869,0.423424,-0.060680,0.286131,0.857414,-3.33625316619873,4.28067588806152,8.00213623046875,1.61988151073456,0.09598999470472,0.12258878350258
220,3964330536,0.423410,-0.060697,0.286098,0.857431,-3.34492611885071,4.26888084411621,8.03209590911865,1.20097303390503,-0.25237470865250,0.21051716804504
221,3964347203,0.423398,-0.060714,0.286065,0.857447,-3.33278393745422,4.26725769042969,8.05110931396484,1.23473072052002,-0.29585230350494,0.12381820380688
222,3964363870,0.423350,-0.060727,0.286091,0.857461,-3.33272385597229,4.21929979324341,8.00023460388184,1.61670553684235,-0.12027723342180,0.29603797197342
223,3964380537,0.423329,-0.060739,0.286144,0.857452,-3.36223554611206,4.27023649215698,8.01456165313721,1.76682174205780,-0.00453344825655,0.23833259940147
224,3964397204,0.423283,-0.060742,0.286203,0.857455,-3.32501387596130,4.24533605575562,7.99439096450806,1.80433130264282,-0.01480414159596,0.39412182569504
225,3964413871,0.423262,-0.060685,0.286243,0.857457,-3.35347390174866,4.28335905075073,8.00336074829102,1.82241404056549,-0.39099064469337,0.51351541280746
226,3964430538,0.423223,-0.060664,0.286240,0.857478,-3.32151508331299,4.27136516571045,8.01853370666504,1.47461926937103,-0.35127818584442,0.45342803001404
227,3964447205,0.423151,-0.060658,0.286241,0.857514,-3.35861897468567,4.24415349960327,8.02110481262207,1.49606966972351,-0.30577716231346,0.45098197460175
228,3964463872,0.423089,-0.060667,0.286280,0.857531,-3.32965373992920,4.26272487640381,8.03191757202148,1.69412016868591,-0.07455857843161,0.39837354421616
229,3964480539,0.423060,-0.060670,0.286336,0.857526,-3.34152770042419,4.23797607421875,7.99989652633667,1.79486739635468,-0.03478204458952,0.31371071934700
230,3964497206,0.423051,-0.060640,0.286438,0.857499,-3.34768891334534,4.27949571609497,8.00424480438232,2.11879158020020,0.00215786998160,0.44865122437477
231,3964513873,0.423025,-0.060674,0.286447,0.857506,-3.32508015632629,4.27547979354858,8.00896644592285,1.40706574916840,-0.00379067962058,0.25775980949402
232,3964530540,0.423005,-0.060729,0.286496,0.857496,-3.34141230583191,4.24486684799194,7.99873495101929,1.61017429828644,0.25127977132797,0.16364593803883
233,3964547207,0.422991,-0.060718,0.286487,0.857506,-3.37395715713501,4.28392887115479,8.02530479431152,1.43926084041595,-0.35481271147728,0.24249464273453
234,3964563874,0.422980,-0.060715,0.286418,0.857535,-3.34082531929016,4.29354524612427,8.02955436706543,1.05307257175446,-0.52080863714218,0.20494642853737
235,3964580541,0.422935,-0.060719,0.286419,0.857557,-3.36552834510803,4.23657417297363,8.01187133789062,1.51220571994781,-0.30299821496010,0.21254058182240
236,3964597208,0.422884,-0.060696,0.286428,0.857581,-3.32262420654297,4.26242303848267,8.00043582916260,1.56536507606506,-0.33506533503532,0.47544217109680
237,3964613875,0.422827,-0.060694,0.286421,0.857611,-3.33998584747314,4.28305673599243,7.97904205322266,1.39463067054749,-0.24785409867764,0.48828691244125
238,3964630542,0.422795,-0.060732,0.286393,0.857633,-3.30629491806030,4.25442886352539,7.98674964904785,1.11659193038940,-0.03815011307597,0.38255766034126
239,3964647209,0.422757,-0.060781,0.286441,0.857633,-3.33940649032593,4.23651742935181,8.02774524688721,1.57139682769775,0.26869645714760,0.35901960730553
240,3964663876,0.422722,-0.060834,0.286472,0.857636,-3.34847354888916,4.27503538131714,8.01976776123047,1.52202820777893,0.15697382390499,0.19409942626953
241,3964680543,0.422685,-0.060899,0.286513,0.857636,-3.36343979835510,4.27238368988037,8.01312637329102,1.52297592163086,0.29104351997375,0.22183798253536
242,3964697210,0.422645,-0.060926,0.286547,0.857642,-3.35110902786255,4.25233793258667,8.00906085968018,1.60693430900574,0.01290239859372,0.27118086814880
243,3964713877,0.422572,-0.060958,0.286666,0.857636,-3.34726977348328,4.25515747070312,8.00717639923096,2.09877514839172,0.36373239755630,0.46935912966728
244,3964730544,0.422545,-0.060943,0.286704,0.857638,-3.34995627403259,4.29587221145630,8.01990509033203,1.72984981536865,-0.19543771445751,0.34982469677925
245,3964747211,0.422493,-0.060938,0.286715,0.857660,-3.32321953773499,4.25095558166504,8.00047397613525,1.54885745048523,-0.25010800361633,0.39401933550835
246,3964763878,0.422453,-0.060952,0.286767,0.857661,-3.33819723129272,4.25297784805298,7.99904918670654,1.73063099384308,0.03587699308991,0.37495073676109
247,3964780545,0.422402,-0.060986,0.286833,0.857662,-3.33714652061462,4.29706335067749,7.99320745468140,1.76063609123230,0.20535621047020,0.37931764125824
248,3964797212,0.422418,-0.060991,0.286855,0.857647,-3.35462617874146,4.25865125656128,8.00106143951416,1.47921657562256,-0.02191166579723,0.34581625461578
249,3964813879,0.422367,-0.061025,0.286915,0.857649,-3.32171893119812,4.22884511947632,8.00383281707764,1.68240225315094,0.23477241396904,0.46675944328308
250,3964830546,0.422314,-0.061055,0.287009,0.857642,-3.35444664955139,4.26443672180176,7.99947643280029,1.94212734699249,0.27835240960121,0.40233060717583
251,3964847213,0.422273,-0.061073,0.287106,0.857628,-3.33676147460938,4.27534532546997,8.00899791717529,1.98993360996246,0.22402782738209,0.38753929734230
252,3964863880,0.422193,-0.061083,0.287217,0.857630,-3.35014343261719,4.26709699630737,7.99917793273926,2.14742636680603,0.16091819107533,0.45564353466034
253,3964880547,0.422161,-0.061043,0.287233,0.857643,-3.36531782150269,4.32646131515503,8.00572109222412,1.67936718463898,-0.43870717287064,0.38875597715378
254,3964897214,0.422115,-0.061029,0.287218,0.857671,-3.34084391593933,4.26980829238892,7.99305057525635,1.42676174640656,-0.40743401646614,0.36028742790222
255,3964913881,0.422090,-0.061010,0.287217,0.857686,-3.35712981224060,4.27425003051758,8.00767230987549,1.50494456291199,-0.36977055668831,0.31803926825523
256,3964930548,0.422080,-0.060986,0.287204,0.857697,-3.35265827178955,4.25828361511230,7.99695062637329,1.44928824901581,-0.44263866543770,0.26590463519096
257,3964947215,0.422061,-0.060940,0.287263,0.857689,-3.36648845672607,4.26533269882202,7.98533725738525,1.94424068927765,-0.30426606535912,0.40362411737442
258,3964963882,0.422078,-0.060912,0.287235,0.857692,-3.36559462547302,4.34513187408447,7.98818206787109,1.36860823631287,-0.51695394515991,0.15251721441746
259,3964980549,0.422082,-0.060929,0.287176,0.857709,-3.33936405181885,4.25074291229248,7.99756622314453,1.06943905353546,-0.39453804492950,0.05681536719203
260,3964997216,0.422076,-0.060940,0.287194,0.857705,-3.36639070510864,4.28119039535522,8.00273418426514,1.56115162372589,-0.14256028831005,0.14917476475239
261,3965013883,0.422079,-0.060890,0.287129,0.857729,-3.36427903175354,4.28949975967407,8.01132106781006,1.19976937770844,-0.78296744823456,0.24442841112614
262,3965030550,0.422084,-0.060845,0.287032,0.857762,-3.32382273674011,4.27470016479492,8.00116729736328,1.04038131237030,-0.92901098728180,0.09989593178034
263,3965047217,0.422103,-0.060802,0.286948,0.857784,-3.34573388099670,4.26983213424683,8.01156139373779,1.12213706970215,-0.87889975309372,0.03176614642143
264,3965063884,0.422146,-0.060778,0.286842,0.857800,-3.33413243293762,4.26834249496460,7.99357557296753,0.91469991207123,-0.81914532184601,-0.07145942747593
265,3965080551,0.422152,-0.060724,0.286838,0.857802,-3.34318566322327,4.26858663558960,7.98518943786621,1.62705326080322,-0.63668060302734,0.18349577486515
266,3965097218,0.422119,-0.060705,0.286823,0.857824,-3.32455015182495,4.27965641021729,7.97665977478027,1.43418943881989,-0.43752893805504,0.31285271048546
267,3965113885,0.422119,-0.060677,0.286818,0.857828,-3.35550904273987,4.30642366409302,7.98128604888916,1.50785160064697,-0.44210079312325,0.23997175693512
268,3965130552,0.422126,-0.060661,0.286724,0.857858,-3.32041049003601,4.26975536346436,8.03198909759521,0.90343040227890,-0.64472287893295,0.20668809115887
269,3965147219,0.422135,-0.060617,0.286635,0.857886,-3.34148335456848,4.24375009536743,8.00298500061035,1.03994596004486,-0.84158205986023,0.19221690297127
270,3965163886,0.422103,-0.060556,0.286619,0.857911,-3.34046101570129,4.26759099960327,7.99540567398071,1.56820797920227,-0.71910220384598,0.33873438835144
271,3965180553,0.422130,-0.060531,0.286594,0.857908,-3.34530234336853,4.27431678771973,8.01450538635254,1.34834849834442,-0.45335754752159,0.19372804462910
272,3965197220,0.422042,-0.060527,0.286656,0.857931,-3.33486080169678,4.25829124450684,8.00012779235840,1.83183944225311,-0.02079751342535,0.63173079490662
273,3965213887,0.421953,-0.060523,0.286735,0.857949,-3.33221006393433,4.31067371368408,8.02267265319824,1.87713515758514,0.10080516338348,0.76609492301941
274,3965230554,0.421869,-0.060555,0.286729,0.857990,-3.33127260208130,4.28363418579102,8.02872467041016,1.29826295375824,-0.02968511916697,0.54207360744476
275,3965247221,0.421813,-0.060567,0.286682,0.858032,-3.33548164367676,4.22261428833008,8.01089191436768,1.09307956695557,-0.29922035336494,0.45944702625275
276,3965263888,0.421781,-0.060523,0.286611,0.858075,-3.34152340888977,4.25492620468140,8.03750133514404,1.22767436504364,-0.86317366361618,0.19522638618946
277,3965280555,0.421763,-0.060492,0.286600,0.858089,-3.31790065765381,4.24375772476196,7.98229503631592,1.53208124637604,-0.54480773210526,0.18266338109970
278,3965297222,0.421757,-0.060484,0.286619,0.858086,-3.33574271202087,4.30488395690918,7.97863054275513,1.63066470623016,-0.26612877845764,0.16721893846989
279,3965313889,0.421721,-0.060534,0.286572,0.858116,-3.32743167877197,4.29257440567017,7.98205566406250,1.04211020469666,-0.13362145423889,0.18202306330204
280,3965330556,0.421684,-0.060595,0.286547,0.858139,-3.33614110946655,4.27247381210327,8.00298881530762,1.11117494106293,0.04613487422466,0.24391610920429
281,3965347223,0.421640,-0.060639,0.286529,0.858163,-3.33914947509766,4.27173471450806,8.00852680206299,1.22533082962036,-0.05214745923877,0.26595589518547
282,3965363890,0.421597,-0.060643,0.286496,0.858195,-3.35782718658447,4.28367996215820,8.01968574523926,1.22447264194489,-0.31028503179550,0.39441636204720
283,3965380557,0.421578,-0.060625,0.286450,0.858221,-3.33193945884705,4.27483892440796,8.00027751922607,1.17528343200684,-0.45824962854385,0.39572262763977
284,3965397224,0.421526,-0.060597,0.286410,0.858262,-3.31669163703918,4.26616001129150,7.99095821380615,1.26809120178223,-0.52596956491470,0.50284779071808
285,3965413891,0.421506,-0.060594,0.286377,0.858283,-3.29953932762146,4.27550411224365,8.00980567932129,1.23717665672302,-0.35358330607414,0.31602868437767
286,3965430558,0.421494,-0.060642,0.286313,0.858307,-3.32197856903076,4.24983882904053,8.00136280059814,0.93248808383942,-0.19035358726978,0.11284315586090
287,3965447225,0.421507,-0.060670,0.286262,0.858315,-3.32167387008667,4.28012895584106,8.00896644592285,1.07404923439026,-0.27674517035484,0.03504456952214
288,3965463892,0.421519,-0.060730,0.286246,0.858310,-3.32246756553650,4.24827337265015,8.01979351043701,1.19034385681152,0.05673853680491,0.01474651042372
289,3965480559,0.421487,-0.060804,0.286251,0.858319,-3.34035205841064,4.27290439605713,8.01918411254883,1.29835259914398,0.18709436058998,0.12561108171940
290,3965497226,0.421451,-0.060848,0.286271,0.858327,-3.33624243736267,4.31830120086670,8.00334644317627,1.41668319702148,0.13405045866966,0.34150049090385
291,3965513893,0.421382,-0.060895,0.286208,0.858378,-3.33907938003540,4.28657293319702,8.00189304351807,0.85367769002914,-0.07343161851168,0.55470061302185
292,3965530560,0.421326,-0.060932,0.286202,0.858406,-3.34534668922424,4.23757457733154,8.00638771057129,1.25378632545471,0.02606732584536,0.47576227784157
293,3965547227,0.421289,-0.060942,0.286186,0.858429,-3.33595037460327,4.28366804122925,8.01394176483154,1.28476500511169,-0.18537190556526,0.43187493085861
294,3965563894,0.421249,-0.060933,0.286144,0.858463,-3.33977007865906,4.26912450790405,8.01226043701172,1.22005462646484,-0.44093546271324,0.36990505456924
295,3965580561,0.421204,-0.060961,0.286146,0.858482,-3.33258771896362,4.24956750869751,8.00468063354492,1.36515057086945,-0.04397700354457,0.37340113520622
296,3965597228,0.421156,-0.061020,0.286130,0.858507,-3.32494735717773,4.27255058288574,8.02150726318359,1.16777896881104,0.07859896868467,0.30824238061905
297,3965613895,0.421088,-0.061054,0.286121,0.858541,-3.35649633407593,4.29648876190186,8.01453876495361,1.24270892143250,0.00964958500117,0.54964214563370
298,3965630562,0.421042,-0.061084,0.286074,0.858577,-3.34142494201660,4.25051546096802,8.03865718841553,1.04157245159149,-0.18160684406757,0.39555615186691
299,3965647229,0.420992,-0.061081,0.286084,0.858598,-3.32700037956238,4.24098110198975,8.03373050689697,1.47144329547882,-0.16436950862408,0.52543812990189
300,3965663896,0.420947,-0.061081,0.286104,0.858614,-3.33171224594116,4.29547119140625,8.00417804718018,1.54438805580139,-0.13520945608616,0.46141913533211
301,3965680563,0.420905,-0.061084,0.286062,0.858648,-3.31528973579407,4.25961160659790,7.97754240036011,1.16366815567017,-0.34668073058128,0.40826001763344
302,3965697230,0.420828,-0.061100,0.285993,0.858707,-3.32307720184326,4.26315355300903,8.02150154113770,1.01238691806793,-0.41861394047737,0.39051041007042
303,3965713897,0.420804,-0.061073,0.285957,0.858733,-3.34066414833069,4.24394130706787,8.00901126861572,1.32601428031921,-0.56301832199097,0.27908238768578
304,3965730564,0.420761,-0.061043,0.285986,0.858747,-3.33571600914001,4.25360536575317,8.02095222473145,1.74483323097229,-0.35148307681084,0.39013907313347
305,3965747231,0.420735,-0.061054,0.285994,0.858756,-3.34847855567932,4.28271484375000,8.00893974304199,1.49300909042358,-0.18177333474159,0.22473224997520
306,3965763898,0.420734,-0.061086,0.285956,0.858767,-3.33817076683044,4.27045822143555,8.02842140197754,1.13932323455811,-0.20296782255173,0.09884580969810
307,3965780565,0.420734,-0.061079,0.285905,0.858784,-3.32625985145569,4.27455091476440,8.01532936096191,1.17565512657166,-0.48133948445320,0.15990649163723
308,3965797232,0.420705,-0.061057,0.285886,0.858807,-3.32744026184082,4.23600482940674,8.01297283172607,1.41545379161835,-0.47222131490707,0.30470785498619
309,3965813899,0.420690,-0.061042,0.285896,0.858812,-3.32058334350586,4.25611448287964,8.00461864471436,1.57105100154877,-0.31374275684357,0.25820803642273
310,3965830566,0.420671,-0.061071,0.285930,0.858807,-3.32569646835327,4.25147056579590,8.02246189117432,1.63907825946808,-0.01736541092396,0.10176565498114
311,3965847233,0.420634,-0.061109,0.285995,0.858801,-3.34303092956543,4.26224136352539,8.03566074371338,1.81724011898041,0.12849250435829,0.13411448895931
312,3965863900,0.420582,-0.061160,0.286095,0.858790,-3.33723759651184,4.28355026245117,8.02466201782227,1.96311700344086,0.36815047264099,0.26094856858253
313,3965880567,0.420549,-0.061242,0.286117,0.858793,-3.32984280586243,4.30023288726807,7.99092674255371,1.34515976905823,0.34776282310486,0.21211796998978
314,3965897234,0.420526,-0.061335,0.286078,0.858811,-3.35030531883240,4.27903413772583,8.00359153747559,0.95310616493225,0.17194445431232,0.08270980417728
315,3965913901,0.420591,-0.061371,0.285960,0.858815,-3.32222509384155,4.22401952743530,8.03693962097168,0.54743939638138,-0.35024085640907,-0.00840096548200
316,3965930568,0.420597,-0.061447,0.285877,0.858834,-3.33051824569702,4.23568487167358,8.03094196319580,0.74834543466568,-0.09901869297028,-0.06156012043357
317,3965947235,0.420660,-0.061463,0.285877,0.858803,-3.33221888542175,4.26955461502075,8.02313327789307,1.44100236892700,-0.19449001550674,-0.16622640192509
318,3965963902,0.420682,-0.061463,0.285905,0.858783,-3.34952139854431,4.28471279144287,8.01517200469971,1.62787282466888,-0.15098686516285,0.11843954026699
319,3965980569,0.420645,-0.061477,0.285929,0.858792,-3.34021043777466,4.29653882980347,8.00417995452881,1.56919407844543,-0.08491890877485,0.31003534793854
320,3965997236,0.420574,-0.061494,0.285903,0.858834,-3.34267926216125,4.27503061294556,7.99811506271362,1.18688619136810,-0.15462388098240,0.58222150802612
321,3966013903,0.420529,-0.061520,0.285875,0.858863,-3.31333422660828,4.25858306884766,7.99865531921387,1.10938203334808,-0.05674493312836,0.54915547370911
322,3966030570,0.420469,-0.061532,0.285875,0.858892,-3.34387993812561,4.24214172363281,7.98416519165039,1.37867403030396,-0.12332514673471,0.51730608940125
323,3966047237,0.420385,-0.061550,0.285884,0.858928,-3.31181645393372,4.27510643005371,8.02265548706055,1.43623852729797,-0.07236868143082,0.55594283342361
324,3966063904,0.420318,-0.061593,0.285937,0.858941,-3.32129931449890,4.23611307144165,7.99331283569336,1.63646590709686,0.22621779143810,0.45021364092827
325,3966080571,0.420248,-0.061647,0.285993,0.858953,-3.34743809700012,4.26065301895142,8.01553821563721,1.61847269535065,0.31285271048546,0.46172651648521
326,3966097238,0.420202,-0.061695,0.285977,0.858977,-3.35770010948181,4.27037906646729,8.03380775451660,1.21655845642090,-0.00243320688605,0.29797175526619
327,3966113905,0.420197,-0.061692,0.285908,0.859002,-3.35337853431702,4.26233720779419,8.02708435058594,1.03486180305481,-0.50355845689774,0.19347190856934
328,3966130572,0.420155,-0.061668,0.285878,0.859034,-3.34586453437805,4.23045396804810,7.98917293548584,1.35426521301270,-0.51660817861557,0.37296575307846
329,3966147239,0.420115,-0.061643,0.285922,0.859041,-3.32825803756714,4.26261615753174,7.98181962966919,1.77750205993652,-0.21888610720634,0.46679779887199
330,3966163906,0.420073,-0.061658,0.285907,0.859066,-3.33736896514893,4.31158208847046,7.99236440658569,1.31071078777313,-0.20127740502357,0.34344708919525
331,3966180573,0.420048,-0.061687,0.285849,0.859095,-3.32799768447876,4.25314855575562,7.99665069580078,1.02086448669434,-0.28243124485016,0.20282055437565
332,3966197240,0.420034,-0.061716,0.285828,0.859107,-3.33168363571167,4.21788167953491,8.03396034240723,1.27340590953827,-0.18077445030212,0.11887494474649
333,3966213907,0.420011,-0.061759,0.285884,0.859097,-3.33915615081787,4.23592662811279,8.01926898956299,1.75023734569550,0.12322910130024,0.05344729870558
334,3966230574,0.420006,-0.061809,0.285911,0.859086,-3.34019446372986,4.32887172698975,8.02801418304443,1.55582439899445,0.05499687418342,-0.04829274863005
335,3966247241,0.420017,-0.061853,0.285857,0.859096,-3.35585165023804,4.26297712326050,8.00259208679199,1.00205206871033,-0.17995484173298,0.03672220930457
336,3966263908,0.419996,-0.061873,0.285837,0.859111,-3.35066080093384,4.25287914276123,8.01712322235107,1.30715048313141,-0.23570086061954,0.14619088172913
337,3966280575,0.419957,-0.061900,0.285841,0.859127,-3.32113456726074,4.22714138031006,8.01710796356201,1.41416025161743,-0.08103857189417,0.27549660205841
338,3966297242,0.419932,-0.061919,0.285884,0.859123,-3.33483505249023,4.25779485702515,8.00258636474609,1.69444024562836,-0.01255022361875,0.20933902263641
339,3966313909,0.419918,-0.061975,0.285895,0.859123,-3.31611132621765,4.28700637817383,8.00562095642090,1.37437105178833,0.11035871505737,0.11637771129608
340,3966330576,0.419902,-0.062055,0.285887,0.859128,-3.34824085235596,4.25518178939819,8.01551723480225,1.22043895721436,0.15597495436668,0.00400198437274
341,3966347243,0.419888,-0.062075,0.285882,0.859135,-3.34352159500122,4.27226877212524,7.99638700485229,1.34145879745483,-0.10681776702404,0.26891416311264
342,3966363910,0.419842,-0.062104,0.285894,0.859151,-3.35754323005676,4.26601457595825,7.99858093261719,1.44408893585205,-0.02544621936977,0.33053830265999
343,3966380577,0.419834,-0.062107,0.285877,0.859160,-3.35495543479919,4.25213813781738,8.00175189971924,1.33583688735962,-0.27825638651848,0.22835643589497
344,3966397244,0.419840,-0.062104,0.285905,0.859149,-3.34259915351868,4.25091266632080,8.02583789825439,1.60076165199280,-0.11922712624073,0.28160521388054
345,3966413911,0.419802,-0.062127,0.285935,0.859155,-3.34401202201843,4.27537488937378,8.02414894104004,1.57208836078644,-0.00405961321667,0.30565556883812
346,3966430578,0.419758,-0.062179,0.285945,0.859170,-3.33149576187134,4.27004623413086,8.02180862426758,1.36910760402679,0.10805357247591,0.28881520032883
347,3966447245,0.419697,-0.062207,0.285977,0.859187,-3.36625218391418,4.24337959289551,8.00972747802734,1.56063926219940,0.04546894133091,0.40677449107170
348,3966463912,0.419615,-0.062221,0.286034,0.859207,-3.35288858413696,4.29608821868896,8.02854156494141,1.75147926807404,0.06385884433985,0.56463831663132
349,3966480579,0.419550,-0.062253,0.286051,0.859231,-3.34818959236145,4.23508930206299,8.00334930419922,1.42472565174103,0.06712447851896,0.51400202512741
350,3966497246,0.419470,-0.062279,0.286133,0.859240,-3.33684682846069,4.25062799453735,7.99609518051147,1.82327187061310,0.27092468738556,0.64253932237625
351,3966513913,0.419420,-0.062322,0.286132,0.859262,-3.35309863090515,4.28343009948730,8.01802158355713,1.29365253448486,0.05522738024592,0.39442917704582
352,3966530580,0.419381,-0.062335,0.286140,0.859277,-3.35401916503906,4.24720907211304,8.01710510253906,1.40490138530731,-0.06180344149470,0.46821939945221
353,3966547247,0.419328,-0.062342,0.286189,0.859287,-3.36321926116943,4.27716827392578,8.01237010955811,1.72704505920410,-0.02064383588731,0.43346291780472
354,3966563914,0.419297,-0.062384,0.286193,0.859297,-3.35482311248779,4.26125907897949,8.02603149414062,1.36310148239136,0.02305783331394,0.23760262131691
355,3966580581,0.419268,-0.062412,0.286249,0.859291,-3.35152220726013,4.22373628616333,8.02288913726807,1.73335886001587,0.10240597277880,0.24414665997028
356,3966597248,0.419225,-0.062429,0.286325,0.859285,-3.33074569702148,4.27090549468994,7.99541616439819,1.92503094673157,0.05599575117230,0.25104922056198
357,3966613915,0.419217,-0.062455,0.286377,0.859270,-3.31806921958923,4.27077770233154,7.98844099044800,1.70754110813141,0.09359521418810,0.18172851204872
358,3966630582,0.419200,-0.062501,0.286420,0.859260,-3.33983445167542,4.24616718292236,7.99865198135376,1.62125194072723,0.14836795628071,0.12047573179007
359,3966647249,0.419195,-0.062534,0.286450,0.859251,-3.33706021308899,4.29158926010132,8.01913738250732,1.58848023414612,-0.00081960635725,0.06408937275410
360,3966663916,0.419208,-0.062558,0.286451,0.859242,-3.35505080223083,4.25913667678833,8.00455284118652,1.44675254821777,-0.16361391544342,-0.03332212194800
361,3966680583,0.419210,-0.062582,0.286486,0.859228,-3.35564684867859,4.25479507446289,7.98416328430176,1.65188455581665,-0.04493748024106,0.02465862594545
362,3966697250,0.419182,-0.062591,0.286563,0.859215,-3.36482524871826,4.28750562667847,8.00477409362793,1.92659366130829,0.04881140217185,0.27045089006424
363,3966713917,0.419137,-0.062609,0.286629,0.859214,-3.35942673683167,4.29863882064819,7.98441982269287,1.82885551452637,0.07857335358858,0.33253607153893
364,3966730584,0.419103,-0.062611,0.286665,0.859218,-3.35058045387268,4.28600502014160,7.99348735809326,1.63673484325409,-0.06578622013330,0.41951683163643
365,3966747251,0.419039,-0.062623,0.286712,0.859233,-3.35887503623962,4.25946426391602,8.00943660736084,1.66241157054901,0.05125742033124,0.56161612272263
366,3966763918,0.418933,-0.062642,0.286768,0.859264,-3.36003828048706,4.26209735870361,8.02886009216309,1.74898231029510,0.06780321896076,0.60075223445892
367,3966780585,0.418865,-0.062634,0.286799,0.859288,-3.35403156280518,4.27185201644897,7.98956680297852,1.65045022964478,-0.17036285996437,0.53152114152908
368,3966797252,0.418840,-0.062613,0.286824,0.859294,-3.35918331146240,4.27306222915649,7.98926067352295,1.59636914730072,-0.19379851222038,0.52207010984421
369,3966813919,0.418854,-0.062636,0.286776,0.859300,-3.35506367683411,4.26636123657227,8.02673721313477,1.08538305759430,-0.26288875937462,0.09358241409063
370,3966830586,0.418828,-0.062647,0.286750,0.859321,-3.34770321846008,4.27009487152100,7.99033403396606,1.27094697952271,-0.27747514843941,0.24444118142128
371,3966847253,0.418807,-0.062650,0.286750,0.859331,-3.36789011955261,4.26568651199341,7.99211692810059,1.49872076511383,-0.29982227087021,0.14654947817326
372,3966863920,0.418775,-0.062654,0.286768,0.859340,-3.35326337814331,4.26714897155762,8.00928783416748,1.61519443988800,-0.23385672271252,0.18959158658981
373,3966880587,0.418725,-0.062657,0.286781,0.859360,-3.36178803443909,4.29169702529907,7.97658538818359,1.54005980491638,-0.20400516688824,0.34807017445564
374,3966897254,0.418662,-0.062683,0.286784,0.859388,-3.35113191604614,4.27108955383301,7.99129724502563,1.40258347988129,-0.07609533518553,0.40295821428299
375,3966913921,0.418622,-0.062702,0.286750,0.859417,-3.35039687156677,4.26306915283203,7.98856782913208,1.19111216068268,-0.25288698077202,0.30151906609535
376,3966930588,0.418604,-0.062700,0.286705,0.859441,-3.34582686424255,4.27170991897583,8.00706958770752,1.17830586433411,-0.41013613343239,0.26286947727203
377,3966947255,0.418597,-0.062706,0.286696,0.859448,-3.34373044967651,4.22191476821899,7.99302911758423,1.40130281448364,-0.27574631571770,0.15689699351788
378,3966963922,0.418555,-0.062705,0.286736,0.859455,-3.34807038307190,4.28810596466064,7.99811458587646,1.71922028064728,-0.13255852460861,0.33713355660439
379,3966980589,0.418523,-0.062731,0.286753,0.859463,-3.35604572296143,4.28593492507935,7.98266506195068,1.48245680332184,-0.01749347522855,0.29776686429977
380,3966997256,0.418515,-0.062761,0.286743,0.859468,-3.35771250724792,4.29248237609863,8.00026512145996,1.27907907962799,-0.07006353884935,0.21822658181190
381,3967013923,0.418478,-0.062777,0.286730,0.859489,-3.34575581550598,4.24125862121582,7.99824190139771,1.28981077671051,-0.13715600967407,0.41429182887077
382,3967030590,0.418430,-0.062779,0.286778,0.859496,-3.33719301223755,4.27297210693359,8.01771068572998,1.70919322967529,-0.02768732979894,0.47998839616776
383,3967047257,0.418393,-0.062810,0.286788,0.859508,-3.35361552238464,4.28136920928955,7.99449872970581,1.41820716857910,-0.00778626045212,0.30633428692818
384,3967063924,0.418347,-0.062840,0.286800,0.859525,-3.35971307754517,4.29600286483765,7.99878501892090,1.43338274955750,-0.01340824924409,0.34858244657516
385,3967080591,0.418313,-0.062867,0.286811,0.859536,-3.35793924331665,4.26496982574463,7.99219036102295,1.41501843929291,-0.00270213955082,0.35909646749496
386,3967097258,0.418271,-0.062883,0.286843,0.859544,-3.36666631698608,4.26573657989502,8.00032234191895,1.61785829067230,-0.05217307060957,0.32060056924820
387,3967113925,0.418213,-0.062908,0.286851,0.859568,-3.35755515098572,4.27255201339722,7.99049234390259,1.46204328536987,-0.09371687471867,0.32576152682304
388,3967130592,0.418211,-0.062923,0.286837,0.859572,-3.34958243370056,4.27254581451416,8.01525783538818,1.27309846878052,-0.13955080509186,0.28857189416885
389,3967147259,0.418188,-0.062939,0.286848,0.859579,-3.36969757080078,4.27095842361450,7.99888658523560,1.47688591480255,-0.11651217192411,0.24509434401989
390,3967163926,0.418136,-0.062974,0.286876,0.859592,-3.34984731674194,4.26867485046387,7.97302293777466,1.55305790901184,0.03419935330749,0.29998233914375
391,3967180593,0.418115,-0.063015,0.286877,0.859599,-3.35288763046265,4.29346513748169,7.99996328353882,1.30197679996490,0.06321854144335,0.29929077625275
392,3967197260,0.418083,-0.063037,0.286886,0.859610,-3.35124659538269,4.24517059326172,7.97658491134644,1.43248629570007,-0.07380299270153,0.30746126174927
393,3967213927,0.418041,-0.063073,0.286930,0.859613,-3.35451483726501,4.28956556320190,7.99331521987915,1.67028737068176,0.07734394818544,0.21365469694138
394,3967230594,0.418045,-0.063126,0.286950,0.859601,-3.36112856864929,4.28008031845093,8.00634860992432,1.44284653663635,0.12360047549009,0.03942434489727
395,3967247261,0.418017,-0.063178,0.286999,0.859594,-3.35146665573120,4.25343084335327,7.98242235183716,1.60748517513275,0.24139329791069,0.22309303283691
396,3967263928,0.417975,-0.063219,0.287059,0.859592,-3.36897826194763,4.28999805450439,7.99486064910889,1.71085798740387,0.20673932135105,0.30810156464577
397,3967280595,0.417939,-0.063247,0.287097,0.859594,-3.35526847839355,4.26957559585571,8.00940322875977,1.62429964542389,0.04158861935139,0.26813292503357
398,3967297262,0.417941,-0.063267,0.287067,0.859602,-3.37074732780457,4.25768661499023,7.99980306625366,1.26245641708374,-0.29509672522545,0.01687236689031
399,3967313929,0.417961,-0.063289,0.287045,0.859598,-3.35281658172607,4.27161216735840,8.01134204864502,1.30697119235992,-0.25257962942123,-0.05438856408000
400,3967330596,0.417970,-0.063304,0.287029,0.859598,-3.36647295951843,4.27930307388306,7.98078680038452,1.37055480480194,-0.28929543495178,-0.02607372961938
401,3967347263,0.417979,-0.063326,0.287003,0.859600,-3.37472319602966,4.30304861068726,7.99088096618652,1.25852489471436,-0.23632839322090,0.04856808483601
402,3967363930,0.417960,-0.063360,0.286971,0.859618,-3.37087988853455,4.28665971755981,7.98848724365234,1.16669034957886,-0.16597029566765,0.16893495619297
403,3967380597,0.417919,-0.063412,0.286946,0.859642,-3.35622096061707,4.27299404144287,7.98487710952759,1.18441450595856,-0.05338966846466,0.16876848042011
404,3967397264,0.417904,-0.063450,0.286922,0.859655,-3.33397746086121,4.25761222839355,7.98176527023315,1.22308957576752,-0.13144436478615,0.10856582224369
405,3967413931,0.417915,-0.063454,0.286880,0.859663,-3.37142205238342,4.25774002075195,8.00356674194336,1.23129856586456,-0.43428897857666,0.01749987527728
406,3967430598,0.417933,-0.063470,0.286826,0.859671,-3.36800479888916,4.23754930496216,7.98502111434937,1.09512865543365,-0.36440467834473,0.01486176997423
407,3967447265,0.417902,-0.063467,0.286850,0.859678,-3.38339066505432,4.27814245223999,7.99985170364380,1.64420104026794,-0.21294400095940,0.27337077260017
408,3967463932,0.417865,-0.063470,0.286828,0.859704,-3.37010741233826,4.32221078872681,7.97700786590576,1.28671145439148,-0.28652927279472,0.37135210633278
409,3967480599,0.417819,-0.063493,0.286796,0.859735,-3.35478806495667,4.27350997924805,7.99187707901001,1.16231083869934,-0.17455054819584,0.39097145199776
410,3967497266,0.417782,-0.063516,0.286779,0.859757,-3.35646605491638,4.23419904708862,7.98948764801025,1.23117053508759,-0.10766297578812,0.41538035869598
411,3967513933,0.417709,-0.063542,0.286841,0.859770,-3.36054444313049,4.25094652175903,8.00188446044922,1.76354312896729,0.13118183612823,0.45903715491295
412,3967530600,0.417682,-0.063517,0.286848,0.859782,-3.37353396415710,4.30005693435669,7.99989509582520,1.58389580249786,-0.39110594987869,0.31990903615952
413,3967547267,0.417649,-0.063508,0.286813,0.859811,-3.34005427360535,4.25678348541260,7.99589633941650,1.26018953323364,-0.42050927877426,0.33861908316612
414,3967563934,0.417625,-0.063511,0.286835,0.859815,-3.35843658447266,4.26166677474976,7.99470758438110,1.59475564956665,-0.17156666517258,0.25256040692329
415,3967580601,0.417618,-0.063520,0.286806,0.859827,-3.36174225807190,4.29863786697388,7.99194526672363,1.24511647224426,-0.29202318191528,0.19751872122288
416,3967597268,0.417593,-0.063525,0.286801,0.859841,-3.38018608093262,4.30272912979126,7.99893856048584,1.40737307071686,-0.22896473109722,0.30099403858185
417,3967613935,0.417555,-0.063571,0.286797,0.859857,-3.37396764755249,4.26662254333496,8.00580883026123,1.28835082054138,0.03195824474096,0.27584236860275
418,3967630602,0.417511,-0.063612,0.286823,0.859867,-3.37388396263123,4.27201223373413,7.99016380310059,1.49376475811005,0.10427569597960,0.32393023371696
419,3967647269,0.417493,-0.063609,0.286762,0.859896,-3.36756443977356,4.28126382827759,7.98882198333740,1.08041405677795,-0.47478255629539,0.25446859002113
420,3967663936,0.417516,-0.063603,0.286674,0.859915,-3.33502626419067,4.22148609161377,7.99686956405640,0.92873561382294,-0.59924745559692,0.06868685036898
421,3967680603,0.417518,-0.063602,0.286670,0.859915,-3.34755206108093,4.25023221969604,8.00074005126953,1.47438871860504,-0.31776395440102,0.08591140061617
422,3967697270,0.417535,-0.063635,0.286668,0.859905,-3.35456085205078,4.27706623077393,8.01460075378418,1.39515578746796,-0.11005777120590,-0.04588515311480
423,3967713937,0.417519,-0.063665,0.286688,0.859904,-3.37127995491028,4.28587579727173,8.01042461395264,1.52023541927338,-0.03038946911693,0.13808447122574
424,3967730604,0.417478,-0.063675,0.286690,0.859922,-3.37640237808228,4.29672336578369,8.00195312500000,1.44989013671875,-0.19601400196552,0.31623360514641
425,3967747271,0.417451,-0.063698,0.286644,0.859949,-3.35719585418701,4.25169086456299,8.01023101806641,1.10213363170624,-0.26771673560143,0.24255867302418
426,3967763938,0.417413,-0.063723,0.286678,0.859955,-3.36464357376099,4.23504018783569,8.00393295288086,1.63127923011780,-0.02239830419421,0.22396382689476
427,3967780605,0.417361,-0.063752,0.286782,0.859943,-3.35955190658569,4.26865339279175,7.98323440551758,2.01636600494385,0.29815101623535,0.39031833410263
428,3967797272,0.417318,-0.063805,0.286869,0.859931,-3.35329484939575,4.29526948928833,7.99706459045410,1.79010367393494,0.44451478123665,0.41653293371201
429,3967813939,0.417280,-0.063857,0.286900,0.859935,-3.37637639045715,4.29714584350586,7.99364805221558,1.46743476390839,0.21846993267536,0.34029671549797
430,3967830606,0.417240,-0.063892,0.286899,0.859952,-3.36770915985107,4.26060819625854,8.00101470947266,1.31981587409973,-0.00882357452065,0.33732566237450
431,3967847273,0.417172,-0.063940,0.286951,0.859964,-3.36574244499207,4.26428222656250,7.98302173614502,1.64699280261993,0.22217096388340,0.38878157734871
432,3967863940,0.417135,-0.063964,0.286973,0.859973,-3.36417460441589,4.28813982009888,7.99916458129883,1.55267393589020,-0.06054842844605,0.22762648761272
433,3967880607,0.417105,-0.063987,0.286991,0.859980,-3.38390564918518,4.27683305740356,7.99876356124878,1.49230468273163,-0.03757382929325,0.29129961133003
434,3967897274,0.417073,-0.064003,0.287003,0.859990,-3.37661099433899,4.27435684204102,7.99802017211914,1.48435187339783,-0.10593412071466,0.29693442583084
435,3967913941,0.417041,-0.064006,0.286987,0.860011,-3.38228654861450,4.28045225143433,7.99768972396851,1.33185398578644,-0.27506756782532,0.33658289909363
436,3967930608,0.417016,-0.064023,0.286980,0.860024,-3.36413598060608,4.26570463180542,7.98570537567139,1.34695267677307,-0.13978131115437,0.31218677759171
437,3967947275,0.416980,-0.064054,0.286983,0.860038,-3.37411618232727,4.26468229293823,7.99559354782104,1.37757253646851,-0.04552657157183,0.28672775626183
438,3967963942,0.416958,-0.064116,0.286966,0.860050,-3.37245464324951,4.26402235031128,8.00159072875977,1.17372107505798,0.06893017888069,0.15548828244209
439,3967980609,0.416926,-0.064163,0.286999,0.860051,-3.38293480873108,4.25635004043579,8.01720333099365,1.53994452953339,0.14088906347752,0.21079891920090
440,3967997276,0.416860,-0.064190,0.287070,0.860057,-3.38345479965210,4.27477169036865,7.99521064758301,1.85148441791534,0.12089833617210,0.35037532448769
441,3968013943,0.416871,-0.064204,0.287033,0.860063,-3.38428997993469,4.28891611099243,8.00968647003174,1.14598274230957,-0.23704555630684,0.20759733021259
442,3968030610,0.416857,-0.064223,0.287022,0.860072,-3.37071156501770,4.22117042541504,7.99816560745239,1.30612611770630,-0.14797736704350,0.25229150056839
443,3968047277,0.416822,-0.064235,0.287054,0.860078,-3.38266587257385,4.30137252807617,7.99671316146851,1.61527144908905,-0.05962636321783,0.33873435854912
444,3968063944,0.416779,-0.064249,0.287048,0.860099,-3.36970734596252,4.25982046127319,7.98000764846802,1.35731303691864,-0.15443179011345,0.38536229729652
445,3968080611,0.416738,-0.064294,0.287063,0.860111,-3.36143636703491,4.26554775238037,7.99496126174927,1.41240584850311,0.09628453850746,0.29619163274765
446,3968097278,0.416696,-0.064352,0.287066,0.860126,-3.38859820365906,4.28079652786255,8.00000476837158,1.33914077281952,0.06954488903284,0.17777132987976
447,3968113945,0.416662,-0.064392,0.287064,0.860140,-3.39510989189148,4.26312398910522,8.01202774047852,1.33674609661102,-0.02449854835868,0.22133854031563
448,3968130612,0.416675,-0.064435,0.287108,0.860115,-3.38375687599182,4.27763366699219,7.98995399475098,1.61369597911835,0.16513147950172,0.06209158152342
449,3968147279,0.416637,-0.064463,0.287111,0.860131,-3.38477277755737,4.28070020675659,7.97195625305176,1.41039550304413,-0.08978532254696,0.26304882764816
450,3968163946,0.416617,-0.064474,0.287076,0.860152,-3.36519503593445,4.25786828994751,7.97869062423706,1.20353436470032,-0.29792690277100,0.24309650063515
451,3968180613,0.416596,-0.064477,0.287057,0.860168,-3.36417627334595,4.26617813110352,7.97926378250122,1.30479407310486,-0.27063655853271,0.30760210752487
452,3968197280,0.416530,-0.064503,0.287051,0.860200,-3.36766600608826,4.26442003250122,8.00499439239502,1.39689755439758,-0.17893032729626,0.27511242032051
453,3968213947,0.416494,-0.064527,0.287057,0.860214,-3.38206315040588,4.24612140655518,8.01076507568359,1.40177667140961,-0.05628390610218,0.34641814231873
454,3968230614,0.416457,-0.064557,0.287110,0.860211,-3.38773226737976,4.28054714202881,8.00504970550537,1.66583085060120,0.16292878985405,0.37980434298515
455,3968247281,0.416422,-0.064561,0.287114,0.860227,-3.38092994689941,4.28715753555298,7.98766613006592,1.41344332695007,-0.14512155950069,0.44553929567337
456,3968263948,0.416348,-0.064551,0.287089,0.860272,-3.38137340545654,4.25839900970459,7.98489475250244,1.28911924362183,-0.34926760196686,0.58576887845993
457,3968280615,0.416304,-0.064556,0.287025,0.860314,-3.37353110313416,4.25501060485840,7.97988557815552,1.06204974651337,-0.46501138806343,0.30233868956566
458,3968297282,0.416256,-0.064540,0.287014,0.860342,-3.36855006217957,4.25295114517212,7.97244834899902,1.41354560852051,-0.35237950086594,0.46359625458717
459,3968313949,0.416233,-0.064512,0.286991,0.860363,-3.38345623016357,4.27662229537964,7.99865007400513,1.36716115474701,-0.47366851568222,0.37209492921829
460,3968330616,0.416202,-0.064497,0.287003,0.860375,-3.36955142021179,4.27888870239258,7.99439096450806,1.56272697448730,-0.28368628025055,0.37345236539841
461,3968347283,0.416173,-0.064512,0.286972,0.860398,-3.37899470329285,4.27645492553711,7.99858713150024,1.22470331192017,-0.26683309674263,0.26216521859169
462,3968363950,0.416155,-0.064533,0.286959,0.860410,-3.37596940994263,4.25018930435181,7.98398017883301,1.32578384876251,-0.18658852577209,0.18723525106907
463,3968380617,0.416119,-0.064557,0.286986,0.860416,-3.38196182250977,4.26820325851440,8.00734138488770,1.55116271972656,-0.00303510506637,0.31189227104187
464,3968397284,0.416079,-0.064584,0.287029,0.860420,-3.37655377388000,4.26969718933105,7.98556709289551,1.65231990814209,0.05205140262842,0.28910973668098
465,3968413951,0.416030,-0.064576,0.287074,0.860429,-3.39077496528625,4.28833818435669,7.98747348785400,1.74128568172455,-0.11179942637682,0.46658009290695
466,3968430618,0.415990,-0.064580,0.287079,0.860446,-3.35972857475281,4.27327728271484,7.99119853973389,1.46208167076111,-0.18964922428131,0.37957379221916
467,3968447285,0.415969,-0.064566,0.287088,0.860454,-3.37342214584351,4.26575756072998,7.98035287857056,1.56777262687683,-0.32621616125107,0.26211395859718
468,3968463952,0.415938,-0.064553,0.287074,0.860475,-3.35376930236816,4.26511287689209,7.99083280563354,1.42528915405273,-0.40640956163406,0.27848049998283
469,3968480619,0.415925,-0.064548,0.287079,0.860480,-3.37289690971375,4.25889730453491,7.97899675369263,1.53103125095367,-0.30199933052063,0.18202306330204
470,3968497286,0.415910,-0.064516,0.287069,0.860493,-3.36624217033386,4.29163026809692,7.99951553344727,1.49913060665131,-0.49408179521561,0.27970990538597
471,3968513953,0.415903,-0.064518,0.287074,0.860494,-3.37088871002197,4.27986097335815,8.01684570312500,1.47593820095062,-0.22211332619190,0.21688191592693
472,3968530620,0.415885,-0.064528,0.287077,0.860501,-3.38127279281616,4.28420829772949,8.01086521148682,1.45533275604248,-0.18913696706295,0.21976335346699
473,3968547287,0.415852,-0.064530,0.287065,0.860521,-3.36804628372192,4.27778530120850,7.99435997009277,1.38590967655182,-0.29302209615707,0.29036480188370
474,3968563954,0.415809,-0.064514,0.287056,0.860546,-3.36614584922791,4.27597808837891,7.99795484542847,1.41489028930664,-0.33954754471779,0.46181616187096
475,3968580621,0.415779,-0.064487,0.287055,0.860563,-3.35977220535278,4.26939868927002,8.00584506988525,1.50132036209106,-0.38480520248413,0.41389483213425
476,3968597288,0.415761,-0.064448,0.287052,0.860576,-3.37831044197083,4.28141260147095,7.98821115493774,1.49244570732117,-0.43419933319092,0.46033069491386
477,3968613955,0.415722,-0.064433,0.287054,0.860595,-3.38078117370605,4.28298330307007,7.99271488189697,1.48623442649841,-0.30144864320755,0.43127301335335
478,3968630622,0.415684,-0.064433,0.287061,0.860611,-3.36337614059448,4.26967000961304,7.96620225906372,1.47014963626862,-0.18830455839634,0.41372829675674
479,3968647289,0.415653,-0.064446,0.287077,0.860619,-3.38958835601807,4.27885818481445,8.00225067138672,1.46749877929688,-0.04876657575369,0.41443267464638
480,3968663956,0.415609,-0.064481,0.287061,0.860644,-3.37655830383301,4.27301216125488,8.00803279876709,1.25802528858185,-0.10488399863243,0.28152838349342
481,3968680623,0.415585,-0.064468,0.287043,0.860662,-3.38361740112305,4.25669384002686,8.00508117675781,1.38808667659760,-0.38965880870819,0.29314377903938
482,3968697290,0.415567,-0.064463,0.287029,0.860676,-3.36446404457092,4.27404785156250,7.99943923950195,1.38245165348053,-0.33382308483124,0.26256215572357
483,3968713957,0.415537,-0.064446,0.287033,0.860690,-3.36139106750488,4.27290630340576,7.97405481338501,1.52524280548096,-0.33411768078804,0.35017043352127
484,3968730624,0.415500,-0.064419,0.287043,0.860707,-3.37863707542419,4.29317665100098,8.01222038269043,1.58862149715424,-0.37448331713676,0.40325278043747
485,3968747291,0.415477,-0.064430,0.287002,0.860731,-3.37038826942444,4.25816297531128,7.99059295654297,1.13874697685242,-0.27971628308296,0.32825872302055
486,3968763958,0.415442,-0.064410,0.286985,0.860755,-3.38238739967346,4.24923992156982,7.97952556610107,1.38406550884247,-0.40713948011398,0.40905404090881
487,3968780625,0.415424,-0.064413,0.286967,0.860770,-3.36938619613647,4.26848316192627,7.99716377258301,1.33431279659271,-0.29028153419495,0.25768294930458
488,3968797292,0.415447,-0.064431,0.286951,0.860762,-3.36628961563110,4.28752899169922,7.98408174514771,1.32068681716919,-0.21961607038975,0.01706445962191
489,3968813959,0.415437,-0.064466,0.286932,0.860771,-3.36511778831482,4.25417757034302,7.98049592971802,1.26456952095032,-0.13828296959400,0.08803725242615
490,3968830626,0.415403,-0.064489,0.286954,0.860778,-3.36728024482727,4.27043247222900,7.99565935134888,1.55427467823029,-0.05853782221675,0.23646283149719
491,3968847293,0.415347,-0.064533,0.286988,0.860790,-3.37283182144165,4.27761840820312,7.99032735824585,1.55082976818085,0.12736555933952,0.31560611724854
492,3968863960,0.415304,-0.064567,0.286993,0.860807,-3.38212537765503,4.27772521972656,7.98862886428833,1.39684641361237,-0.03517904132605,0.28534469008446
493,3968880627,0.415237,-0.064603,0.287011,0.860830,-3.37477016448975,4.26109600067139,8.00348949432373,1.44812285900116,0.05054025724530,0.42157861590385
494,3968897294,0.415198,-0.064594,0.287000,0.860854,-3.39324450492859,4.28622245788574,7.99035501480103,1.40207135677338,-0.32922568917274,0.39510792493820
495,3968913961,0.415170,-0.064556,0.287001,0.860870,-3.36900353431702,4.26164484024048,7.99417018890381,1.50495743751526,-0.39542165398598,0.51640969514847
496,3968930628,0.415175,-0.064547,0.286955,0.860883,-3.37336421012878,4.29940176010132,8.00417327880859,1.20247149467468,-0.47543576359749,0.15587250888348
497,3968947295,0.415176,-0.064568,0.286906,0.860898,-3.36798405647278,4.24395179748535,7.99971580505371,1.10501503944397,-0.31335857510567,0.08968926221132
498,3968963962,0.415173,-0.064570,0.286909,0.860898,-3.37756276130676,4.27003383636475,7.98579645156860,1.44073343276978,-0.18414248526096,0.26710844039917
499,3968980629,0.415133,-0.064598,0.286926,0.860910,-3.37072610855103,4.28970384597778,7.98027801513672,1.48239266872406,-0.02615056559443,0.30013599991798
500,3968997296,0.415102,-0.064616,0.286918,0.860926,-3.38597702980042,4.28599262237549,7.98891162872314,1.35455965995789,-0.16696919500828,0.27492028474808
501,3969013963,0.415039,-0.064640,0.286894,0.860962,-3.36015844345093,4.25418949127197,7.98216629028320,1.24177420139313,-0.19361920654774,0.37780654430389
502,3969030630,0.415010,-0.064656,0.286889,0.860977,-3.35390758514404,4.27241325378418,8.00488567352295,1.37729096412659,-0.16832666099072,0.28004282712936
503,3969047297,0.414982,-0.064687,0.286867,0.860995,-3.36846041679382,4.26688337326050,7.98433685302734,1.25501585006714,-0.15884996950626,0.17934653162956
504,3969063964,0.414956,-0.064706,0.286862,0.861008,-3.37592005729675,4.26413202285767,7.99030780792236,1.34941160678864,-0.13325008749962,0.29885542392731
505,3969080631,0.414924,-0.064706,0.286873,0.861020,-3.37660431861877,4.29858827590942,8.00258255004883,1.48766899108887,-0.16308887302876,0.41156408190727
506,3969097298,0.414889,-0.064709,0.286830,0.861051,-3.37339639663696,4.28252649307251,7.99488162994385,1.14014291763306,-0.33378469944000,0.39200878143311
507,3969113965,0.414861,-0.064685,0.286834,0.861065,-3.36881709098816,4.26036739349365,7.96573877334595,1.48412132263184,-0.29975822567940,0.51044183969498
508,3969130632,0.414816,-0.064705,0.286829,0.861087,-3.36300516128540,4.26783370971680,8.00855350494385,1.34092092514038,-0.11720372736454,0.38869196176529
509,3969147299,0.414722,-0.064750,0.286840,0.861125,-3.38002085685730,4.26681280136108,7.99697923660278,1.47360742092133,-0.03314283117652,0.29788208007812
510,3969163966,0.414654,-0.064774,0.286857,0.861150,-3.36918306350708,4.27465486526489,8.00692367553711,1.49161326885223,-0.03647249191999,0.43666455149651
511,3969180633,0.414616,-0.064815,0.286869,0.861162,-3.36644744873047,4.26553201675415,7.99199008941650,1.40704011917114,0.04270277172327,0.27648273110390
512,3969197300,0.414580,-0.064875,0.286856,0.861178,-3.35880851745605,4.24722433090210,7.98593187332153,1.20945084095001,0.07342520356178,0.20853219926357
513,3969213967,0.414566,-0.064874,0.286852,0.861187,-3.38780736923218,4.28356313705444,8.00327491760254,1.46436131000519,-0.30710908770561,0.17800186574459
514,3969230634,0.414557,-0.064891,0.286831,0.861197,-3.38391232490540,4.26213216781616,7.99360513687134,1.30656147003174,-0.25986644625664,0.11760710924864
515,3969247301,0.414543,-0.064886,0.286826,0.861205,-3.38879346847534,4.29522991180420,8.00189113616943,1.44620180130005,-0.30257561802864,0.23610424995422
516,3969263968,0.414492,-0.064885,0.286819,0.861232,-3.38301730155945,4.28638935089111,7.99154996871948,1.39985561370850,-0.26288872957230,0.42844280600548
517,3969280635,0.414417,-0.064910,0.286786,0.861278,-3.37391972541809,4.26689052581787,7.97276926040649,1.17258143424988,-0.20775739848614,0.44215840101242
518,3969297302,0.414425,-0.064917,0.286753,0.861284,-3.35521149635315,4.26325225830078,7.98868179321289,1.19632446765900,-0.27360767126083,0.22003231942654
519,3969313969,0.414425,-0.064940,0.286725,0.861292,-3.36328363418579,4.23598670959473,7.97839641571045,1.20813179016113,-0.20217384397984,0.14539687335491
520,3969330636,0.414405,-0.064957,0.286752,0.861291,-3.36567401885986,4.26076793670654,8.01872634887695,1.59803378582001,-0.07910481095314,0.18909214437008
521,3969347303,0.414410,-0.064963,0.286734,0.861294,-3.38742280006409,4.30446624755859,8.01091957092285,1.34115147590637,-0.29676157236099,0.11823463439941
522,3969363970,0.414381,-0.064977,0.286686,0.861323,-3.38570141792297,4.25906848907471,8.00101089477539,1.15612518787384,-0.38410085439682,0.15852339565754
523,3969380637,0.414371,-0.064958,0.286685,0.861330,-3.38516473770142,4.26977634429932,7.99215555191040,1.48900067806244,-0.34632211923599,0.30208259820938
524,3969397304,0.414343,-0.064963,0.286692,0.861341,-3.35822296142578,4.28217697143555,8.00395107269287,1.48841166496277,-0.20696341991425,0.28019651770592
525,3969413971,0.414298,-0.064975,0.286700,0.861359,-3.35923838615417,4.27031183242798,7.99307298660278,1.45118355751038,-0.12498997151852,0.38969075679779
526,3969430638,0.414261,-0.064976,0.286689,0.861380,-3.37872123718262,4.26822376251221,8.00336551666260,1.37788009643555,-0.27422237396240,0.35497280955315
527,3969447305,0.414238,-0.064960,0.286679,0.861396,-3.37039709091187,4.27039766311646,7.99616050720215,1.41174006462097,-0.34565618634224,0.36790722608566
528,3969463972,0.414233,-0.064943,0.286652,0.861408,-3.37564659118652,4.28319740295410,7.99183464050293,1.33067584037781,-0.43863031268120,0.24485102295876
529,3969480639,0.414205,-0.064911,0.286635,0.861430,-3.36195802688599,4.26389217376709,8.00174331665039,1.43037319183350,-0.50028008222580,0.37746077775955
530,3969497306,0.414184,-0.064906,0.286613,0.861448,-3.35933375358582,4.26735925674438,8.00468063354492,1.29895424842834,-0.30727553367615,0.35604849457741
531,3969513973,0.414145,-0.064934,0.286623,0.861461,-3.36858701705933,4.27250909805298,7.99871683120728,1.44141232967377,-0.05365860462189,0.28399997949600
532,3969530640,0.414120,-0.064949,0.286626,0.861471,-3.37519288063049,4.27825593948364,7.98636913299561,1.41656804084778,-0.13136753439903,0.29525679349899
533,3969547307,0.414099,-0.064952,0.286604,0.861488,-3.37901163101196,4.26660776138306,7.97812938690186,1.30759871006012,-0.30196094512939,0.26125594973564
534,3969563974,0.414055,-0.064963,0.286604,0.861508,-3.37036418914795,4.26035499572754,7.97881364822388,1.41348171234131,-0.16516350209713,0.38006046414375
535,3969580641,0.414016,-0.064979,0.286587,0.861532,-3.37795662879944,4.29055976867676,7.99460029602051,1.29831409454346,-0.21174018085003,0.31196904182434
536,3969597308,0.413986,-0.064986,0.286577,0.861549,-3.35935354232788,4.24910545349121,7.98806762695312,1.33333957195282,-0.18516699969769,0.39530000090599
537,3969613975,0.413936,-0.065017,0.286571,0.861573,-3.35635566711426,4.27855825424194,8.01007843017578,1.30780339241028,-0.06035632267594,0.37195402383804
538,3969630642,0.413918,-0.065035,0.286537,0.861591,-3.38455438613892,4.26895141601562,8.02163887023926,1.20683825016022,-0.26794725656509,0.18808045983315
539,3969647309,0.413910,-0.065033,0.286491,0.861610,-3.36600804328918,4.25189447402954,7.98926687240601,1.22128391265869,-0.48496365547180,0.09401781857014
540,3969663976,0.413888,-0.064989,0.286495,0.861623,-3.35554242134094,4.26854562759399,8.00218582153320,1.61557853221893,-0.51231795549393,0.34669989347458
541,3969680643,0.413863,-0.064984,0.286505,0.861632,-3.36620306968689,4.29559135437012,7.98107957839966,1.54333817958832,-0.26340103149414,0.26750546693802
542,3969697310,0.413841,-0.065018,0.286468,0.861652,-3.36507201194763,4.26475191116333,7.98686122894287,1.10260748863220,-0.13570888340473,0.26937514543533
543,3969713977,0.413806,-0.065073,0.286461,0.861667,-3.36808800697327,4.26670980453491,8.01262187957764,1.26091969013214,0.05598295852542,0.20903165638447
544,3969730644,0.413741,-0.065095,0.286451,0.861700,-3.39079046249390,4.24757814407349,8.00287532806396,1.30535769462585,-0.12597607076168,0.45402994751930
545,3969747311,0.413712,-0.065067,0.286476,0.861708,-3.36083006858826,4.30299139022827,8.02480792999268,1.61765336990356,-0.23344695568085,0.54755479097366
546,3969763978,0.413689,-0.065079,0.286438,0.861730,-3.37703776359558,4.26922082901001,8.00341129302979,1.16825282573700,-0.28836059570312,0.28385916352272
547,3969780645,0.413657,-0.065081,0.286459,0.861739,-3.38871431350708,4.25007963180542,8.00280189514160,1.54694950580597,-0.12816596031189,0.38948592543602
548,3969797312,0.413662,-0.065092,0.286472,0.861731,-3.36386561393738,4.27103948593140,8.01537322998047,1.46735799312592,-0.08914500474930,0.23723122477531
549,3969813979,0.413661,-0.065079,0.286465,0.861735,-3.37205982208252,4.26519393920898,7.99078035354614,1.43776237964630,-0.34004700183868,0.24898745119572
550,3969830646,0.413642,-0.065082,0.286461,0.861745,-3.34485483169556,4.25246810913086,7.98033332824707,1.40860235691071,-0.23508617281914,0.28125944733620
551,3969847313,0.413620,-0.065123,0.286466,0.861751,-3.36401176452637,4.27675819396973,8.00746440887451,1.38848376274109,-0.00212585413828,0.16582302749157
552,3969863980,0.413610,-0.065143,0.286459,0.861757,-3.36379909515381,4.28817319869995,8.03050327301025,1.35786366462708,-0.15457265079021,0.18067838251591
553,3969880647,0.413627,-0.065169,0.286408,0.861763,-3.38504886627197,4.26833915710449,8.00909137725830,1.11137974262238,-0.32644665241241,-0.05780785903335
554,3969897314,0.413610,-0.065179,0.286370,0.861783,-3.39755654335022,4.24341249465942,8.01738834381104,1.22287201881409,-0.36049878597260,0.15578284859657
555,3969913981,0.413558,-0.065170,0.286393,0.861801,-3.37491464614868,4.29140901565552,7.99382162094116,1.59026050567627,-0.18906015157700,0.49019506573677
556,3969930648,0.413502,-0.065137,0.286407,0.861826,-3.36536383628845,4.29593992233276,7.98760366439819,1.57540524005890,-0.33016052842140,0.62175470590591
557,3969947315,0.413453,-0.065128,0.286380,0.861859,-3.35955524444580,4.26173591613770,7.98487997055054,1.25100755691528,-0.31750783324242,0.53832137584686
558,3969963982,0.413415,-0.065142,0.286407,0.861867,-3.34905004501343,4.24195814132690,7.98524856567383,1.54264652729034,-0.01969616487622,0.42097672820091
559,3969980649,0.413353,-0.065161,0.286438,0.861886,-3.36208820343018,4.27858591079712,7.99530982971191,1.58370363712311,-0.01695560663939,0.43165719509125
560,3969997316,0.413315,-0.065178,0.286460,0.861895,-3.35631680488586,4.25698471069336,8.00504970550537,1.53926563262939,-0.06407016515732,0.33321484923363
561,3970013983,0.413339,-0.065188,0.286457,0.861884,-3.36338663101196,4.26228284835815,8.01401424407959,1.40419709682465,-0.19466933608055,0.08121147006750
562,3970030650,0.413342,-0.065234,0.286431,0.861888,-3.38415694236755,4.24835252761841,8.00075244903564,1.20541691780090,-0.11000655591488,-0.01279354374856
563,3970047317,0.413330,-0.065262,0.286440,0.861888,-3.38667321205139,4.27661561965942,8.00623416900635,1.48277688026428,-0.11451439559460,0.06470408290625
564,3970063984,0.413329,-0.065290,0.286449,0.861884,-3.37827253341675,4.28680992126465,7.99961328506470,1.43336999416351,-0.05578445643187,0.12947858870029
565,3970080651,0.413298,-0.065326,0.286464,0.861891,-3.36481332778931,4.27775192260742,7.97518253326416,1.45288693904877,0.02011237293482,0.24232818186283
566,3970097318,0.413249,-0.065364,0.286490,0.861903,-3.37547373771667,4.29803657531738,7.97137784957886,1.49678683280945,0.08315803110600,0.34809580445290
567,3970113985,0.413231,-0.065407,0.286479,0.861912,-3.36814880371094,4.25655317306519,7.97904777526855,1.28878629207611,-0.05285180732608,0.12506042420864
568,3970130652,0.413226,-0.065442,0.286459,0.861918,-3.37525558471680,4.23332071304321,8.01236057281494,1.27398216724396,-0.15769739449024,0.03632521256804
569,3970147319,0.413255,-0.065479,0.286424,0.861913,-3.35283970832825,4.23530101776123,7.98903703689575,1.15380728244781,-0.17770090699196,-0.06307127326727
570,3970163986,0.413247,-0.065520,0.286449,0.861906,-3.37976551055908,4.26515626907349,7.98571252822876,1.56144630908966,0.01008500065655,0.00494965445250
571,3970180653,0.413218,-0.065571,0.286455,0.861914,-3.38640260696411,4.29001998901367,8.00591182708740,1.40702724456787,0.00726760318503,0.06428147107363
572,3970197320,0.413187,-0.065622,0.286474,0.861918,-3.39333462715149,4.28765392303467,8.00236511230469,1.43386936187744,0.12411274015903,0.22313144803047
573,3970213987,0.413122,-0.065661,0.286508,0.861935,-3.37901759147644,4.26278686523438,8.00051879882812,1.50626361370087,0.17340438067913,0.50558829307556
574,3970230654,0.413032,-0.065719,0.286564,0.861955,-3.37313485145569,4.25478982925415,7.96043062210083,1.62116241455078,0.32049813866615,0.49810943007469
575,3970247321,0.412979,-0.065770,0.286583,0.861971,-3.37411451339722,4.26211357116699,7.98607587814331,1.40257072448730,0.15012243390083,0.36558926105499
576,3970263988,0.412952,-0.065816,0.286611,0.861971,-3.38553500175476,4.26819849014282,7.99748182296753,1.47622013092041,0.16204516589642,0.27057895064354
577,3970280655,0.412896,-0.065843,0.286632,0.861988,-3.37902808189392,4.26363658905029,8.00431346893311,1.51115572452545,-0.01589267887175,0.36293834447861
578,3970297322,0.412897,-0.065846,0.286630,0.861988,-3.37983036041260,4.27154302597046,7.99449348449707,1.41893720626831,-0.22367569804192,0.21069645881653
579,3970313989,0.412870,-0.065867,0.286630,0.862000,-3.36760234832764,4.26511144638062,8.00349330902100,1.39976596832275,-0.13127788901329,0.24856485426426
580,3970330656,0.412837,-0.065891,0.286626,0.862015,-3.38507199287415,4.26253652572632,7.99343252182007,1.36895406246185,-0.12003391981125,0.26746702194214
581,3970347323,0.412789,-0.065912,0.286634,0.862033,-3.37825536727905,4.27030086517334,7.97587299346924,1.44976210594177,-0.09588114917278,0.33199822902679
582,3970363990,0.412795,-0.065926,0.286646,0.862026,-3.38050699234009,4.27468776702881,7.99651861190796,1.43603348731995,-0.05974161624908,0.26271584630013
583,3970380657,0.412763,-0.065906,0.286627,0.862049,-3.40090537071228,4.27769136428833,7.97567367553711,1.40417146682739,-0.45165431499481,0.32661953568459
584,3970397324,0.412747,-0.065885,0.286611,0.862064,-3.38310551643372,4.26870441436768,7.99672317504883,1.37881493568420,-0.39131084084511,0.37071183323860
585,3970413991,0.412738,-0.065889,0.286591,0.862074,-3.37370681762695,4.26566839218140,7.98858642578125,1.29935145378113,-0.26488655805588,0.26121750473976
586,3970430658,0.412690,-0.065898,0.286586,0.862098,-3.38821959495544,4.25541448593140,8.00133705139160,1.39628267288208,-0.21401971578598,0.36780476570129
587,3970447325,0.412604,-0.065946,0.286618,0.862125,-3.35944128036499,4.27406883239746,7.98201847076416,1.55001020431519,0.11544283479452,0.37443846464157
588,3970463992,0.412560,-0.065979,0.286636,0.862137,-3.39332246780396,4.28163623809814,8.00315284729004,1.47541308403015,0.01401654910296,0.31048354506493
589,3970480659,0.412547,-0.066000,0.286611,0.862150,-3.38687682151794,4.26551437377930,7.98166084289551,1.18665552139282,-0.14256028831005,0.32004988193512
590,3970497326,0.412463,-0.066044,0.286643,0.862176,-3.37794899940491,4.25774574279785,7.98559570312500,1.53273439407349,0.11800411343575,0.43143954873085
591,3970513993,0.412425,-0.066046,0.286637,0.862196,-3.38082575798035,4.28511810302734,7.99918889999390,1.39733278751373,-0.23388232290745,0.37664109468460
592,3970530660,0.412384,-0.066064,0.286632,0.862216,-3.37936162948608,4.23774433135986,8.00115966796875,1.36051452159882,-0.14436598122120,0.34313973784447
593,3970547327,0.412346,-0.066104,0.286654,0.862224,-3.38154482841492,4.25624799728394,8.01058197021484,1.47815382480621,0.07307943701744,0.28058072924614
594,3970563994,0.412325,-0.066157,0.286656,0.862229,-3.39329266548157,4.26728582382202,7.99983692169189,1.33972990512848,0.05005362257361,0.12877425551414
595,3970580661,0.412279,-0.066168,0.286705,0.862234,-3.39545750617981,4.26245355606079,7.98067760467529,1.74277150630951,-0.02649633958936,0.33267697691917
596,3970597328,0.412240,-0.066167,0.286756,0.862236,-3.39331316947937,4.27949094772339,7.97743272781372,1.77109909057617,-0.08495733886957,0.36990505456924
597,3970613995,0.412191,-0.066204,0.286789,0.862246,-3.38020396232605,4.29501342773438,7.98172187805176,1.53956031799316,0.11318893730640,0.36701080203056
598,3970630662,0.412148,-0.066232,0.286777,0.862268,-3.38613772392273,4.27503061294556,7.98266649246216,1.29882633686066,-0.11402773112059,0.31004813313484
599,3970647329,0.412119,-0.066249,0.286780,0.862280,-3.37428331375122,4.25018310546875,7.98166418075562,1.45781719684601,-0.17972432076931,0.20010562241077
600,3970663996,0.412131,-0.066252,0.286741,0.862287,-3.39491724967957,4.26979160308838,8.00341033935547,1.24375915527344,-0.42369812726974,0.00638396572322
601,3970680663,0.412115,-0.066249,0.286732,0.862298,-3.39234590530396,4.25935602188110,7.98028039932251,1.44451141357422,-0.33938106894493,0.18664613366127
602,3970697330,0.412069,-0.066232,0.286762,0.862311,-3.38075470924377,4.29732561111450,7.98711299896240,1.68127536773682,-0.24205283820629,0.43384712934494
603,3970713997,0.411991,-0.066208,0.286783,0.862343,-3.39553499221802,4.29802036285400,7.98181867599487,1.61287665367126,-0.28045907616615,0.63517576456070
604,3970730664,0.411965,-0.066197,0.286747,0.862368,-3.36890649795532,4.27653598785400,7.96999692916870,1.21984958648682,-0.38221827149391,0.41150000691414
605,3970747331,0.411956,-0.066188,0.286748,0.862373,-3.38773465156555,4.24021530151367,7.98676204681396,1.40625882148743,-0.20832088589668,0.42193722724915
606,3970763998,0.411943,-0.066152,0.286702,0.862397,-3.40418314933777,4.25853586196899,8.00614547729492,1.26666975021362,-0.62548774480820,0.29624289274216
607,3970780665,0.411905,-0.066112,0.286695,0.862421,-3.35861754417419,4.25477981567383,7.99201631546021,1.51315355300903,-0.50878351926804,0.43603703379631
608,3970797332,0.411898,-0.066102,0.286687,0.862427,-3.39719843864441,4.28995323181152,8.01225662231445,1.42640328407288,-0.32150340080261,0.26441907882690
609,3970813999,0.411877,-0.066107,0.286667,0.862444,-3.38483619689941,4.26411819458008,7.98165369033813,1.31185054779053,-0.29315018653870,0.24944849312305
610,3970830666,0.411869,-0.066131,0.286659,0.862449,-3.38422727584839,4.27175951004028,7.96859979629517,1.36832654476166,-0.16328096389771,0.11436711996794
611,3970847333,0.411839,-0.066171,0.286665,0.862458,-3.39273571968079,4.26966762542725,7.97432279586792,1.36319112777710,0.03147160634398,0.25878432393074
612,3970864000,0.411820,-0.066185,0.286677,0.862462,-3.39021158218384,4.28338098526001,7.99339103698730,1.46215856075287,-0.08739052712917,0.31882047653198
613,3970880667,0.411748,-0.066215,0.286688,0.862490,-3.37172484397888,4.26362371444702,7.99425840377808,1.44470357894897,-0.03642126172781,0.39957731962204
614,3970897334,0.411701,-0.066272,0.286712,0.862500,-3.36733889579773,4.27536201477051,7.97843027114868,1.43604648113251,0.19169183075428,0.30440053343773
615,3970914001,0.411702,-0.066300,0.286715,0.862496,-3.38786101341248,4.25083017349243,7.99418640136719,1.31340003013611,0.03558244556189,0.31807771325111
616,3970930668,0.411703,-0.066287,0.286658,0.862516,-3.38859105110168,4.27417230606079,7.99682331085205,1.13617289066315,-0.52818506956100,0.18699190020561
617,3970947335,0.411690,-0.066286,0.286629,0.862532,-3.36910629272461,4.23636627197266,7.98604249954224,1.30758595466614,-0.39671510457993,0.16364593803883
618,3970964002,0.411691,-0.066259,0.286649,0.862527,-3.40286731719971,4.29845046997070,8.02667713165283,1.64486670494080,-0.32693326473236,0.27043807506561
619,3970980669,0.411624,-0.066288,0.286622,0.862566,-3.38231611251831,4.30497121810913,7.99221277236938,1.24706327915192,-0.22285610437393,0.29188874363899
620,3970997336,0.411611,-0.066306,0.286609,0.862575,-3.38903427124023,4.25876617431641,7.97861146926880,1.28018045425415,-0.13552962243557,0.30020007491112
621,3971014003,0.411554,-0.066318,0.286632,0.862593,-3.37208867073059,4.25705623626709,7.98441600799561,1.54446518421173,-0.07069104909897,0.45199376344681
622,3971030670,0.411528,-0.066336,0.286662,0.862594,-3.37616586685181,4.28120183944702,7.99279880523682,1.53528273105621,0.03554401919246,0.40459737181664
623,3971047337,0.411477,-0.066352,0.286679,0.862612,-3.38958263397217,4.27238368988037,7.99450588226318,1.49833643436432,-0.08038545399904,0.39611962437630
624,3971064004,0.411413,-0.066367,0.286707,0.862632,-3.38053965568542,4.26471519470215,7.99564886093140,1.57719814777374,-0.05146872252226,0.44706329703331
625,3971080671,0.411369,-0.066343,0.286732,0.862647,-3.38713860511780,4.28028440475464,7.98829126358032,1.65899240970612,-0.28715682029724,0.46117585897446
626,3971097338,0.411340,-0.066347,0.286695,0.862672,-3.37850189208984,4.25980901718140,7.98608207702637,1.20309913158417,-0.33420732617378,0.31449198722839
627,3971114005,0.411295,-0.066343,0.286728,0.862683,-3.39772963523865,4.27236413955688,7.98297023773193,1.66307759284973,-0.15676254034042,0.40064027905464
628,3971130672,0.411267,-0.066358,0.286723,0.862697,-3.39275479316711,4.28068542480469,8.00244426727295,1.38953387737274,-0.18193982541561,0.25640234351158
629,3971147339,0.411193,-0.066355,0.286732,0.862729,-3.39264822006226,4.25096893310547,7.96914196014404,1.55140590667725,-0.27965226769447,0.42050287127495
630,3971164006,0.411136,-0.066346,0.286760,0.862748,-3.38126635551453,4.28367853164673,7.97777128219604,1.63873243331909,-0.19180069863796,0.48330521583557
631,3971180673,0.411116,-0.066343,0.286760,0.862758,-3.39266490936279,4.27199888229370,7.98152685165405,1.40599000453949,-0.19655187427998,0.40390589833260
632,3971197340,0.411080,-0.066342,0.286757,0.862776,-3.40875959396362,4.26117897033691,7.97583007812500,1.42283034324646,-0.24967257678509,0.36885491013527
633,3971214007,0.411039,-0.066364,0.286778,0.862787,-3.38085341453552,4.24530887603760,8.00023746490479,1.51857054233551,-0.04080103337765,0.31964007019997
634,3971230674,0.410982,-0.066386,0.286796,0.862806,-3.39099431037903,4.28477573394775,8.00098896026611,1.57342016696930,-0.14115157723427,0.22606408596039
635,3971247341,0.410948,-0.066412,0.286757,0.862833,-3.37819385528564,4.25713539123535,8.00062370300293,1.13886237144470,-0.21854037046432,0.27393424510956
636,3971264008,0.410912,-0.066414,0.286770,0.862846,-3.38357353210449,4.26771020889282,7.98769712448120,1.57271587848663,-0.24535685777664,0.23059751093388
637,3971280675,0.410911,-0.066404,0.286767,0.862848,-3.39712548255920,4.29393672943115,7.99090242385864,1.47459363937378,-0.33593621850014,0.18600583076477
638,3971297342,0.410898,-0.066404,0.286734,0.862866,-3.40449142456055,4.26293325424194,7.98858880996704,1.25315904617310,-0.38015651702881,0.21097819507122
639,3971314009,0.410879,-0.066414,0.286733,0.862874,-3.37222146987915,4.27088022232056,7.95674991607666,1.44589447975159,-0.21611997485161,0.19158938527107
640,3971330676,0.410824,-0.066423,0.286745,0.862896,-3.39068531990051,4.28776407241821,7.99007272720337,1.54538714885712,-0.21466004848480,0.29117158055305
641,3971347343,0.410775,-0.066424,0.286758,0.862915,-3.37315940856934,4.28116559982300,7.99836969375610,1.51964628696442,-0.17976272106171,0.42160418629646
642,3971364010,0.410731,-0.066423,0.286768,0.862932,-3.39261102676392,4.28863096237183,7.98770046234131,1.51387071609497,-0.21323852241039,0.37609049677849
643,3971380677,0.410692,-0.066467,0.286782,0.862943,-3.40007972717285,4.25798273086548,7.99562120437622,1.45720255374908,0.01863964274526,0.17117607593536
644,3971397344,0.410676,-0.066486,0.286818,0.862937,-3.40011262893677,4.27552509307861,8.00086498260498,1.63850188255310,-0.02586882561445,0.21152886748314
645,3971414011,0.410649,-0.066506,0.286844,0.862940,-3.38877034187317,4.28280687332153,7.96839570999146,1.53040361404419,-0.01057804469019,0.33131945133209
646,3971430678,0.410617,-0.066490,0.286841,0.862957,-3.38462853431702,4.28834819793701,7.98283481597900,1.45484626293182,-0.32178512215614,0.40868261456490
647,3971447345,0.410585,-0.066493,0.286821,0.862979,-3.38505864143372,4.26577091217041,8.00478267669678,1.32294070720673,-0.30516251921654,0.29784366488457
648,3971464012,0.410549,-0.066491,0.286842,0.862989,-3.37829732894897,4.26458883285522,8.00451564788818,1.58413898944855,-0.17837963998318,0.36430859565735
649,3971480679,0.410518,-0.066495,0.286863,0.862996,-3.38407683372498,4.30370283126831,7.98428535461426,1.57201147079468,-0.15467509627342,0.31666901707649
650,3971497346,0.410483,-0.066514,0.286865,0.863011,-3.40347862243652,4.26309442520142,7.99266719818115,1.42023062705994,-0.13912819325924,0.26940077543259
651,3971514013,0.410447,-0.066525,0.286894,0.863018,-3.38201832771301,4.26899385452271,7.98617219924927,1.56946301460266,-0.03216954693198,0.40954065322876
652,3971530680,0.410425,-0.066523,0.286909,0.863024,-3.38537478446960,4.29605054855347,7.99251842498779,1.50908088684082,-0.15972077846527,0.38942185044289
653,3971547347,0.410387,-0.066501,0.286870,0.863056,-3.37834191322327,4.25554752349854,7.97226381301880,1.25236511230469,-0.49340310692787,0.40846496820450
654,3971564014,0.410362,-0.066495,0.286857,0.863073,-3.36630034446716,4.25391292572021,7.98164653778076,1.41240608692169,-0.36663299798965,0.23776911199093
655,3971580681,0.410336,-0.066478,0.286880,0.863079,-3.39922928810120,4.27545499801636,8.00316905975342,1.66593313217163,-0.29545527696609,0.28643321990967
656,3971597348,0.410303,-0.066469,0.286857,0.863103,-3.39899611473083,4.27906179428101,7.99241256713867,1.34076714515686,-0.39102908968925,0.32421192526817
657,3971614015,0.410296,-0.066491,0.286866,0.863101,-3.38614511489868,4.27951478958130,7.99956703186035,1.46037852764130,-0.09699530154467,0.15593652427197
658,3971630682,0.410267,-0.066530,0.286871,0.863111,-3.40722274780273,4.26857185363770,7.98935747146606,1.38181149959564,-0.00332965119742,0.22136418521404
659,3971647349,0.410229,-0.066546,0.286892,0.863120,-3.38057804107666,4.27521610260010,7.96633243560791,1.53443765640259,-0.08012932538986,0.31816735863686
660,3971664016,0.410200,-0.066573,0.286893,0.863132,-3.38358736038208,4.29000854492188,7.99349164962769,1.39962494373322,-0.09417788684368,0.23177570104599
661,3971680683,0.410148,-0.066599,0.286885,0.863157,-3.40149497985840,4.26999711990356,7.98783349990845,1.33354437351227,-0.12889592349529,0.32734951376915
662,3971697350,0.410121,-0.066590,0.286886,0.863170,-3.38598752021790,4.29274368286133,7.99162578582764,1.41286706924438,-0.20423568785191,0.49363997578621
663,3971714017,0.410130,-0.066621,0.286872,0.863169,-3.37283039093018,4.25618553161621,7.97714042663574,1.24395120143890,-0.06862922757864,0.17267441749573
664,3971730684,0.410083,-0.066653,0.286871,0.863189,-3.38318371772766,4.25980234146118,7.99633407592773,1.34645318984985,-0.04256830736995,0.33379110693932
665,3971747351,0.410061,-0.066713,0.286873,0.863194,-3.38252544403076,4.26789283752441,7.99559545516968,1.33508121967316,0.07736956328154,0.08949717879295
666,3971764018,0.410011,-0.066785,0.286883,0.863208,-3.39236164093018,4.26506567001343,7.98639106750488,1.37178421020508,0.15383628010750,0.11514830589294
667,3971780685,0.409972,-0.066836,0.286918,0.863211,-3.39348888397217,4.29318714141846,7.98833942413330,1.58004117012024,0.11548126488924,0.14722822606564
668,3971797352,0.409952,-0.066889,0.286916,0.863218,-3.38715386390686,4.28304767608643,8.00492000579834,1.29682862758636,0.06557492166758,0.16552847623825
669,3971814019,0.409914,-0.066925,0.286943,0.863224,-3.38195514678955,4.25325870513916,7.96181583404541,1.50958049297333,0.07601208239794,0.30810153484344
670,3971830686,0.409852,-0.066979,0.287009,0.863227,-3.36818265914917,4.26053476333618,7.97292041778564,1.71407222747803,0.31296795606613,0.35928851366043
671,3971847353,0.409844,-0.067054,0.287044,0.863214,-3.39783334732056,4.28582525253296,7.96957683563232,1.38715183734894,0.41345942020416,0.25846418738365
672,3971864020,0.409784,-0.067133,0.287112,0.863213,-3.40204763412476,4.25461339950562,7.99374628067017,1.64493095874786,0.48047503829002,0.32578712701797
673,3971880687,0.409713,-0.067246,0.287195,0.863210,-3.39768743515015,4.27058029174805,7.99051523208618,1.66921162605286,0.70995193719864,0.26320248842239
674,3971897354,0.409610,-0.067400,0.287384,0.863185,-3.37507295608521,4.25689268112183,8.00015068054199,2.19369554519653,1.35277938842773,0.40259960293770
675,3971914021,0.409495,-0.067550,0.287580,0.863162,-3.41369009017944,4.28905248641968,7.96598672866821,2.24047732353210,1.35695445537567,0.46494096517563
676,3971930688,0.409505,-0.067580,0.287517,0.863176,-3.42594432830811,4.31636381149292,7.99048757553101,0.98970669507980,-0.29001256823540,0.04663432016969
677,3971947355,0.409476,-0.067582,0.287439,0.863215,-3.38704299926758,4.21577692031860,7.98801422119141,1.00344800949097,-0.55649995803833,0.18157483637333
678,3971964022,0.409457,-0.067569,0.287509,0.863202,-3.41064047813416,4.27522373199463,7.97756862640381,1.96866250038147,-0.14953973889351,0.20791746675968
679,3971980689,0.409433,-0.067565,0.287506,0.863215,-3.38897037506104,4.30085134506226,7.97606372833252,1.45811152458191,-0.30237072706223,0.25621017813683
680,3971997356,0.409406,-0.067578,0.287495,0.863230,-3.42710685729980,4.30228042602539,7.97276020050049,1.35155022144318,-0.21109989285469,0.26543080806732
681,3972014023,0.409376,-0.067576,0.287473,0.863252,-3.40890026092529,4.25527477264404,7.98115825653076,1.30638217926025,-0.32101678848267,0.34068092703819
682,3972030690,0.409369,-0.067536,0.287432,0.863272,-3.41801214218140,4.28739547729492,7.98433208465576,1.32050764560699,-0.64167493581772,0.26687791943550
683,3972047357,0.409387,-0.067488,0.287394,0.863280,-3.40104460716248,4.25568675994873,7.96173286437988,1.31453955173492,-0.62920159101486,0.27531731128693
684,3972064024,0.409385,-0.067449,0.287377,0.863290,-3.40558195114136,4.28346252441406,7.98599958419800,1.47906303405762,-0.58110100030899,0.21118313074112
685,3972080691,0.409367,-0.067437,0.287365,0.863303,-3.37857460975647,4.26426601409912,7.99346065521240,1.41822004318237,-0.37270322442055,0.25437894463539
686,3972097358,0.409330,-0.067417,0.287359,0.863324,-3.40558195114136,4.26852464675903,7.98381567001343,1.49327802658081,-0.41724371910095,0.33151158690453
687,3972114025,0.409292,-0.067416,0.287383,0.863335,-3.40038442611694,4.29127788543701,7.96033143997192,1.62059879302979,-0.19692325592041,0.31249415874481
688,3972130692,0.409279,-0.067416,0.287339,0.863355,-3.41541385650635,4.29822254180908,7.98314523696899,1.17866444587708,-0.40138942003250,0.22265759110451
689,3972147359,0.409247,-0.067388,0.287274,0.863394,-3.40011358261108,4.25386810302734,7.96077394485474,1.16993045806885,-0.69757461547852,0.24554252624512
690,3972164026,0.409217,-0.067341,0.287290,0.863407,-3.39624118804932,4.27044534683228,7.97754716873169,1.69436347484589,-0.49794933199883,0.38712954521179
691,3972180693,0.409199,-0.067315,0.287259,0.863428,-3.38634109497070,4.29623174667358,7.98449611663818,1.31990563869476,-0.49663025140762,0.33622431755066
692,3972197360,0.409209,-0.067337,0.287233,0.863430,-3.40838861465454,4.25559186935425,7.96573781967163,1.22298717498779,-0.19817826151848,0.10797674953938
693,3972214027,0.409194,-0.067388,0.287255,0.863426,-3.39716696739197,4.26390218734741,7.98523569107056,1.46749866008759,0.10905247181654,0.10796392709017
694,3972230694,0.409185,-0.067413,0.287308,0.863410,-3.40354967117310,4.28524732589722,7.96719598770142,1.71057629585266,0.09339030832052,0.21393649280071
695,3972247361,0.409161,-0.067439,0.287342,0.863408,-3.39661550521851,4.31492519378662,7.97178125381470,1.56966793537140,0.04899069666862,0.30045619606972
696,3972264028,0.409134,-0.067422,0.287298,0.863437,-3.41977906227112,4.29903221130371,7.99364471435547,1.24574410915375,-0.52310091257095,0.27201324701309
697,3972280695,0.409121,-0.067404,0.287274,0.863453,-3.38733077049255,4.25376605987549,7.96060848236084,1.30211758613586,-0.38394716382027,0.38047024607658
698,3972297362,0.409100,-0.067412,0.287271,0.863463,-3.38310694694519,4.27455997467041,7.99054336547852,1.41175282001495,-0.21645294129848,0.25574922561646
699,3972314029,0.409102,-0.067448,0.287255,0.863464,-3.40109181404114,4.27757215499878,7.96657323837280,1.27441763877869,-0.10361618548632,0.06643294543028
700,3972330696,0.409086,-0.067464,0.287255,0.863471,-3.41678977012634,4.28306198120117,7.97249078750610,1.40436339378357,-0.14188154041767,0.23967726528645
701,3972347363,0.409069,-0.067474,0.287246,0.863481,-3.39523220062256,4.28377103805542,7.98432254791260,1.33528614044189,-0.18258014321327,0.29930362105370
702,3972364030,0.409018,-0.067452,0.287260,0.863502,-3.40520739555359,4.29685020446777,7.97953081130981,1.57239556312561,-0.30037292838097,0.51756215095520
703,3972380697,0.408994,-0.067440,0.287213,0.863530,-3.39867091178894,4.29013442993164,7.97598171234131,1.18251919746399,-0.46891736984253,0.31432548165321
704,3972397364,0.408961,-0.067437,0.287164,0.863563,-3.37998056411743,4.23979902267456,7.97990083694458,1.13340699672699,-0.41172417998314,0.35959592461586
705,3972414031,0.408946,-0.067419,0.287151,0.863575,-3.40803980827332,4.26148986816406,7.99170351028442,1.44424259662628,-0.42419755458832,0.24225133657455
706,3972430698,0.408930,-0.067389,0.287151,0.863585,-3.39394235610962,4.27602291107178,7.98734378814697,1.54224932193756,-0.44302287697792,0.29054406285286
707,3972447365,0.408905,-0.067403,0.287130,0.863603,-3.38415265083313,4.28190517425537,7.97353839874268,1.28361248970032,-0.23903052508831,0.25848978757858
708,3972464032,0.408879,-0.067421,0.287104,0.863622,-3.40219306945801,4.27794599533081,7.98704433441162,1.23366773128510,-0.21311047673225,0.27075827121735
709,3972480699,0.408893,-0.067424,0.287067,0.863628,-3.40070724487305,4.28076601028442,7.99292802810669,1.17007124423981,-0.31006729602814,0.20356331765652
710,3972497366,0.408887,-0.067422,0.287010,0.863650,-3.41884160041809,4.27588319778442,7.96676778793335,1.13721024990082,-0.49650219082832,0.12678927183151
711,3972514033,0.408886,-0.067393,0.286969,0.863666,-3.41070842742920,4.27679157257080,7.98361110687256,1.25350475311279,-0.54019749164581,0.28140032291412
712,3972530700,0.408888,-0.067381,0.286902,0.863688,-3.40039849281311,4.26899480819702,7.96458911895752,1.04987108707428,-0.52470177412033,0.22936810553074
713,3972547367,0.408842,-0.067371,0.286868,0.863722,-3.38414454460144,4.26960515975952,7.96858453750610,1.25583553314209,-0.41652652621269,0.41509860754013
714,3972564034,0.408822,-0.067379,0.286839,0.863741,-3.37773060798645,4.24809932708740,7.96850728988647,1.23450016975403,-0.28343015909195,0.26855555176735
715,3972580701,0.408788,-0.067388,0.286804,0.863768,-3.39362931251526,4.25700950622559,8.00307464599609,1.23069667816162,-0.33520624041557,0.26379162073135
716,3972597368,0.408769,-0.067428,0.286800,0.863775,-3.38527250289917,4.26342201232910,7.98085832595825,1.32244133949280,-0.03159326314926,0.16164815425873
717,3972614035,0.408687,-0.067485,0.286791,0.863812,-3.41013288497925,4.31840801239014,8.00765514373779,1.33464574813843,-0.04826713725924,0.17971791327000
718,3972630702,0.408672,-0.067501,0.286765,0.863827,-3.42135930061340,4.29006958007812,7.98638963699341,1.24984216690063,-0.24858404695988,0.20424206554890
719,3972647369,0.408645,-0.067496,0.286730,0.863852,-3.38584065437317,4.29498338699341,7.96783161163330,1.22401177883148,-0.36989861726761,0.35339760780334
720,3972664036,0.408639,-0.067463,0.286692,0.863870,-3.39183688163757,4.27625417709351,7.98170900344849,1.27138245105743,-0.53826367855072,0.35201457142830
721,3972680703,0.408611,-0.067450,0.286653,0.863897,-3.37841486930847,4.26421785354614,7.97120523452759,1.24725532531738,-0.45695620775223,0.31043234467506
722,3972697370,0.408588,-0.067452,0.286619,0.863919,-3.38268423080444,4.26874542236328,7.98408317565918,1.24278581142426,-0.36466082930565,0.25044739246368
723,3972714037,0.408535,-0.067451,0.286619,0.863944,-3.40058946609497,4.26836347579956,7.98612451553345,1.47199392318726,-0.28536388278008,0.35588207840919
724,3972730704,0.408514,-0.067437,0.286593,0.863963,-3.40155696868896,4.25301551818848,7.97664833068848,1.32437503337860,-0.40886837244034,0.31798806786537
725,3972747371,0.408481,-0.067435,0.286562,0.863989,-3.38956975936890,4.26262855529785,7.98297166824341,1.27101099491119,-0.37677565217018,0.29678076505661
726,3972764038,0.408456,-0.067434,0.286556,0.864003,-3.39482927322388,4.25434255599976,7.98057937622070,1.41399383544922,-0.27517002820969,0.30151906609535
727,3972780705,0.408413,-0.067441,0.286542,0.864028,-3.41088533401489,4.28071212768555,8.02621269226074,1.37215554714203,-0.28617072105408,0.28247606754303
728,3972797372,0.408376,-0.067451,0.286521,0.864052,-3.37972140312195,4.26575183868408,7.98933124542236,1.32139122486115,-0.30417641997337,0.24123962223530
729,3972814039,0.408339,-0.067458,0.286504,0.864074,-3.38541913032532,4.26160144805908,7.98627328872681,1.38480830192566,-0.33192780613899,0.19205042719841
730,3972830706,0.408326,-0.067474,0.286462,0.864093,-3.37302160263062,4.27639484405518,7.99239397048950,1.15356397628784,-0.30135902762413,0.18551918864250
731,3972847373,0.408317,-0.067493,0.286465,0.864095,-3.39172220230103,4.27231311798096,7.98388195037842,1.40656626224518,-0.11301604658365,0.21158011257648
732,3972864040,0.408300,-0.067532,0.286450,0.864105,-3.38764715194702,4.26597642898560,7.99981498718262,1.25102019309998,-0.05611742287874,0.18481484055519
733,3972880707,0.408282,-0.067559,0.286446,0.864113,-3.38319873809814,4.27210283279419,8.01194953918457,1.34560799598694,-0.10027371346951,0.21803453564644
734,3972897374,0.408258,-0.067598,0.286420,0.864129,-3.38745880126953,4.26520872116089,7.98566436767578,1.18506753444672,-0.09857047349215,0.20205219089985
735,3972914041,0.408218,-0.067624,0.286425,0.864145,-3.39068484306335,4.26651525497437,7.99291706085205,1.41705453395844,-0.08449628949165,0.27686688303947
736,3972930708,0.408192,-0.067631,0.286439,0.864152,-3.39538097381592,4.28678083419800,7.94826316833496,1.50672483444214,-0.14066495001316,0.32285448908806
737,3972947375,0.408156,-0.067623,0.286402,0.864181,-3.41122722625732,4.27715921401978,7.98008441925049,1.23361647129059,-0.41162171959877,0.37172356247902
738,3972964042,0.408127,-0.067630,0.286374,0.864204,-3.38029026985168,4.23767852783203,7.98817443847656,1.25173735618591,-0.29840075969696,0.28513976931572
739,3972980709,0.408103,-0.067621,0.286385,0.864213,-3.39792680740356,4.27826070785522,7.96595573425293,1.52589571475983,-0.24196319282055,0.35980081558228
740,3972997376,0.408054,-0.067592,0.286351,0.864249,-3.38902282714844,4.28242588043213,8.00431728363037,1.29005408287048,-0.50449335575104,0.50233548879623
741,3973014043,0.408031,-0.067582,0.286289,0.864281,-3.39088511466980,4.28821706771851,8.00682353973389,1.09361743927002,-0.52247345447540,0.27463856339455
742,3973030710,0.408002,-0.067572,0.286263,0.864304,-3.38725876808167,4.24699401855469,8.00458240509033,1.31812560558319,-0.39866170287132,0.32485228776932
743,3973047377,0.407958,-0.067555,0.286299,0.864315,-3.37634444236755,4.27146482467651,7.99609327316284,1.72708368301392,-0.24009345471859,0.39061290025711
744,3973064044,0.407953,-0.067538,0.286304,0.864316,-3.37878966331482,4.28169536590576,7.96866464614868,1.46847200393677,-0.26167213916779,0.39094582200050
745,3973080711,0.407938,-0.067512,0.286266,0.864338,-3.36990976333618,4.25705862045288,7.99039506912231,1.30015838146210,-0.55311906337738,0.25660723447800
746,3973097378,0.407913,-0.067500,0.286211,0.864369,-3.38225507736206,4.26572275161743,7.99304771423340,1.11073946952820,-0.47196516394615,0.36549961566925
747,3973114045,0.407902,-0.067486,0.286189,0.864383,-3.38110589981079,4.27264308929443,8.00366497039795,1.32183945178986,-0.36911743879318,0.32907834649086
748,3973130712,0.407884,-0.067495,0.286172,0.864396,-3.38178205490112,4.26231527328491,8.00179767608643,1.33537566661835,-0.27330029010773,0.21493536233902
749,3973147379,0.407863,-0.067479,0.286155,0.864413,-3.39618420600891,4.26129436492920,7.99640369415283,1.39545035362244,-0.41669297218323,0.28246328234673
750,3973164046,0.407837,-0.067444,0.286146,0.864431,-3.39938569068909,4.27979373931885,7.99728965759277,1.45761227607727,-0.44511023163795,0.44071128964424
751,3973180713,0.407790,-0.067416,0.286133,0.864460,-3.38921093940735,4.28385782241821,7.98436737060547,1.42097342014313,-0.43377664685249,0.49647018313408
752,3973197380,0.407754,-0.067393,0.286110,0.864486,-3.36806106567383,4.25916147232056,7.97631454467773,1.29315316677094,-0.36112624406815,0.56032258272171
753,3973214047,0.407725,-0.067374,0.286089,0.864508,-3.36808204650879,4.26958465576172,7.97404146194458,1.30100357532501,-0.35309672355652,0.49979984760284
754,3973230714,0.407699,-0.067368,0.286067,0.864528,-3.38044500350952,4.24891233444214,7.99927139282227,1.30722725391388,-0.32776567339897,0.35916042327881
755,3973247381,0.407643,-0.067350,0.286059,0.864559,-3.38353157043457,4.26597499847412,7.98870134353638,1.44955706596375,-0.38534304499626,0.45577153563499
756,3973264048,0.407595,-0.067365,0.286064,0.864579,-3.37631797790527,4.27234411239624,7.98264980316162,1.42856764793396,-0.13450510799885,0.38016289472580
757,3973280715,0.407557,-0.067384,0.286037,0.864604,-3.39116120338440,4.27445220947266,7.99382543563843,1.20618510246277,-0.19007182121277,0.35563868284225
758,3973297382,0.407510,-0.067429,0.286027,0.864626,-3.36478757858276,4.23713636398315,7.99257087707520,1.25552821159363,0.01113512087613,0.32825872302055
759,3973314049,0.407503,-0.067421,0.286022,0.864631,-3.39632248878479,4.27577114105225,8.00958156585693,1.39279937744141,-0.25620380043983,0.33455950021744
760,3973330716,0.407459,-0.067389,0.286006,0.864659,-3.38178372383118,4.27047204971313,7.98695564270020,1.43516278266907,-0.48871588706970,0.44096741080284
761,3973347383,0.407427,-0.067366,0.286014,0.864674,-3.37407231330872,4.27500152587891,7.99579238891602,1.53560304641724,-0.33698630332947,0.43575528264046
762,3973364050,0.407412,-0.067365,0.285997,0.864687,-3.36408519744873,4.26452016830444,7.99635314941406,1.28781294822693,-0.23401042819023,0.38155874609947
763,3973380717,0.407406,-0.067399,0.285994,0.864688,-3.37548446655273,4.24730014801025,7.98588752746582,1.34695267677307,-0.05826888978481,0.13369187712669
764,3973397384,0.407395,-0.067443,0.285994,0.864690,-3.37905955314636,4.25215244293213,7.99277639389038,1.33919203281403,0.00822808034718,0.13142517209053
765,3973414051,0.407390,-0.067469,0.286000,0.864688,-3.37929415702820,4.25989389419556,7.98866033554077,1.43915843963623,-0.09349915385246,0.11639050394297
766,3973430718,0.407382,-0.067461,0.285996,0.864694,-3.38757181167603,4.30002689361572,8.01078891754150,1.46956062316895,-0.34566897153854,0.17883427441120
767,3973447385,0.407391,-0.067457,0.285995,0.864690,-3.38187289237976,4.27364206314087,7.96760892868042,1.45834243297577,-0.27774411439896,0.17084312438965
768,3973464052,0.407370,-0.067465,0.285991,0.864701,-3.39133906364441,4.27961826324463,7.99708175659180,1.41497993469238,-0.23001484572887,0.23201902210712
