sep=,
DeviceTag:,A
FirmwareVersion:,3.0.0
AppVersion:,2023.6.0
StartTime: ,2024-03-14_11:50:42_000 EDT
© Movella Technologies B. V. 2005-2024

PacketCounter,SampleTimeFine,Quat_W,Quat_X,Quat_Y,Quat_Z,Acc_X,Acc_Y,Acc_Z,Gyr_X,Gyr_Y,Gyr_Z
0,3304188192,0.805843,-0.057598,0.314848,-0.498167,0.00000000000000,0.00000000000000,0.00000000000000,0.00000000000000,0.00000000000000,0.00000000000000
1,3304204859,0.805834,-0.057628,0.314921,-0.498131,-4.43977499008179,-4.04504156112671,7.90329313278198,0.47165787220001,0.92291510105133,1.09040939807892
2,3304221526,0.805837,-0.057787,0.315056,-0.498023,-4.47949171066284,-4.12580108642578,7.89019346237183,-0.63942754268646,0.73900324106216,1.33880138397217
3,3304238193,0.805850,-0.057793,0.315068,-0.497994,-4.51558876037598,-4.02871704101562,7.91062974929810,0.85885781049728,0.64030468463898,1.10634052753448
4,3304254860,0.805812,-0.058312,0.315374,-0.497802,-4.49698257446289,-4.00490808486938,7.92401075363159,-3.39374017715454,0.53735440969467,0.91036498546600
5,3304271527,0.805791,-0.058782,0.315646,-0.497607,-4.44676446914673,-4.12712621688843,7.88106966018677,-2.96790361404419,0.50708025693893,1.00527286529541
6,3304288194,0.805791,-0.058867,0.315717,-0.497553,-4.46139764785767,-4.09235668182373,7.87828016281128,0.09622690826654,0.66018015146255,1.16455829143524
7,3304304861,0.805797,-0.058977,0.315796,-0.497479,-4.45515251159668,-4.09595680236816,7.89252996444702,-0.06127198040485,0.62875336408615,1.18239748477936
8,3304321528,0.805817,-0.058803,0.315731,-0.497510,-4.45930576324463,-4.11892080307007,7.88430929183960,2.19372749328613,0.79166287183762,1.25945317745209
9,3304338195,0.805840,-0.058557,0.315633,-0.497564,-4.49693202972412,-4.00131654739380,7.88572883605957,2.81045603752136,0.89812219142914,1.21030259132385
10,3304354862,0.805807,-0.058746,0.315770,-0.497507,-4.51647996902466,-4.05996894836426,7.91394567489624,-0.68864232301712,0.77911275625229,0.80491757392883
11,3304371529,0.805762,-0.058817,0.315826,-0.497536,-4.46963262557983,-4.12814950942993,7.89136695861816,0.44618600606918,0.80349600315094,0.48883116245270
12,3304388196,0.805717,-0.058969,0.315903,-0.497543,-4.46230936050415,-4.09212875366211,7.91560220718384,-0.13853268325329,0.62666589021683,0.46512660384178
13,3304404863,0.805735,-0.059018,0.315938,-0.497485,-4.43430089950562,-4.19622993469238,7.85464143753052,0.49429947137833,0.60424196720123,1.18689250946045
14,3304421530,0.805739,-0.058173,0.315476,-0.497871,-4.45051860809326,-4.12126636505127,7.88280057907104,8.06634902954102,1.09271466732025,0.49253231287003
15,3304438197,0.805762,-0.057746,0.315244,-0.498031,-4.52008771896362,-3.94112300872803,7.94107151031494,4.51599359512329,0.83742016553879,0.92820435762405
16,3304454864,0.805722,-0.057901,0.315330,-0.498024,-4.48591136932373,-4.00838565826416,7.91750669479370,-0.22241424024105,0.63310742378235,0.56911414861679
17,3304471531,0.805672,-0.058134,0.315457,-0.497997,-4.48317575454712,-4.06289958953857,7.91578245162964,-0.86079800128937,0.59472680091858,0.53031086921692
18,3304488198,0.805674,-0.058483,0.315666,-0.497819,-4.42975997924805,-4.17068433761597,7.86256217956543,-2.05835843086243,0.50650399923325,1.26453745365143
19,3304504865,0.805714,-0.058029,0.315400,-0.497976,-4.47490978240967,-4.12829494476318,7.87506198883057,4.76127243041992,0.68393582105637,1.08628571033478
20,3304521532,0.805745,-0.057883,0.315304,-0.498004,-4.52954626083374,-3.92580032348633,7.92031860351562,2.18979597091675,0.53006756305695,1.17932379245758
21,3304538199,0.805708,-0.058278,0.315548,-0.497864,-4.47353982925415,-4.03187561035156,7.90636348724365,-2.38137269020081,0.63949787616730,0.85096913576126
22,3304554866,0.805706,-0.058478,0.315667,-0.497767,-4.46620845794678,-4.16629791259766,7.86418247222900,-0.70568752288818,0.60210335254669,1.01679849624634
23,3304571533,0.805722,-0.058415,0.315616,-0.497781,-4.46981191635132,-4.08976888656616,7.88851594924927,1.52675998210907,0.51724839210510,1.05506396293640
24,3304588200,0.805721,-0.058429,0.315633,-0.497770,-4.47946405410767,-4.02491855621338,7.89273118972778,0.82703417539597,0.67329388856888,0.96411335468292
25,3304604867,0.805694,-0.058632,0.315747,-0.497718,-4.46645689010620,-4.11872959136963,7.87120246887207,-0.65438520908356,0.59708327054977,0.73705667257309
26,3304621534,0.805691,-0.058430,0.315608,-0.497834,-4.47855758666992,-4.09142351150513,7.87136316299438,2.82292914390564,0.60244911909103,0.67404937744141
27,3304638201,0.805661,-0.058579,0.315698,-0.497810,-4.46891593933105,-4.03968954086304,7.91527986526489,-0.21676667034626,0.67253828048706,0.68312907218933
28,3304654868,0.805659,-0.058661,0.315773,-0.497755,-4.45604324340820,-4.16310119628906,7.85878181457520,0.13900010287762,0.73449528217316,1.09795236587524
29,3304671535,0.805677,-0.058305,0.315579,-0.497891,-4.46176719665527,-4.05865144729614,7.90334129333496,3.91920399665833,0.77775526046753,0.94814372062683
30,3304688202,0.805672,-0.058234,0.315546,-0.497928,-4.48557233810425,-3.98667573928833,7.92945432662964,1.55292356014252,0.70578354597092,0.87487858533859
31,3304704869,0.805646,-0.058397,0.315617,-0.497906,-4.51391410827637,-4.07012081146240,7.91451501846313,-0.20826323330402,0.51550674438477,0.62615364789963
32,3304721536,0.805605,-0.058403,0.315580,-0.497995,-4.50967645645142,-4.07975149154663,7.92450904846191,1.23906552791595,0.51756858825684,0.29960453510284
33,3304738203,0.805583,-0.058542,0.315658,-0.497965,-4.45020532608032,-4.12613630294800,7.88021659851074,-0.16611754894257,0.58510929346085,0.81991362571716
34,3304754870,0.805582,-0.058443,0.315582,-0.498026,-4.44534349441528,-4.11488723754883,7.86286354064941,1.92531955242157,0.56952399015427,0.78068798780441
35,3304771537,0.805587,-0.058272,0.315475,-0.498106,-4.49163532257080,-3.97914123535156,7.92480802536011,2.48094868659973,0.64994788169861,0.81905573606491
36,3304788204,0.805567,-0.058484,0.315584,-0.498045,-4.47511291503906,-4.01376962661743,7.92725086212158,-0.66920226812363,0.55922764539719,0.71852582693100
37,3304804871,0.805536,-0.058766,0.315735,-0.497966,-4.44117927551270,-4.13813495635986,7.88971614837646,-1.28587913513184,0.52572625875473,0.73744088411331
38,3304821538,0.805559,-0.058745,0.315695,-0.497956,-4.45699071884155,-4.13916397094727,7.86814689636230,1.23049807548523,0.43581286072731,1.07169926166534
39,3304838205,0.805578,-0.058680,0.315638,-0.497970,-4.47097063064575,-4.03672599792480,7.89475536346436,1.55233442783356,0.47968745231628,1.08583760261536
40,3304854872,0.805575,-0.058847,0.315705,-0.497912,-4.51022720336914,-4.03326797485352,7.89055967330933,-0.29165822267532,0.41221079230309,0.90288603305817
41,3304871539,0.805542,-0.058985,0.315773,-0.497906,-4.48398256301880,-4.07836198806763,7.90176963806152,-0.04507194459438,0.59786438941956,0.59497016668320
42,3304888206,0.805524,-0.059193,0.315887,-0.497838,-4.46567296981812,-4.13589429855347,7.88752126693726,-0.72206687927246,0.54744583368301,0.85175037384033
43,3304904873,0.805523,-0.059189,0.315849,-0.497864,-4.45008850097656,-4.12902450561523,7.87288236618042,1.23530042171478,0.49004778265953,0.70746111869812
44,3304921540,0.805514,-0.059094,0.315763,-0.497945,-4.49085664749146,-4.04264354705811,7.87729263305664,1.96651756763458,0.51717162132263,0.64629805088043
45,3304938207,0.805479,-0.059073,0.315762,-0.498005,-4.45730495452881,-4.03992366790771,7.89127826690674,1.17248547077179,0.75487035512924,0.60057938098907
46,3304954874,0.805479,-0.059212,0.315872,-0.497918,-4.44257926940918,-4.14741373062134,7.86696624755859,-0.34488141536713,0.72863012552261,1.15532493591309
47,3304971541,0.805494,-0.059095,0.315813,-0.497944,-4.46421527862549,-4.13542413711548,7.87216567993164,1.89740157127380,0.68278336524963,1.06031465530396
48,3304988208,0.805490,-0.059121,0.315816,-0.497947,-4.50624418258667,-4.01852273941040,7.91180086135864,0.85843521356583,0.58968114852905,0.81251162290573
49,3305004875,0.805445,-0.059461,0.316017,-0.497851,-4.49518585205078,-4.05359268188477,7.90894174575806,-1.82710099220276,0.62410461902618,0.67447203397751
50,3305021542,0.805414,-0.059663,0.316130,-0.497805,-4.44712352752686,-4.11534166336060,7.85034370422363,-0.62240785360336,0.61830341815948,0.67598319053650
51,3305038209,0.805391,-0.059631,0.316130,-0.497847,-4.47180128097534,-4.12566089630127,7.88111782073975,1.22998583316803,0.79884725809097,0.70742273330688
52,3305054876,0.805400,-0.059663,0.316152,-0.497815,-4.47253417968750,-4.10346031188965,7.88171482086182,0.66511058807373,0.60949259996414,1.08012604713440
53,3305071543,0.805399,-0.059727,0.316184,-0.497788,-4.46847391128540,-4.06956481933594,7.90787601470947,0.45458704233170,0.57313543558121,0.97157925367355
54,3305088210,0.805382,-0.059929,0.316312,-0.497710,-4.47991275787354,-4.08155059814453,7.88809394836426,-0.75901317596436,0.63419610261917,0.94371271133423
55,3305104877,0.805352,-0.060001,0.316367,-0.497715,-4.46631431579590,-4.11860370635986,7.88908004760742,0.37270316481590,0.74184614419937,0.69260579347610
56,3305121544,0.805333,-0.060049,0.316406,-0.497714,-4.46365690231323,-4.14589071273804,7.85143327713013,0.57088154554367,0.71168738603592,0.80293256044388
57,3305138211,0.805319,-0.059934,0.316348,-0.497789,-4.47943162918091,-4.14070558547974,7.87686538696289,1.96434044837952,0.75723952054977,0.71501690149307
58,3305154878,0.805310,-0.059787,0.316277,-0.497866,-4.48264217376709,-4.07945251464844,7.89334869384766,2.14347553253174,0.73074311017990,0.86779659986496
59,3305171545,0.805280,-0.059908,0.316352,-0.497852,-4.46361255645752,-4.06138706207275,7.89514875411987,0.01704525016248,0.69103056192398,0.67889016866684
60,3305188212,0.805260,-0.059946,0.316395,-0.497853,-4.46003580093384,-4.11400938034058,7.88142919540405,0.59616118669510,0.76351451873779,0.82396048307419
61,3305204879,0.805251,-0.060023,0.316431,-0.497835,-4.46466779708862,-4.11487102508545,7.88506603240967,0.38191097974777,0.56502896547318,0.86786067485809
62,3305221546,0.805237,-0.059892,0.316365,-0.497915,-4.46637153625488,-4.09184694290161,7.87111330032349,2.08858776092529,0.76004409790039,0.73289459943771
63,3305238213,0.805227,-0.060013,0.316433,-0.497874,-4.48792648315430,-4.12133073806763,7.88016080856323,-0.00767740607262,0.59927314519882,0.88185799121857
64,3305254880,0.805231,-0.059874,0.316372,-0.497923,-4.43882131576538,-4.14166784286499,7.85505771636963,2.06517767906189,0.77866458892822,0.95694172382355
65,3305271547,0.805245,-0.059654,0.316255,-0.498001,-4.48308563232422,-4.05921173095703,7.91088104248047,2.76419949531555,0.72093349695206,1.00196886062622
66,3305288214,0.805223,-0.059666,0.316264,-0.498030,-4.49425983428955,-4.04933547973633,7.88369846343994,0.91861224174500,0.67361402511597,0.72317463159561
67,3305304881,0.805190,-0.059850,0.316352,-0.498005,-4.45792818069458,-4.10085058212280,7.87725734710693,-0.43975082039833,0.51414924860001,0.65577471256256
68,3305321548,0.805156,-0.059991,0.316419,-0.497999,-4.44960641860962,-4.12967205047607,7.87195825576782,-0.07637066394091,0.56499052047729,0.61246365308762
69,3305338215,0.805148,-0.060093,0.316448,-0.497982,-4.46520709991455,-4.14099454879761,7.87629938125610,0.31165531277657,0.48213344812393,0.73171633481979
70,3305354882,0.805151,-0.060016,0.316384,-0.498027,-4.44148540496826,-4.12921571731567,7.86394453048706,1.73191785812378,0.55439966917038,0.82800728082657
71,3305371549,0.805129,-0.059879,0.316298,-0.498135,-4.47945404052734,-4.07805299758911,7.91114711761475,2.21469187736511,0.66768467426300,0.60818630456924
72,3305388216,0.805115,-0.059866,0.316293,-0.498162,-4.47025442123413,-4.03951883316040,7.88209104537964,1.11874997615814,0.68321877717972,0.77852368354797
73,3305404883,0.805065,-0.060149,0.316463,-0.498100,-4.44716405868530,-4.12431573867798,7.85157442092896,-1.32336330413818,0.68113136291504,0.56245487928391
74,3305421550,0.805071,-0.060115,0.316438,-0.498110,-4.46092319488525,-4.18915510177612,7.86583375930786,1.28475880622864,0.60329431295395,0.95723640918732
75,3305438217,0.805075,-0.059898,0.316305,-0.498214,-4.44584941864014,-4.08909606933594,7.91300201416016,2.84733867645264,0.64787328243256,0.82540774345398
76,3305454884,0.805076,-0.059949,0.316344,-0.498182,-4.49078893661499,-4.13649702072144,7.87971830368042,0.47730547189713,0.63694953918457,1.05607569217682
77,3305471551,0.805081,-0.059723,0.316210,-0.498287,-4.44790077209473,-4.09108448028564,7.86843585968018,2.90679812431335,0.67689245939255,0.83450019359589
78,3305488218,0.805067,-0.059673,0.316204,-0.498318,-4.47730350494385,-4.08291959762573,7.91332960128784,1.30902659893036,0.77890777587891,0.88881182670593
79,3305504885,0.805058,-0.059703,0.316201,-0.498332,-4.47722101211548,-4.12760353088379,7.88801908493042,0.99384963512421,0.65878421068192,0.51937437057495
80,3305521552,0.805016,-0.059691,0.316173,-0.498418,-4.48790693283081,-4.10393810272217,7.89195632934570,1.26787984371185,0.59377920627594,0.40638387203217
81,3305538219,0.805006,-0.059776,0.316211,-0.498400,-4.44485712051392,-4.12032508850098,7.88743162155151,0.35659280419350,0.58083206415176,0.80756843090057
82,3305554886,0.804997,-0.059518,0.316077,-0.498530,-4.44048023223877,-4.11338233947754,7.86641836166382,3.14275503158569,0.83855974674225,0.69621717929840
83,3305571553,0.804990,-0.059281,0.315944,-0.498654,-4.47118091583252,-4.02145910263062,7.90885543823242,2.97999906539917,0.73677486181259,0.74526542425156
84,3305588220,0.804972,-0.059430,0.316021,-0.498618,-4.48116254806519,-4.05830287933350,7.90020847320557,-0.17902635037899,0.57640093564987,0.76565319299698
85,3305604887,0.804973,-0.059541,0.316066,-0.498574,-4.46714115142822,-4.12662553787231,7.87952947616577,0.12601448595524,0.48098087310791,0.95216488838196
86,3305621554,0.804977,-0.059648,0.316117,-0.498522,-4.45260143280029,-4.14749145507812,7.88461971282959,0.10359057039022,0.51147288084030,1.02875971794128
87,3305638221,0.804976,-0.059636,0.316106,-0.498532,-4.46187686920166,-4.10869646072388,7.87817573547363,1.10094904899597,0.61519140005112,0.90858495235443
88,3305654888,0.804965,-0.059579,0.316067,-0.498581,-4.48943090438843,-4.03029155731201,7.89292716979980,1.54669952392578,0.66142231225967,0.70776844024658
89,3305671555,0.804909,-0.059809,0.316204,-0.498558,-4.48135614395142,-4.12835597991943,7.87638425827026,-0.84094798564911,0.70445162057877,0.44235691428185
90,3305688222,0.804891,-0.059852,0.316220,-0.498571,-4.43775749206543,-4.17825078964233,7.86153221130371,0.69940596818924,0.60127091407776,0.73861902952194
91,3305704889,0.804892,-0.059697,0.316106,-0.498661,-4.45179176330566,-4.10376119613647,7.87861537933350,2.42863440513611,0.56131511926651,0.72979545593262
92,3305721556,0.804892,-0.059697,0.316121,-0.498652,-4.49474906921387,-4.05161571502686,7.91332530975342,0.91515451669693,0.71167451143265,0.98234951496124
93,3305738223,0.804871,-0.059846,0.316204,-0.498615,-4.48359775543213,-4.05162239074707,7.89175891876221,-0.19865849614143,0.62080067396164,0.75589472055435
94,3305754890,0.804861,-0.060072,0.316344,-0.498515,-4.42594385147095,-4.10789585113525,7.88130950927734,-0.97900056838989,0.59759545326233,1.03450965881348
95,3305771557,0.804867,-0.060181,0.316412,-0.498448,-4.45957136154175,-4.16989469528198,7.85674858093262,0.00361139094457,0.58957874774933,1.12360358238220
96,3305788224,0.804894,-0.060058,0.316313,-0.498482,-4.47292804718018,-4.12821245193481,7.88840675354004,2.09940910339355,0.47036445140839,1.04148912429810
97,3305804891,0.804865,-0.059973,0.316262,-0.498572,-4.47366237640381,-4.08446168899536,7.89527320861816,1.75778663158417,0.68741923570633,0.59171742200851
98,3305821558,0.804854,-0.060047,0.316290,-0.498563,-4.47469997406006,-4.08910989761353,7.85918951034546,0.45768612623215,0.55112129449844,0.80225378274918
99,3305838225,0.804831,-0.060086,0.316300,-0.498589,-4.45335102081299,-4.07710218429565,7.88808631896973,0.76018488407135,0.58997571468353,0.66030812263489
100,3305854892,0.804830,-0.060228,0.316391,-0.498516,-4.47866153717041,-4.14539575576782,7.84946823120117,-0.28846943378448,0.60170638561249,1.09950196743011
101,3305871559,0.804860,-0.060159,0.316363,-0.498493,-4.44842672348022,-4.12798166275024,7.88572072982788,1.42443740367889,0.64112424850464,1.29693722724915
102,3305888226,0.804860,-0.060152,0.316361,-0.498496,-4.47545862197876,-4.06606483459473,7.88725042343140,1.01371228694916,0.61936622858047,0.96557319164276
103,3305904893,0.804837,-0.060226,0.316427,-0.498482,-4.45559930801392,-4.09650373458862,7.86726093292236,0.31912142038345,0.79486447572708,0.77902305126190
104,3305921560,0.804807,-0.060360,0.316496,-0.498471,-4.46239852905273,-4.13532447814941,7.86752891540527,-0.02212297171354,0.61895650625229,0.62144100666046
105,3305938227,0.804787,-0.060515,0.316592,-0.498424,-4.44043302536011,-4.15602350234985,7.87046957015991,-0.31391564011574,0.65446847677231,0.82303845882416
106,3305954894,0.804784,-0.060519,0.316609,-0.498417,-4.46497964859009,-4.15422344207764,7.87120532989502,0.86454391479492,0.68891757726669,1.00499117374420
107,3305971561,0.804765,-0.060298,0.316498,-0.498544,-4.47110891342163,-4.08723402023315,7.87446260452271,2.85562419891357,0.87156182527542,0.60530495643616
108,3305988228,0.804733,-0.060331,0.316500,-0.498591,-4.47267198562622,-4.06605625152588,7.89471006393433,0.90286052227020,0.63278734683990,0.45978641510010
109,3306004895,0.804684,-0.060568,0.316635,-0.498556,-4.44219923019409,-4.11749839782715,7.86695194244385,-0.88528382778168,0.65756773948669,0.49816706776619
110,3306021562,0.804679,-0.060713,0.316735,-0.498482,-4.44120788574219,-4.21425008773804,7.85357189178467,-0.32947537302971,0.66024416685104,1.06055796146393
111,3306038229,0.804700,-0.060566,0.316652,-0.498519,-4.46630430221558,-4.14255571365356,7.87196254730225,2.16146874427795,0.63262087106705,1.10498309135437
112,3306054896,0.804704,-0.060537,0.316658,-0.498511,-4.49335670471191,-4.03167343139648,7.88384151458740,1.09358549118042,0.73884958028793,1.07563102245331
113,3306071563,0.804678,-0.060678,0.316770,-0.498466,-4.45409631729126,-4.13261508941650,7.87735748291016,-0.29712653160095,0.79512065649033,0.84587222337723
114,3306088230,0.804677,-0.060652,0.316798,-0.498453,-4.45770025253296,-4.18858146667480,7.84041213989258,1.00148224830627,0.86205947399139,1.08467221260071
115,3306104897,0.804704,-0.060536,0.316732,-0.498466,-4.47356128692627,-4.11210727691650,7.87425374984741,1.90540552139282,0.62665313482285,1.15136778354645
116,3306121564,0.804710,-0.060655,0.316796,-0.498400,-4.47730970382690,-4.08194780349731,7.90301656723022,-0.07524371147156,0.49826949834824,1.15719461441040
117,3306138231,0.804708,-0.060772,0.316872,-0.498341,-4.44343042373657,-4.12065124511719,7.84113311767578,-0.08436182886362,0.60075867176056,1.08039498329163
118,3306154898,0.804707,-0.060789,0.316918,-0.498311,-4.45866584777832,-4.15054655075073,7.83721351623535,0.67205160856247,0.81105172634125,1.08226466178894
119,3306171565,0.804711,-0.060745,0.316928,-0.498303,-4.46184587478638,-4.13287830352783,7.85304450988770,1.16281640529633,0.81577730178833,1.11151421070099
120,3306188232,0.804712,-0.060669,0.316928,-0.498311,-4.45691967010498,-4.15042877197266,7.88182210922241,1.43515610694885,0.89790427684784,1.04215502738953
121,3306204899,0.804722,-0.060564,0.316898,-0.498327,-4.48573970794678,-4.12992906570435,7.88763904571533,1.71745955944061,0.82019549608231,1.06427180767059
122,3306221566,0.804710,-0.060483,0.316882,-0.498366,-4.48287296295166,-4.08264970779419,7.89074087142944,1.57506561279297,0.86638796329498,0.84299075603485
123,3306238233,0.804691,-0.060613,0.316954,-0.498336,-4.47084999084473,-4.15265655517578,7.88508701324463,-0.03054954484105,0.63811475038528,0.73936176300049
124,3306254900,0.804694,-0.060411,0.316844,-0.498425,-4.44012165069580,-4.12223434448242,7.86464452743530,2.67764115333557,0.73909282684326,0.84124904870987
125,3306271567,0.804690,-0.060393,0.316816,-0.498451,-4.46478986740112,-4.07364463806152,7.87747573852539,1.24047434329987,0.56386363506317,0.79765635728836
126,3306288234,0.804695,-0.060486,0.316881,-0.498391,-4.44269609451294,-4.10371732711792,7.86696004867554,0.09718738496304,0.61802160739899,1.13900947570801
127,3306304901,0.804705,-0.060612,0.316958,-0.498311,-4.47576618194580,-4.14027118682861,7.86780500411987,-0.12969630956650,0.58347010612488,1.13661479949951
128,3306321568,0.804747,-0.060567,0.316961,-0.498247,-4.47223997116089,-4.14891052246094,7.85306787490845,1.12092685699463,0.69977730512619,1.49555099010468
129,3306338235,0.804764,-0.060539,0.316961,-0.498223,-4.49491500854492,-4.08265495300293,7.90783786773682,1.08860373497009,0.67886465787888,1.19855916500092
130,3306354902,0.804741,-0.060744,0.317108,-0.498141,-4.46520423889160,-4.10060262680054,7.88368606567383,-0.84765863418579,0.74568802118301,0.93259680271149
131,3306371569,0.804731,-0.060790,0.317188,-0.498100,-4.43299627304077,-4.16211462020874,7.84719181060791,0.34945967793465,0.90164381265640,1.08166265487671
132,3306388236,0.804728,-0.060488,0.317095,-0.498202,-4.44383811950684,-4.12179803848267,7.87741470336914,3.17845892906189,1.18712294101715,1.00815415382385
133,3306404903,0.804739,-0.060411,0.317126,-0.498174,-4.50032138824463,-4.12502527236938,7.88056278228760,1.22602856159210,1.00698888301849,1.34320664405823
134,3306421570,0.804734,-0.060242,0.317095,-0.498222,-4.47656536102295,-4.11051416397095,7.86873292922974,2.12242174148560,1.05877768993378,1.02913093566895
135,3306438237,0.804705,-0.060258,0.317170,-0.498219,-4.49358129501343,-4.09828853607178,7.90642213821411,0.62891989946365,1.06868982315063,0.82397329807281
136,3306454904,0.804674,-0.060247,0.317168,-0.498272,-4.50550556182861,-4.18353986740112,7.88260126113892,1.15645194053650,0.74447154998779,0.55798542499542
137,3306471571,0.804671,-0.059929,0.317001,-0.498421,-4.47601652145386,-4.10289239883423,7.87452554702759,3.60319423675537,0.83187484741211,0.78550297021866
138,3306488238,0.804668,-0.059904,0.316978,-0.498444,-4.46095895767212,-4.04035139083862,7.88680839538574,1.28400301933289,0.63003396987915,0.78634834289551
139,3306504905,0.804683,-0.060043,0.317027,-0.498371,-4.45789623260498,-4.09729766845703,7.87548780441284,-0.06452479213476,0.40181201696396,1.02998900413513
140,3306521572,0.804721,-0.060075,0.317005,-0.498319,-4.46383762359619,-4.09911108016968,7.85303544998169,0.80559629201889,0.31127113103867,1.24146032333374
141,3306538239,0.804747,-0.060178,0.317050,-0.498237,-4.46105241775513,-4.09713745117188,7.88536500930786,0.05744928121567,0.40430924296379,1.33520269393921
142,3306554906,0.804785,-0.060277,0.317095,-0.498135,-4.49828386306763,-4.15075874328613,7.88343954086304,0.06533800065517,0.40643516182899,1.43881905078888
143,3306571573,0.804821,-0.060115,0.316975,-0.498173,-4.44885349273682,-4.14147853851318,7.88135051727295,2.39654207229614,0.45743003487587,1.14683425426483
144,3306588240,0.804842,-0.060037,0.316878,-0.498210,-4.48380565643311,-4.09860897064209,7.88653945922852,1.81157338619232,0.31150165200233,0.96686655282974
145,3306604907,0.804836,-0.060151,0.316898,-0.498194,-4.47834110260010,-4.08752489089966,7.87740993499756,0.22394461929798,0.32949453592300,0.80710732936859
146,3306621574,0.804834,-0.060243,0.316933,-0.498162,-4.45189809799194,-4.15506744384766,7.84480810165405,0.26122391223907,0.48078876733780,0.95575064420700
147,3306638241,0.804850,-0.060149,0.316884,-0.498181,-4.46700763702393,-4.13686037063599,7.86268138885498,1.73125207424164,0.65743964910507,1.05694651603699
148,3306654908,0.804833,-0.060164,0.316880,-0.498208,-4.51295852661133,-4.05986785888672,7.88673353195190,0.95660877227783,0.59648138284683,0.71044504642487
149,3306671575,0.804777,-0.060503,0.317064,-0.498140,-4.49920940399170,-4.09612751007080,7.88557243347168,-1.67026150226593,0.59877353906631,0.42333942651749
150,3306688242,0.804718,-0.060847,0.317264,-0.498066,-4.46510744094849,-4.17439889907837,7.84262752532959,-1.79575133323669,0.64917945861816,0.47981545329094
151,3306704909,0.804738,-0.060839,0.317305,-0.498009,-4.40767097473145,-4.20306253433228,7.83317565917969,0.73403429985046,0.78520846366882,1.41959655284882
152,3306721576,0.804777,-0.060368,0.317060,-0.498159,-4.46158695220947,-4.10375165939331,7.88830137252808,4.78050804138184,0.86887246370316,1.15066337585449
153,3306738243,0.804777,-0.060241,0.317000,-0.498213,-4.51095438003540,-3.99268984794617,7.91272211074829,2.00834298133850,0.74872326850891,0.89198791980743
154,3306754910,0.804728,-0.060555,0.317163,-0.498150,-4.45168972015381,-4.09801006317139,7.86310911178589,-1.47821760177612,0.53574079275131,0.51247161626816
155,3306771577,0.804712,-0.060707,0.317231,-0.498115,-4.46909427642822,-4.19255352020264,7.84266614913940,-0.17091993987560,0.50305902957916,0.77060925960541
156,3306788244,0.804716,-0.060718,0.317210,-0.498121,-4.44359683990479,-4.14982604980469,7.87551355361938,0.99888229370117,0.45723783969879,0.89853191375732
157,3306804911,0.804744,-0.060691,0.317185,-0.498094,-4.47134208679199,-4.12747240066528,7.87821960449219,1.15706646442413,0.50391703844070,1.24937462806702
158,3306821578,0.804784,-0.060566,0.317109,-0.498093,-4.46235895156860,-4.09347581863403,7.86511373519897,1.92499935626984,0.51933592557907,1.36012411117554
159,3306838245,0.804788,-0.060588,0.317134,-0.498068,-4.46278572082520,-4.06041288375854,7.87185192108154,0.68037569522858,0.63486194610596,1.12252783775330
160,3306854912,0.804764,-0.060877,0.317296,-0.497969,-4.47792387008667,-4.14904689788818,7.85973453521729,-1.39979159832001,0.53900647163391,0.85492622852325
161,3306871579,0.804765,-0.060875,0.317312,-0.497956,-4.46447992324829,-4.20152711868286,7.83361768722534,0.89011824131012,0.69818937778473,1.05179834365845
162,3306888246,0.804771,-0.060745,0.317250,-0.498002,-4.48858642578125,-4.14515352249146,7.89471435546875,2.01902365684509,0.73877274990082,0.96018171310425
163,3306904913,0.804764,-0.060659,0.317194,-0.498059,-4.51242494583130,-4.09140348434448,7.89775323867798,1.74042117595673,0.62368202209473,0.81142306327820
164,3306921580,0.804732,-0.060757,0.317254,-0.498062,-4.47452163696289,-4.06863498687744,7.88313198089600,0.23038622736931,0.70000785589218,0.61957114934921
165,3306938247,0.804685,-0.060972,0.317379,-0.498031,-4.46093416213989,-4.14109373092651,7.86661481857300,-0.72286081314087,0.67033547163010,0.53100246191025
166,3306954914,0.804678,-0.061046,0.317430,-0.498001,-4.43368101119995,-4.20898485183716,7.82868528366089,0.32745838165283,0.65234267711639,0.95244675874710
167,3306971581,0.804688,-0.060777,0.317281,-0.498113,-4.47293090820312,-4.13681125640869,7.86648750305176,3.19718170166016,0.71993452310562,0.93359559774399
168,3306988248,0.804678,-0.060656,0.317196,-0.498198,-4.51073551177979,-4.03880453109741,7.91576004028320,2.11898994445801,0.62623053789139,0.66828656196594
169,3307004915,0.804647,-0.060859,0.317279,-0.498170,-4.47379350662231,-4.10549974441528,7.88972377777100,-0.50708663463593,0.43599221110344,0.59041118621826
170,3307021582,0.804644,-0.060952,0.317318,-0.498139,-4.45349121093750,-4.17230415344238,7.82652378082275,0.20554189383984,0.46474239230156,1.01763081550598
171,3307038249,0.804698,-0.060803,0.317200,-0.498146,-4.44607782363892,-4.16742801666260,7.83805942535400,2.21832871437073,0.34683433175087,1.40342223644257
172,3307054916,0.804748,-0.060540,0.317036,-0.498201,-4.46718740463257,-4.06329679489136,7.87616825103760,3.13686418533325,0.52604639530182,1.32659697532654
173,3307071583,0.804783,-0.060474,0.316986,-0.498184,-4.48378324508667,-4.03775787353516,7.88968849182129,1.48553645610809,0.48502770066261,1.28606474399567
174,3307088250,0.804778,-0.060612,0.317061,-0.498127,-4.44014835357666,-4.12065267562866,7.85779428482056,-0.17456975579262,0.54747140407562,0.98581999540329
175,3307104917,0.804787,-0.060554,0.317003,-0.498157,-4.46412372589111,-4.16662120819092,7.87506008148193,1.55875015258789,0.48263281583786,0.92675697803497
176,3307121584,0.804793,-0.060498,0.316939,-0.498195,-4.48832321166992,-4.11873960494995,7.89022493362427,1.60243272781372,0.47610163688660,0.83245110511780
177,3307138251,0.804802,-0.060506,0.316949,-0.498172,-4.47115802764893,-4.14767122268677,7.85915565490723,0.85467022657394,0.62176108360291,1.08741283416748
178,3307154918,0.804807,-0.060352,0.316859,-0.498241,-4.47935247421265,-4.12035655975342,7.85213994979858,2.29429578781128,0.67711019515991,0.86982005834579
179,3307171585,0.804785,-0.060246,0.316776,-0.498341,-4.48173284530640,-4.05132007598877,7.87978315353394,2.04434180259705,0.60645753145218,0.53804600238800
180,3307188252,0.804751,-0.060541,0.316930,-0.498264,-4.43793249130249,-4.12032365798950,7.85978746414185,-1.31918847560883,0.54275876283646,0.61005610227585
181,3307204919,0.804756,-0.060465,0.316875,-0.498299,-4.45569610595703,-4.17922592163086,7.84120798110962,1.67750370502472,0.59892731904984,0.88739037513733
182,3307221586,0.804773,-0.060292,0.316772,-0.498358,-4.47034740447998,-4.08111476898193,7.88631391525269,2.41782617568970,0.62886863946915,1.01495444774628
183,3307238253,0.804771,-0.060398,0.316846,-0.498302,-4.48522138595581,-4.08642482757568,7.89145660400391,0.02389664947987,0.65647906064987,1.04055440425873
184,3307254920,0.804761,-0.060485,0.316878,-0.498287,-4.47584438323975,-4.11810064315796,7.85959434509277,0.34894740581512,0.51116549968719,0.82174503803253
185,3307271587,0.804738,-0.060500,0.316904,-0.498305,-4.46120166778564,-4.11535120010376,7.86489439010620,0.82308971881866,0.76132470369339,0.76485931873322
186,3307288254,0.804722,-0.060747,0.317033,-0.498219,-4.45108699798584,-4.15885162353516,7.88549900054932,-1.02825379371643,0.49327492713928,0.88744157552719
187,3307304921,0.804745,-0.060715,0.316968,-0.498228,-4.46609210968018,-4.14991188049316,7.88731718063354,1.44177722930908,0.35514569282532,0.95705699920654
188,3307321588,0.804740,-0.060814,0.316979,-0.498217,-4.45380735397339,-4.05283641815186,7.91030645370483,0.30190968513489,0.29674872756004,0.88650667667389
189,3307338255,0.804768,-0.060914,0.317018,-0.498134,-4.43896150588989,-4.15391921997070,7.84934234619141,0.14939889311790,0.42161065340042,1.26160490512848
190,3307354922,0.804799,-0.060812,0.316950,-0.498141,-4.46230268478394,-4.12090444564819,7.87778568267822,1.76027131080627,0.49131563305855,1.27824020385742
191,3307371589,0.804819,-0.060897,0.316982,-0.498077,-4.48999977111816,-4.09537696838379,7.89765644073486,0.26735818386078,0.43521100282669,1.19385933876038
192,3307388256,0.804810,-0.060962,0.317008,-0.498067,-4.48788022994995,-4.15220499038696,7.86027574539185,0.49796208739281,0.55373376607895,0.84807485342026
193,3307404923,0.804794,-0.060969,0.316967,-0.498117,-4.47482490539551,-4.16866350173950,7.87866401672363,1.15574753284454,0.41084051132202,0.62471938133240
194,3307421590,0.804799,-0.060865,0.316871,-0.498183,-4.46324348449707,-4.13559436798096,7.86470365524292,2.03202199935913,0.46873807907104,0.77606481313705
195,3307438257,0.804805,-0.060793,0.316786,-0.498237,-4.43101930618286,-4.07360839843750,7.86369180679321,1.78939270973206,0.40972632169724,0.79423689842224
196,3307454924,0.804821,-0.060832,0.316783,-0.498207,-4.43996000289917,-4.08475494384766,7.86360406875610,0.71513217687607,0.42652833461761,1.07187867164612
197,3307471591,0.804847,-0.060763,0.316743,-0.498200,-4.45479488372803,-4.13465118408203,7.85847759246826,1.49047958850861,0.57537645101547,1.21039199829102
198,3307488258,0.804870,-0.060640,0.316697,-0.498207,-4.46409130096436,-4.13391113281250,7.87160491943359,1.83164119720459,0.73603224754333,1.24931061267853
199,3307504925,0.804891,-0.060540,0.316650,-0.498215,-4.48451757431030,-4.13261032104492,7.89350938796997,1.71494960784912,0.66157603263855,1.17359948158264
200,3307521592,0.804917,-0.060367,0.316529,-0.498271,-4.47196435928345,-4.11304378509521,7.89606857299805,2.50052928924561,0.53191173076630,1.02324020862579
201,3307538259,0.804910,-0.060376,0.316511,-0.498293,-4.48557710647583,-4.08430385589600,7.92129421234131,1.04029822349548,0.52028352022171,0.76489764451981
202,3307554926,0.804904,-0.060479,0.316563,-0.498258,-4.43815374374390,-4.14323711395264,7.88012790679932,0.15336883068085,0.55328553915024,0.92135280370712
203,3307571593,0.804900,-0.060367,0.316489,-0.498324,-4.45142698287964,-4.15844917297363,7.85020685195923,1.99042701721191,0.63077670335770,0.77734541893005
204,3307588260,0.804911,-0.060140,0.316323,-0.498440,-4.45560932159424,-4.08524036407471,7.90991592407227,3.05710625648499,0.50752848386765,0.77769124507904
205,3307604927,0.804895,-0.060068,0.316266,-0.498509,-4.47923231124878,-4.04133987426758,7.88669872283936,1.70160531997681,0.60566353797913,0.66231876611710
206,3307621594,0.804881,-0.060101,0.316312,-0.498499,-4.44259786605835,-4.07624530792236,7.88589477539062,0.63383752107620,0.81654566526413,0.85992074012756
207,3307638261,0.804892,-0.060226,0.316434,-0.498388,-4.41878986358643,-4.16513824462891,7.86219453811646,-0.36111983656883,0.80764520168304,1.35802352428436
208,3307654928,0.804929,-0.060090,0.316360,-0.498392,-4.45674180984497,-4.16532278060913,7.87106084823608,2.01925420761108,0.60909563302994,1.29794907569885
209,3307671595,0.804951,-0.059880,0.316221,-0.498470,-4.48860406875610,-4.07252407073975,7.90007257461548,2.80122280120850,0.56487530469894,0.98124825954437
210,3307688262,0.804920,-0.060096,0.316352,-0.498412,-4.48390531539917,-4.06121683120728,7.90874719619751,-0.85636705160141,0.59877377748489,0.83804750442505
211,3307704929,0.804893,-0.060346,0.316484,-0.498342,-4.47870016098022,-4.12417459487915,7.86488151550293,-1.01996815204620,0.53230875730515,0.74573945999146
212,3307721596,0.804878,-0.060547,0.316565,-0.498290,-4.46306562423706,-4.10745525360107,7.89599847793579,-0.53513252735138,0.39578023552895,0.78086721897125
213,3307738263,0.804865,-0.060779,0.316676,-0.498211,-4.44886970520020,-4.13903617858887,7.86342906951904,-0.85712265968323,0.43635076284409,0.87487864494324
214,3307754930,0.804885,-0.060871,0.316689,-0.498160,-4.45822954177856,-4.12793159484863,7.88458871841431,0.31848111748695,0.31814813613892,1.10316455364227
215,3307771597,0.804906,-0.060907,0.316670,-0.498134,-4.45735883712769,-4.11382722854614,7.86333847045898,0.80526334047318,0.35099640488625,1.04620194435120
216,3307788264,0.804905,-0.061145,0.316766,-0.498044,-4.44741678237915,-4.07834911346436,7.86664342880249,-0.85841602087021,0.30185845494270,0.96253800392151
217,3307804931,0.804900,-0.061440,0.316895,-0.497935,-4.45495605468750,-4.16014814376831,7.85171365737915,-1.31528234481812,0.31460076570511,0.90680474042892
218,3307821598,0.804878,-0.061561,0.316908,-0.497947,-4.46342134475708,-4.16531229019165,7.86234521865845,0.26797285676003,0.32008188962936,0.56314635276794
219,3307838265,0.804856,-0.061650,0.316895,-0.497979,-4.48747158050537,-4.12907457351685,7.88990354537964,0.58889997005463,0.30954223871231,0.49376153945923
220,3307854932,0.804824,-0.061908,0.317009,-0.497927,-4.47267961502075,-4.14247465133667,7.87504959106445,-0.97738707065582,0.41009777784348,0.63612979650497
221,3307871599,0.804783,-0.062014,0.317030,-0.497967,-4.43996858596802,-4.16353511810303,7.87863874435425,0.34769237041473,0.43856623768806,0.43896323442459
222,3307888266,0.804784,-0.061998,0.316965,-0.498007,-4.43717336654663,-4.14021825790405,7.86263942718506,1.35967588424683,0.32282245159149,0.75869941711426
223,3307904933,0.804786,-0.062131,0.316986,-0.497975,-4.46363449096680,-4.11222267150879,7.87166023254395,0.13632358610630,0.30161511898041,0.78951150178909
224,3307921600,0.804804,-0.062242,0.316988,-0.497931,-4.45896625518799,-4.13859939575195,7.86632490158081,0.27295452356339,0.20122615993023,1.00543928146362
225,3307938267,0.804784,-0.062418,0.317026,-0.497916,-4.45990562438965,-4.07218456268311,7.87247371673584,-0.17561988532543,0.26131355762482,0.60429322719574
226,3307954934,0.804753,-0.062896,0.317279,-0.497747,-4.44186449050903,-4.16127109527588,7.86692571640015,-2.92723083496094,0.36737579107285,0.86296874284744
227,3307971601,0.804748,-0.063022,0.317341,-0.497698,-4.41081142425537,-4.24607276916504,7.83028411865234,-0.04592997208238,0.51826012134552,0.95989984273911
228,3307988268,0.804759,-0.062995,0.317317,-0.497699,-4.47404909133911,-4.17820930480957,7.86476039886475,1.16956567764282,0.52267837524414,1.10248589515686
229,3308004935,0.804762,-0.063127,0.317368,-0.497645,-4.46828317642212,-4.11265659332275,7.89242124557495,-0.02803950011730,0.42952495813370,0.97214275598526
230,3308021602,0.804733,-0.063412,0.317516,-0.497561,-4.46038532257080,-4.15729093551636,7.86702203750610,-1.30998086929321,0.49373602867126,0.76406526565552
231,3308038269,0.804702,-0.063703,0.317674,-0.497473,-4.44957160949707,-4.17637968063354,7.84084558486938,-1.37405085563660,0.53237277269363,0.75332069396973
232,3308054936,0.804659,-0.063944,0.317807,-0.497428,-4.43514204025269,-4.18836641311646,7.84019374847412,-0.93738007545471,0.59749305248260,0.59963178634644
233,3308071603,0.804659,-0.064131,0.317927,-0.497327,-4.43618202209473,-4.22185087203979,7.83772087097168,-0.66710197925568,0.62228608131409,1.11712348461151
234,3308088270,0.804652,-0.064254,0.318014,-0.497267,-4.43984222412109,-4.18272781372070,7.85072326660156,-0.13959562778473,0.66973370313644,1.03304994106293
235,3308104937,0.804652,-0.064335,0.318092,-0.497207,-4.47398996353149,-4.17018222808838,7.89207363128662,0.13232801854610,0.75782853364944,1.12823951244354
236,3308121604,0.804647,-0.064341,0.318118,-0.497196,-4.42487812042236,-4.18693304061890,7.86716508865356,0.81502169370651,0.73746639490128,1.02030754089355
237,3308138271,0.804661,-0.064286,0.318105,-0.497190,-4.43247222900391,-4.19178724288940,7.84845876693726,1.34401345252991,0.73370134830475,1.08771991729736
238,3308154938,0.804676,-0.064129,0.318051,-0.497221,-4.45196628570557,-4.12587404251099,7.85402011871338,2.09960103034973,0.83492279052734,1.15701532363892
239,3308171605,0.804650,-0.064307,0.318174,-0.497161,-4.45050668716431,-4.14872741699219,7.86603593826294,-0.59071213006973,0.70764040946960,0.89711046218872
240,3308188272,0.804628,-0.064425,0.318252,-0.497131,-4.45349264144897,-4.27519512176514,7.85062885284424,-0.03865596652031,0.66613507270813,0.84842056035995
241,3308204939,0.804633,-0.064132,0.318085,-0.497267,-4.45479202270508,-4.25722312927246,7.82653236389160,3.44716215133667,0.72455769777298,0.81810814142227
242,3308221606,0.804620,-0.063891,0.317953,-0.497404,-4.47397375106812,-4.15809249877930,7.86843585968018,3.03066110610962,0.78906321525574,0.65270119905472
243,3308238273,0.804580,-0.063939,0.317978,-0.497446,-4.45677661895752,-4.13259077072144,7.85420560836792,0.68113130331039,0.67891579866409,0.52632814645767
244,3308254940,0.804564,-0.064045,0.318029,-0.497426,-4.43225812911987,-4.15408563613892,7.84549617767334,0.16043794155121,0.56703954935074,0.79220080375671
245,3308271607,0.804571,-0.064061,0.318027,-0.497414,-4.44543695449829,-4.15404891967773,7.87581443786621,0.88128179311752,0.54800933599472,0.98670363426208
246,3308288274,0.804570,-0.064202,0.318109,-0.497345,-4.43033313751221,-4.19186925888062,7.85042715072632,-0.24590113759041,0.54984062910080,1.07593834400177
247,3308304941,0.804584,-0.064170,0.318088,-0.497340,-4.43532848358154,-4.23405694961548,7.83071422576904,1.21881878376007,0.58221513032913,1.08449292182922
248,3308321608,0.804608,-0.064009,0.317992,-0.497383,-4.44923305511475,-4.17352390289307,7.84991693496704,2.28561305999756,0.59415060281754,1.13835632801056
249,3308338275,0.804583,-0.064091,0.318039,-0.497382,-4.47724008560181,-4.13479280471802,7.88107967376709,0.31663700938225,0.62570548057556,0.76418054103851
250,3308354942,0.804556,-0.064241,0.318130,-0.497349,-4.46847820281982,-4.20074176788330,7.86326360702515,-0.23103293776512,0.68018364906311,0.70954859256744
251,3308371609,0.804515,-0.064305,0.318161,-0.497387,-4.44411659240723,-4.19764280319214,7.84591054916382,0.58568555116653,0.68198925256729,0.47605043649673
252,3308388276,0.804478,-0.064380,0.318199,-0.497414,-4.44163417816162,-4.19138526916504,7.82274723052979,0.47197797894478,0.66500806808472,0.52169227600098
253,3308404943,0.804426,-0.064411,0.318225,-0.497477,-4.45610523223877,-4.16714620590210,7.85686826705933,0.68647158145905,0.66377878189087,0.61604952812195
254,3308421610,0.804415,-0.064399,0.318213,-0.497503,-4.46541357040405,-4.16789722442627,7.81536197662354,1.15597808361053,0.64837265014648,0.76429575681686
255,3308438277,0.804396,-0.064510,0.318304,-0.497461,-4.42183446884155,-4.18514919281006,7.84215927124023,-0.02929452434182,0.79529994726181,0.87286794185638
256,3308454944,0.804392,-0.064433,0.318299,-0.497482,-4.45383501052856,-4.21319627761841,7.84910440444946,1.46137082576752,0.87459671497345,0.98348897695541
257,3308471611,0.804375,-0.064450,0.318316,-0.497496,-4.47447824478149,-4.16702461242676,7.86706352233887,0.84692239761353,0.70137822628021,0.79427546262741
258,3308488278,0.804353,-0.064526,0.318362,-0.497492,-4.42608976364136,-4.18780660629272,7.83901834487915,0.37160184979439,0.65192008018494,0.76154243946075
259,3308504945,0.804340,-0.064600,0.318411,-0.497473,-4.45166492462158,-4.20658493041992,7.84176683425903,0.35004875063896,0.66358661651611,0.87099820375443
260,3308521612,0.804330,-0.064587,0.318401,-0.497496,-4.46684980392456,-4.15347433090210,7.88065576553345,1.15293002128601,0.66213947534561,0.76829129457474
261,3308538279,0.804305,-0.064834,0.318531,-0.497422,-4.45505237579346,-4.17036056518555,7.85796737670898,-1.01496076583862,0.50969272851944,0.80596762895584
262,3308554946,0.804305,-0.065023,0.318652,-0.497320,-4.42146205902100,-4.23284912109375,7.83449316024780,-0.69139558076859,0.62144088745117,1.12501215934753
263,3308571613,0.804319,-0.064934,0.318617,-0.497330,-4.43146085739136,-4.22847509384155,7.83331918716431,1.62093818187714,0.70926684141159,1.10801815986633
264,3308588280,0.804315,-0.064874,0.318593,-0.497360,-4.46910619735718,-4.17176342010498,7.85113573074341,1.47157740592957,0.73064053058624,0.86719465255737
265,3308604947,0.804279,-0.064967,0.318660,-0.497364,-4.45350790023804,-4.18111610412598,7.86538600921631,0.22219017148018,0.75706022977829,0.63212144374847
266,3308621614,0.804255,-0.065115,0.318752,-0.497324,-4.43098640441895,-4.23533058166504,7.83746385574341,-0.25823363661766,0.65022957324982,0.81769812107086
267,3308638281,0.804254,-0.065063,0.318724,-0.497351,-4.44760084152222,-4.20377254486084,7.83351850509644,1.40850639343262,0.65760600566864,0.90356475114822
268,3308654948,0.804247,-0.065161,0.318783,-0.497312,-4.46270465850830,-4.14115476608276,7.86499977111816,0.17134895920753,0.63397830724716,0.91465508937836
269,3308671615,0.804213,-0.065335,0.318907,-0.497263,-4.45324468612671,-4.22922706604004,7.83687591552734,-0.53835976123810,0.76433420181274,0.77857494354248
270,3308688282,0.804213,-0.065352,0.318938,-0.497242,-4.42092037200928,-4.28029155731201,7.80908536911011,0.72540289163589,0.71496570110321,1.06004559993744
271,3308704949,0.804245,-0.065052,0.318797,-0.497320,-4.44582986831665,-4.19922733306885,7.84172534942627,3.28289484977722,0.82159137725830,1.24509727954865
272,3308721616,0.804245,-0.064982,0.318766,-0.497348,-4.48421764373779,-4.11694097518921,7.88890743255615,1.54730153083801,0.71044504642487,0.91638398170471
273,3308738283,0.804206,-0.065115,0.318848,-0.497341,-4.44651365280151,-4.16995477676392,7.85946941375732,-0.07282330095768,0.70443880558014,0.59457319974899
274,3308754950,0.804183,-0.065184,0.318912,-0.497328,-4.43740272521973,-4.25531291961670,7.82803010940552,0.32597279548645,0.77641052007675,0.83809870481491
275,3308771617,0.804192,-0.065122,0.318885,-0.497340,-4.43080568313599,-4.24587535858154,7.83766889572144,1.44478678703308,0.67458724975586,1.03164112567902
276,3308788284,0.804209,-0.065026,0.318848,-0.497349,-4.46494865417480,-4.20242452621460,7.84472894668579,1.72878050804138,0.77743506431580,1.03815960884094
277,3308804951,0.804214,-0.064981,0.318832,-0.497356,-4.45669031143188,-4.16575002670288,7.84583377838135,1.29951155185699,0.68148994445801,1.01490318775177
278,3308821618,0.804194,-0.065096,0.318899,-0.497331,-4.46300745010376,-4.17637109756470,7.82944822311401,0.04149257391691,0.63305628299713,0.80377775430679
279,3308838285,0.804183,-0.065165,0.318962,-0.497300,-4.42413663864136,-4.24067449569702,7.81543016433716,0.28391677141190,0.72663223743439,0.99804997444153
280,3308854952,0.804177,-0.065215,0.319013,-0.497270,-4.44644498825073,-4.24596023559570,7.81259059906006,0.47076144814491,0.74386966228485,0.99002057313919
281,3308871619,0.804190,-0.065087,0.318960,-0.497299,-4.46824407577515,-4.19192647933960,7.86991977691650,1.93758785724640,0.74787801504135,1.08335316181183
282,3308888286,0.804170,-0.065110,0.318970,-0.497323,-4.48123073577881,-4.17171001434326,7.86219978332520,0.86002326011658,0.66178095340729,0.70125013589859
283,3308904953,0.804149,-0.065182,0.319009,-0.497321,-4.43737888336182,-4.17256212234497,7.85893774032593,0.46289837360382,0.66771030426025,0.68975001573563
284,3308921620,0.804149,-0.065283,0.319048,-0.497283,-4.43422508239746,-4.20796394348145,7.82901239395142,0.22633944451809,0.50386583805084,0.91044181585312
285,3308938287,0.804143,-0.065362,0.319085,-0.497259,-4.42448091506958,-4.19687986373901,7.84156417846680,0.35180321335793,0.54497420787811,0.92431104183197
286,3308954954,0.804151,-0.065441,0.319115,-0.497217,-4.46380758285522,-4.22801256179810,7.82479429244995,0.37047493457794,0.50896281003952,0.99586027860641
287,3308971621,0.804148,-0.065423,0.319088,-0.497242,-4.45504570007324,-4.19522333145142,7.84134817123413,1.19242477416992,0.52257585525513,0.88705736398697
288,3308988288,0.804141,-0.065589,0.319185,-0.497169,-4.45656061172485,-4.22389984130859,7.84565114974976,-0.44365674257278,0.56656569242477,1.01363527774811
289,3309004955,0.804142,-0.065583,0.319179,-0.497172,-4.42765951156616,-4.20519733428955,7.84018373489380,1.01517224311829,0.58882319927216,0.98825311660767
290,3309021622,0.804135,-0.065673,0.319240,-0.497131,-4.44081020355225,-4.20657444000244,7.85408687591553,0.17811070382595,0.65527534484863,0.97808492183685
291,3309038289,0.804125,-0.065835,0.319320,-0.497074,-4.46449899673462,-4.23831748962402,7.83476209640503,-0.31056037545204,0.51774787902832,0.88874781131744
292,3309054956,0.804118,-0.065794,0.319269,-0.497124,-4.47329521179199,-4.24147272109985,7.84130859375000,1.49142754077911,0.52616173028946,0.70515596866608
293,3309071623,0.804077,-0.065858,0.319293,-0.497167,-4.45234489440918,-4.19663000106812,7.85786581039429,0.60801988840103,0.63342761993408,0.45313984155655
294,3309088290,0.804040,-0.065981,0.319361,-0.497167,-4.43459177017212,-4.22559642791748,7.81412696838379,-0.00182490493171,0.61794489622116,0.66463679075241
295,3309104957,0.804040,-0.065958,0.319342,-0.497182,-4.44059658050537,-4.20786523818970,7.82717609405518,1.22583663463593,0.62535971403122,0.87416142225266
296,3309121624,0.804029,-0.066080,0.319404,-0.497145,-4.44763040542603,-4.18983507156372,7.82816123962402,0.00777345383540,0.56030339002609,0.86431330442429
297,3309138291,0.804007,-0.066284,0.319520,-0.497078,-4.44384813308716,-4.22004032135010,7.83907222747803,-0.71178334951401,0.58043503761292,0.86122697591782
298,3309154958,0.803985,-0.066335,0.319533,-0.497097,-4.45089006423950,-4.22502517700195,7.84329652786255,0.67575258016586,0.57240533828735,0.66558432579041
299,3309171625,0.803979,-0.066467,0.319572,-0.497065,-4.44747114181519,-4.20909547805786,7.82836723327637,0.08529029041529,0.43102326989174,0.76287424564362
300,3309188292,0.803937,-0.066659,0.319631,-0.497070,-4.44458532333374,-4.21578693389893,7.82767772674561,-0.28960913419724,0.38785305619240,0.37582790851593
301,3309204959,0.803915,-0.066948,0.319755,-0.496986,-4.44951486587524,-4.27572917938232,7.81882667541504,-1.21061623096466,0.35821923613548,0.70935654640198
302,3309221626,0.803912,-0.067040,0.319783,-0.496961,-4.40047359466553,-4.33232831954956,7.78166627883911,0.28926983475685,0.43745213747025,0.92606556415558
303,3309238293,0.803926,-0.066946,0.319701,-0.497004,-4.44809484481812,-4.22794532775879,7.81586980819702,1.87584853172302,0.47690850496292,0.92505395412445
304,3309254960,0.803896,-0.066992,0.319698,-0.497048,-4.45646762847900,-4.15611791610718,7.84601831436157,0.79436504840851,0.51417493820190,0.54584503173828
305,3309271627,0.803853,-0.067139,0.319773,-0.497048,-4.45331144332886,-4.19111108779907,7.82513475418091,-0.12673804163933,0.61744534969330,0.53575366735458
306,3309288294,0.803829,-0.067308,0.319876,-0.496998,-4.42368793487549,-4.25625181198120,7.81152248382568,-0.40370094776154,0.66645520925522,0.77519392967224
307,3309304961,0.803859,-0.067343,0.319923,-0.496916,-4.40392160415649,-4.32456350326538,7.79684352874756,0.44254907965660,0.65503203868866,1.46526420116425
308,3309321628,0.803900,-0.067132,0.319793,-0.496962,-4.44512367248535,-4.25031900405884,7.82387399673462,2.69080615043640,0.54240012168884,1.27088928222656
309,3309338295,0.803898,-0.067099,0.319770,-0.496985,-4.48053169250488,-4.15433454513550,7.85541057586670,1.24429059028625,0.57485145330429,0.95224183797836
310,3309354962,0.803844,-0.067377,0.319924,-0.496935,-4.44731187820435,-4.21353101730347,7.83299779891968,-1.27160012722015,0.57386535406113,0.58317559957504
311,3309371629,0.803792,-0.067559,0.320007,-0.496941,-4.44585800170898,-4.27817344665527,7.82291650772095,-0.32693970203400,0.57225173711777,0.38489484786987
312,3309388296,0.803742,-0.067752,0.320094,-0.496939,-4.43203306198120,-4.26295375823975,7.82050037384033,-0.40179282426834,0.57250791788101,0.37860694527626
313,3309404963,0.803723,-0.067835,0.320142,-0.496928,-4.42543077468872,-4.27855825424194,7.80987548828125,0.31113025546074,0.62772881984711,0.80574989318848
314,3309421630,0.803723,-0.067802,0.320133,-0.496938,-4.42861270904541,-4.25418186187744,7.80561780929565,1.22899985313416,0.70653915405273,0.92903667688370
315,3309438297,0.803699,-0.067815,0.320142,-0.496970,-4.45970344543457,-4.21456289291382,7.85061216354370,0.93353158235550,0.69830459356308,0.66767185926437
316,3309454964,0.803656,-0.068062,0.320271,-0.496921,-4.45080184936523,-4.22101259231567,7.82854938507080,-0.94749706983566,0.57873177528381,0.56756466627121
317,3309471631,0.803632,-0.068236,0.320369,-0.496874,-4.43143081665039,-4.32342290878296,7.82475423812866,-0.43001797795296,0.60136055946350,0.78323632478714
318,3309488298,0.803629,-0.068223,0.320367,-0.496881,-4.39512968063354,-4.28692197799683,7.80000400543213,1.04868650436401,0.65081870555878,0.96025842428207
319,3309504965,0.803640,-0.068130,0.320317,-0.496908,-4.44960451126099,-4.24315595626831,7.81150436401367,1.70604920387268,0.63466995954514,1.05320715904236
320,3309521632,0.803639,-0.068093,0.320289,-0.496934,-4.43964052200317,-4.22755002975464,7.84148550033569,1.32781350612640,0.59923470020294,0.87840026617050
321,3309538299,0.803615,-0.068171,0.320324,-0.496939,-4.45016717910767,-4.27043581008911,7.83480453491211,0.40948298573494,0.59397131204605,0.70742273330688
322,3309554966,0.803623,-0.068132,0.320293,-0.496952,-4.41883659362793,-4.25913619995117,7.82281064987183,1.31722283363342,0.55464303493500,0.99959969520569
323,3309571633,0.803642,-0.068080,0.320272,-0.496941,-4.41220903396606,-4.26091623306274,7.79402875900269,1.31728672981262,0.64303237199783,1.17782545089722
324,3309588300,0.803672,-0.067878,0.320161,-0.496992,-4.43243217468262,-4.26575660705566,7.82362604141235,2.60248088836670,0.66409885883331,1.15971744060516
325,3309604967,0.803691,-0.067803,0.320109,-0.497004,-4.45037221908569,-4.20833635330200,7.82086038589478,1.60414886474609,0.55060899257660,1.09056305885315
326,3309621634,0.803693,-0.067975,0.320213,-0.496911,-4.44683742523193,-4.24028253555298,7.78831338882446,-0.54256021976471,0.54894423484802,1.15820634365082
327,3309638301,0.803693,-0.068116,0.320287,-0.496845,-4.41511106491089,-4.31952238082886,7.81900310516357,-0.20061787962914,0.52562379837036,1.03517556190491
328,3309654968,0.803720,-0.067922,0.320183,-0.496894,-4.42837047576904,-4.29172945022583,7.79702806472778,2.51137638092041,0.65929651260376,1.16955256462097
329,3309671635,0.803723,-0.067824,0.320133,-0.496936,-4.47841548919678,-4.21612930297852,7.86606740951538,1.73668205738068,0.65168958902359,0.99866479635239
330,3309688302,0.803711,-0.067903,0.320184,-0.496911,-4.44682407379150,-4.23351573944092,7.82310628890991,0.32266876101494,0.66832494735718,0.86211061477661
331,3309704969,0.803686,-0.068023,0.320255,-0.496888,-4.42609882354736,-4.26402235031128,7.81637287139893,0.04196640849113,0.68228387832642,0.70055854320526
332,3309721636,0.803693,-0.068049,0.320294,-0.496850,-4.41097450256348,-4.29956483840942,7.79290294647217,0.62027555704117,0.72217577695847,1.13579511642456
333,3309738303,0.803710,-0.067907,0.320240,-0.496875,-4.44469976425171,-4.28077459335327,7.81330060958862,1.96076762676239,0.74062967300415,1.23513412475586
334,3309754970,0.803716,-0.067805,0.320190,-0.496913,-4.46452188491821,-4.20780563354492,7.82596540451050,1.79229998588562,0.69282352924347,0.97104150056839
335,3309771637,0.803677,-0.067919,0.320247,-0.496923,-4.46507024765015,-4.22037363052368,7.83154869079590,0.09981269389391,0.58732479810715,0.63376069068909
336,3309788304,0.803642,-0.068063,0.320306,-0.496921,-4.41170215606689,-4.24628496170044,7.80977535247803,-0.07269524037838,0.50373774766922,0.60385775566101
337,3309804971,0.803629,-0.068177,0.320372,-0.496884,-4.41614389419556,-4.28896617889404,7.80181455612183,0.01731418631971,0.59188389778137,0.91757500171661
338,3309821638,0.803624,-0.068144,0.320388,-0.496887,-4.41102361679077,-4.31853771209717,7.80276298522949,1.02583992481232,0.75476789474487,1.13939392566681
339,3309838305,0.803648,-0.068030,0.320326,-0.496904,-4.46758508682251,-4.23644638061523,7.82567358016968,1.85754835605621,0.62042921781540,1.17043638229370
340,3309854972,0.803643,-0.067956,0.320293,-0.496943,-4.42881488800049,-4.19857883453369,7.84894323348999,1.57621824741364,0.72381490468979,0.86056107282639
341,3309871639,0.803620,-0.068256,0.320446,-0.496841,-4.44242000579834,-4.28617811203003,7.82696199417114,-1.42081975936890,0.46191224455833,0.82189875841141
342,3309888306,0.803634,-0.068164,0.320406,-0.496857,-4.40959978103638,-4.28074216842651,7.83047389984131,1.66722023487091,0.69643491506577,1.08217501640320
343,3309904973,0.803636,-0.068167,0.320441,-0.496830,-4.44409465789795,-4.26244544982910,7.82410717010498,0.77752470970154,0.78766727447510,1.11955666542053
344,3309921640,0.803633,-0.068233,0.320491,-0.496794,-4.46755075454712,-4.30827093124390,7.81470966339111,0.35706669092178,0.66142237186432,1.02622413635254
345,3309938307,0.803626,-0.068221,0.320467,-0.496823,-4.47507143020630,-4.27779483795166,7.82540702819824,1.17457270622253,0.54622924327850,0.79661899805069
346,3309954974,0.803600,-0.068273,0.320473,-0.496853,-4.43997430801392,-4.25882863998413,7.81880044937134,0.72075414657593,0.54727929830551,0.58860540390015
347,3309971641,0.803580,-0.068393,0.320529,-0.496832,-4.40655374526978,-4.27722072601318,7.80750799179077,0.03690789639950,0.53005474805832,0.80988633632660
348,3309988308,0.803589,-0.068347,0.320503,-0.496842,-4.42677545547485,-4.21967172622681,7.79646205902100,1.32324182987213,0.60622704029083,1.04825103282928
349,3310004975,0.803587,-0.068488,0.320579,-0.496775,-4.43009757995605,-4.24069643020630,7.81448602676392,-0.23718000948429,0.50659352540970,1.08624732494354
350,3310021642,0.803608,-0.068635,0.320652,-0.496674,-4.41488742828369,-4.32089424133301,7.79638385772705,-0.28265535831451,0.44117873907089,1.26723957061768
351,3310038309,0.803627,-0.068619,0.320613,-0.496671,-4.44181632995605,-4.27908468246460,7.82036495208740,1.20954704284668,0.43284177780151,1.02512276172638
352,3310054976,0.803630,-0.068675,0.320617,-0.496656,-4.43355083465576,-4.22981834411621,7.83068943023682,0.61789357662201,0.43632513284683,0.92917758226395
353,3310071643,0.803613,-0.068813,0.320669,-0.496630,-4.44266080856323,-4.27298355102539,7.81373596191406,-0.03709359094501,0.45888990163803,0.76656240224838
354,3310088310,0.803574,-0.068967,0.320744,-0.496624,-4.44671344757080,-4.26523494720459,7.82425165176392,-0.17436486482620,0.58537828922272,0.56003451347351
355,3310104977,0.803526,-0.069212,0.320875,-0.496583,-4.42744970321655,-4.30465555191040,7.78660535812378,-0.93860942125320,0.59622526168823,0.53807163238525
356,3310121644,0.803507,-0.069356,0.320951,-0.496545,-4.42941141128540,-4.34693956375122,7.78331661224365,-0.16632245481014,0.58284264802933,0.80846482515335
357,3310138311,0.803497,-0.069347,0.320939,-0.496571,-4.42722558975220,-4.29494810104370,7.80534172058105,1.08112490177155,0.58357262611389,0.84582102298737
358,3310154978,0.803492,-0.069368,0.320963,-0.496560,-4.42885828018188,-4.26593065261841,7.80342292785645,0.73598098754883,0.67197483778000,0.98779219388962
359,3310171645,0.803468,-0.069413,0.321020,-0.496555,-4.43452310562134,-4.22445201873779,7.81909751892090,0.44621166586876,0.77959942817688,0.92246699333191
360,3310188312,0.803425,-0.069619,0.321167,-0.496501,-4.42706775665283,-4.26820373535156,7.83453226089478,-0.80694729089737,0.79095852375031,0.73350930213928
361,3310204979,0.803392,-0.069781,0.321274,-0.496462,-4.43656253814697,-4.35903501510620,7.79066038131714,-0.39554327726364,0.71228915452957,0.75796937942505
362,3310221646,0.803395,-0.069753,0.321272,-0.496463,-4.41938400268555,-4.32896375656128,7.78987169265747,1.14665496349335,0.70256924629211,1.00919163227081
363,3310238313,0.803436,-0.069768,0.321330,-0.496357,-4.43730640411377,-4.32084512710571,7.78696012496948,0.48924097418785,0.76201617717743,1.65085351467133
364,3310254980,0.803469,-0.069680,0.321252,-0.496367,-4.44619321823120,-4.26898479461670,7.81450653076172,1.81033146381378,0.46607434749603,1.08815550804138
365,3310271647,0.803439,-0.069800,0.321334,-0.496345,-4.45372819900513,-4.22503900527954,7.80100917816162,-0.19203762710094,0.56432461738586,1.02653145790100
366,3310288314,0.803420,-0.070011,0.321466,-0.496261,-4.38993978500366,-4.31009817123413,7.81339931488037,-0.91631352901459,0.55807512998581,1.08185493946075
367,3310304981,0.803442,-0.069994,0.321473,-0.496222,-4.42604398727417,-4.33915567398071,7.76706361770630,0.93515813350677,0.61763751506805,1.34163177013397
368,3310321648,0.803497,-0.069968,0.321468,-0.496140,-4.41993665695190,-4.33442640304565,7.76680421829224,1.02808070182800,0.56879389286041,1.56598591804504
369,3310338315,0.803534,-0.069838,0.321415,-0.496133,-4.45587062835693,-4.30102348327637,7.78849935531616,1.87318491935730,0.68698388338089,1.37924396991730
370,3310354982,0.803526,-0.069737,0.321371,-0.496189,-4.46254920959473,-4.24873781204224,7.82038784027100,1.79172360897064,0.75476789474487,0.84519344568253
371,3310371649,0.803486,-0.069875,0.321458,-0.496179,-4.44202899932861,-4.26988697052002,7.81631612777710,-0.15214584767818,0.69001889228821,0.64697676897049
372,3310388316,0.803461,-0.069949,0.321519,-0.496168,-4.41311740875244,-4.33427524566650,7.79020118713379,0.31214195489883,0.74808281660080,0.80635178089142
373,3310404983,0.803468,-0.069920,0.321520,-0.496160,-4.42770862579346,-4.33099365234375,7.78283643722534,1.11942875385284,0.70837050676346,1.08010041713715
374,3310421650,0.803483,-0.069809,0.321480,-0.496178,-4.44598484039307,-4.30130577087402,7.77781581878662,1.71827924251556,0.71038103103638,1.21938228607178
375,3310438317,0.803495,-0.069708,0.321432,-0.496205,-4.45521259307861,-4.23712778091431,7.82238626480103,1.76384413242340,0.68753445148468,1.04320526123047
376,3310454984,0.803482,-0.069822,0.321502,-0.496163,-4.43595600128174,-4.25958585739136,7.81255245208740,0.00548111787066,0.62921434640884,0.92625766992569
377,3310471651,0.803458,-0.069997,0.321611,-0.496107,-4.41493511199951,-4.30222177505493,7.80322074890137,-0.49430587887764,0.65297007560730,0.83866220712662
378,3310488318,0.803465,-0.070013,0.321612,-0.496094,-4.42583560943604,-4.32014417648315,7.77980613708496,0.84246581792831,0.54598587751389,1.02902865409851
379,3310504985,0.803468,-0.070008,0.321611,-0.496089,-4.43534898757935,-4.27756738662720,7.78908109664917,1.00090575218201,0.62976503372192,0.99748647212982
380,3310521652,0.803471,-0.070099,0.321665,-0.496036,-4.44170522689819,-4.29680490493774,7.80706357955933,0.18498773872852,0.59046238660812,1.05126047134399
381,3310538319,0.803461,-0.070124,0.321692,-0.496032,-4.42016077041626,-4.31449222564697,7.79409790039062,0.69295161962509,0.66783839464188,0.95738995075226
382,3310554986,0.803448,-0.070132,0.321696,-0.496049,-4.43646621704102,-4.29341506958008,7.80526638031006,0.92418307065964,0.62857407331467,0.84925305843353
383,3310571653,0.803415,-0.070235,0.321750,-0.496053,-4.44523811340332,-4.24872779846191,7.81867456436157,0.20373620092869,0.63711589574814,0.62415581941605
384,3310588320,0.803361,-0.070500,0.321880,-0.496019,-4.43910408020020,-4.28216409683228,7.80939817428589,-1.04313492774963,0.53070795536041,0.45097562670708
385,3310604987,0.803292,-0.070722,0.321998,-0.496023,-4.44404029846191,-4.34426784515381,7.78492593765259,-0.69823420047760,0.65095949172974,0.29809337854385
386,3310621654,0.803256,-0.070913,0.322093,-0.495992,-4.42271423339844,-4.36690187454224,7.75963830947876,-0.46236681938171,0.59249854087830,0.56759017705917
387,3310638321,0.803241,-0.070895,0.322093,-0.496019,-4.41517925262451,-4.36443233489990,7.76111602783203,1.15492796897888,0.75460141897202,0.75196331739426
388,3310654988,0.803226,-0.070886,0.322082,-0.496051,-4.44776391983032,-4.30171680450439,7.77395009994507,1.14611721038818,0.66161441802979,0.69979017972946
389,3310671655,0.803194,-0.070998,0.322138,-0.496051,-4.43291425704956,-4.28803682327271,7.80573081970215,0.15005199611187,0.62614083290100,0.61949431896210
390,3310688322,0.803149,-0.071194,0.322241,-0.496028,-4.44339609146118,-4.29859352111816,7.80673742294312,-0.57498586177826,0.56992089748383,0.60563778877258
391,3310704989,0.803113,-0.071307,0.322298,-0.496034,-4.42056655883789,-4.32965993881226,7.81318855285645,0.12714143097401,0.61397480964661,0.61969923973083
392,3310721656,0.803100,-0.071436,0.322351,-0.496001,-4.42404747009277,-4.36320638656616,7.79702949523926,0.01226848363876,0.49262189865112,0.81539314985275
393,3310738323,0.803134,-0.071448,0.322363,-0.495936,-4.42515993118286,-4.38668489456177,7.75129175186157,0.72158664464951,0.52191007137299,1.43246722221375
394,3310754990,0.803169,-0.071267,0.322246,-0.495982,-4.43676042556763,-4.29757547378540,7.78457832336426,2.47371292114258,0.52057808637619,1.19247603416443
395,3310771657,0.803180,-0.071329,0.322279,-0.495934,-4.44086313247681,-4.26731538772583,7.81422185897827,0.40986722707748,0.53858381509781,1.15524792671204
396,3310788324,0.803211,-0.071413,0.322336,-0.495835,-4.39959335327148,-4.35001516342163,7.77591896057129,0.10962236672640,0.53448581695557,1.44431304931641
397,3310804991,0.803244,-0.071281,0.322285,-0.495834,-4.40092515945435,-4.31469345092773,7.78894996643066,1.90278017520905,0.72573584318161,1.32695555686951
398,3310821658,0.803238,-0.071372,0.322317,-0.495809,-4.49178695678711,-4.32104063034058,7.80403470993042,0.29368799924850,0.48027649521828,0.89851909875870
399,3310838325,0.803210,-0.071512,0.322357,-0.495809,-4.46451902389526,-4.35081005096436,7.79633617401123,0.04311897978187,0.41730773448944,0.58231747150421
400,3310854992,0.803176,-0.071585,0.322355,-0.495855,-4.44419908523560,-4.33418989181519,7.77375173568726,0.65784937143326,0.45780137181282,0.42520922422409
401,3310871659,0.803152,-0.071701,0.322399,-0.495847,-4.42029666900635,-4.32618236541748,7.78684329986572,0.15499527752399,0.52609765529633,0.67512518167496
402,3310888326,0.803127,-0.071686,0.322393,-0.495895,-4.39443778991699,-4.33124637603760,7.78897476196289,1.15610599517822,0.69655019044876,0.66480320692062
403,3310904993,0.803151,-0.071691,0.322404,-0.495847,-4.40723705291748,-4.35180997848511,7.74783277511597,0.81302386522293,0.58979636430740,1.29094398021698
404,3310921660,0.803171,-0.071502,0.322313,-0.495901,-4.40895557403564,-4.28896808624268,7.78851318359375,2.41851758956909,0.70810139179230,1.16722190380096
405,3310938327,0.803183,-0.071553,0.322359,-0.495844,-4.45030307769775,-4.32463645935059,7.81431865692139,0.39699685573578,0.62968820333481,1.25055289268494
406,3310954994,0.803209,-0.071547,0.322346,-0.495812,-4.44751119613647,-4.34808158874512,7.80427742004395,1.01376342773438,0.51988655328751,1.18782746791840
407,3310971661,0.803209,-0.071522,0.322301,-0.495846,-4.45277547836304,-4.26386165618896,7.82077741622925,1.32945263385773,0.46150237321854,0.81808239221573
408,3310988328,0.803200,-0.071743,0.322415,-0.495753,-4.42860698699951,-4.38673496246338,7.76256704330444,-0.85599559545517,0.46456310153008,1.01880908012390
409,3311004995,0.803253,-0.071596,0.322300,-0.495764,-4.39369583129883,-4.41083717346191,7.77217626571655,2.20636725425720,0.35668241977692,1.37793755531311
410,3311021662,0.803284,-0.071324,0.322112,-0.495874,-4.46081113815308,-4.22208690643311,7.80725479125977,3.36152577400208,0.48017403483391,0.99144196510315
411,3311038329,0.803249,-0.071664,0.322297,-0.495761,-4.44289922714233,-4.25012922286987,7.83218288421631,-1.78387963771820,0.52253741025925,0.76467990875244
412,3311054996,0.803195,-0.071871,0.322414,-0.495743,-4.40032720565796,-4.38193130493164,7.76969432830811,-0.73415607213974,0.57318663597107,0.63496440649033
413,3311071663,0.803198,-0.071825,0.322392,-0.495760,-4.39245033264160,-4.34561872482300,7.74625349044800,1.34557604789734,0.67141139507294,0.95599406957626
414,3311088330,0.803228,-0.071938,0.322489,-0.495632,-4.43066596984863,-4.39365720748901,7.76537370681763,-0.25153595209122,0.63456749916077,1.55978786945343
415,3311104997,0.803262,-0.071747,0.322388,-0.495669,-4.45699501037598,-4.34678554534912,7.79622840881348,2.47218918800354,0.66477763652802,1.23279047012329
416,3311121664,0.803241,-0.071643,0.322321,-0.495763,-4.45573902130127,-4.25401926040649,7.81737327575684,1.99283444881439,0.71611821651459,0.53627872467041
417,3311138331,0.803188,-0.071818,0.322453,-0.495737,-4.41168498992920,-4.31831645965576,7.78667831420898,-0.53360855579376,0.84863829612732,0.60647022724152
418,3311154998,0.803149,-0.071797,0.322460,-0.495798,-4.40532398223877,-4.38269424438477,7.77282524108887,1.10710895061493,0.78085434436798,0.65437877178192
419,3311171665,0.803166,-0.071702,0.322427,-0.495807,-4.42268466949463,-4.37029981613159,7.76596450805664,1.63633143901825,0.72288006544113,1.16551876068115
420,3311188332,0.803180,-0.071557,0.322373,-0.495840,-4.42535972595215,-4.29060459136963,7.80517053604126,2.04503345489502,0.81252455711365,1.09746587276459
421,3311204999,0.803201,-0.071471,0.322363,-0.495824,-4.44906806945801,-4.26405143737793,7.81760835647583,1.45221459865570,0.80175435543060,1.30770754814148
422,3311221666,0.803183,-0.071538,0.322437,-0.495796,-4.40873098373413,-4.30260753631592,7.78475284576416,0.27774411439896,0.82202678918839,0.94152289628983
423,3311238333,0.803186,-0.071609,0.322516,-0.495730,-4.38978624343872,-4.39940834045410,7.74238729476929,0.15929819643497,0.77547580003738,1.21688497066498
424,3311255000,0.803205,-0.071413,0.322440,-0.495777,-4.42151165008545,-4.38043069839478,7.75781202316284,2.39523577690125,0.82303857803345,1.20717775821686
425,3311271667,0.803222,-0.071203,0.322356,-0.495834,-4.47280597686768,-4.28039979934692,7.81936359405518,2.52400350570679,0.82876300811768,1.17917025089264
426,3311288334,0.803186,-0.071352,0.322450,-0.495809,-4.46234512329102,-4.27179574966431,7.81467866897583,-0.25971919298172,0.67995315790176,0.71898698806763
427,3311305001,0.803169,-0.071531,0.322543,-0.495751,-4.44015407562256,-4.36300468444824,7.76624059677124,-0.47468653321266,0.53542065620422,0.87133121490479
428,3311321668,0.803138,-0.071492,0.322537,-0.495811,-4.42176008224487,-4.33302831649780,7.76424360275269,1.29408156871796,0.78546458482742,0.65307259559631
429,3311338335,0.803126,-0.071432,0.322534,-0.495841,-4.42912483215332,-4.36625671386719,7.76441812515259,1.32089805603027,0.79796361923218,0.97047787904739
430,3311355002,0.803149,-0.071300,0.322474,-0.495862,-4.43254232406616,-4.31471204757690,7.77838706970215,1.94013643264771,0.68077278137207,1.21871638298035
431,3311371669,0.803164,-0.071231,0.322434,-0.495874,-4.43470478057861,-4.28968429565430,7.80469083786011,1.57053220272064,0.65086984634399,1.00076496601105
432,3311388336,0.803161,-0.071373,0.322527,-0.495797,-4.45233678817749,-4.30981731414795,7.78332614898682,-0.29438599944115,0.62885582447052,1.08841168880463
433,3311405003,0.803146,-0.071309,0.322519,-0.495835,-4.44741296768188,-4.31848144531250,7.78749799728394,1.39379167556763,0.80785006284714,0.89865982532501
434,3311421670,0.803161,-0.071394,0.322589,-0.495754,-4.44503021240234,-4.33743858337402,7.76789379119873,0.08946516364813,0.64675909280777,1.30218803882599
435,3311438337,0.803167,-0.071264,0.322550,-0.495788,-4.39907646179199,-4.36335086822510,7.76169824600220,1.89172852039337,0.84037834405899,1.07075178623199
436,3311455004,0.803182,-0.071188,0.322537,-0.495783,-4.44360876083374,-4.33950662612915,7.80302238464355,1.42030107975006,0.75807183980942,1.22514498233795
437,3311471671,0.803186,-0.071128,0.322523,-0.495794,-4.43449449539185,-4.29479885101318,7.82425403594971,1.34981465339661,0.71668165922165,1.07915234565735
438,3311488338,0.803173,-0.071140,0.322540,-0.495802,-4.43724441528320,-4.31061220169067,7.78710937500000,0.81085962057114,0.66403484344482,0.92651379108429
439,3311505005,0.803157,-0.071226,0.322577,-0.495792,-4.43005371093750,-4.31999158859253,7.77345657348633,0.36672264337540,0.58343166112900,0.74764746427536
440,3311521672,0.803153,-0.071286,0.322620,-0.495762,-4.41885519027710,-4.35566425323486,7.77393007278442,0.44149896502495,0.66614794731140,0.96626472473145
441,3311538339,0.803145,-0.071284,0.322639,-0.495763,-4.43257522583008,-4.38042354583740,7.76223611831665,0.91689610481262,0.75438368320465,0.93349319696426
442,3311555006,0.803160,-0.071084,0.322532,-0.495837,-4.43306684494019,-4.31082963943481,7.79403877258301,2.61951303482056,0.71920454502106,0.97798246145248
443,3311571673,0.803159,-0.071125,0.322576,-0.495804,-4.40563344955444,-4.29112386703491,7.79369449615479,0.51194661855698,0.70091718435287,1.08172678947449
444,3311588340,0.803177,-0.071087,0.322576,-0.495780,-4.43267488479614,-4.30325984954834,7.79060649871826,1.15610623359680,0.71321123838425,1.20218336582184
445,3311605007,0.803184,-0.071132,0.322643,-0.495719,-4.44719982147217,-4.30570602416992,7.76066875457764,0.34388893842697,0.78181481361389,1.28094232082367
446,3311621674,0.803176,-0.071283,0.322753,-0.495638,-4.44361591339111,-4.40185832977295,7.75538682937622,-0.42420396208763,0.68061912059784,1.10402262210846
447,3311638341,0.803171,-0.071114,0.322653,-0.495737,-4.48105382919312,-4.36913967132568,7.75833988189697,2.40860533714294,0.65646630525589,0.81398433446884
448,3311655008,0.803139,-0.071093,0.322630,-0.495805,-4.47089338302612,-4.25063371658325,7.79435539245605,1.30792534351349,0.67036122083664,0.49736022949219
449,3311671675,0.803096,-0.071347,0.322785,-0.495739,-4.40973281860352,-4.32367372512817,7.75994968414307,-1.12773346900940,0.67831391096115,0.68419200181961
450,3311688342,0.803085,-0.071319,0.322783,-0.495761,-4.40521764755249,-4.36985111236572,7.75194787979126,1.16093397140503,0.72130477428436,0.88819718360901
451,3311705009,0.803109,-0.071266,0.322774,-0.495736,-4.44120931625366,-4.32755851745605,7.76385974884033,1.24795317649841,0.68835407495499,1.29308283329010
452,3311721676,0.803123,-0.071194,0.322754,-0.495736,-4.43565320968628,-4.29095315933228,7.79895496368408,1.46797883510590,0.74622595310211,1.11353766918182
453,3311738343,0.803116,-0.071255,0.322795,-0.495712,-4.47403764724731,-4.29182291030884,7.82100915908813,0.41247972846031,0.62174820899963,0.99005895853043
454,3311755010,0.803099,-0.071370,0.322863,-0.495679,-4.41261243820190,-4.34686326980591,7.77921199798584,-0.00891962181777,0.58776015043259,0.92146807909012
455,3311771677,0.803108,-0.071390,0.322872,-0.495657,-4.41942977905273,-4.38333988189697,7.75668716430664,0.78222465515137,0.57658028602600,1.06643593311310
456,3311788344,0.803121,-0.071264,0.322820,-0.495688,-4.42369461059570,-4.34881639480591,7.75249385833740,1.88164985179901,0.70863938331604,1.14957487583160
457,3311805011,0.803114,-0.071130,0.322737,-0.495772,-4.45797920227051,-4.29221630096436,7.77328872680664,2.13247489929199,0.63016206026077,0.80300939083099
458,3311821678,0.803092,-0.071182,0.322752,-0.495789,-4.44955062866211,-4.28096866607666,7.79195022583008,0.67255103588104,0.59394568204880,0.67047637701035
459,3311838345,0.803064,-0.071335,0.322815,-0.495772,-4.41533946990967,-4.32450246810913,7.77602005004883,-0.15544986724854,0.48634672164917,0.67188507318497
460,3311855012,0.803060,-0.071381,0.322827,-0.495764,-4.42505264282227,-4.32890319824219,7.73633909225464,0.68991655111313,0.56633520126343,0.83811163902283
461,3311871679,0.803069,-0.071340,0.322816,-0.495762,-4.40155935287476,-4.35281467437744,7.75352716445923,1.24312520027161,0.68111854791641,1.07331299781799
462,3311888346,0.803108,-0.071168,0.322749,-0.495768,-4.42627143859863,-4.35207414627075,7.76039743423462,2.12335681915283,0.70057141780853,1.49991822242737
463,3311905013,0.803131,-0.070960,0.322630,-0.495838,-4.46727132797241,-4.27162933349609,7.80281782150269,2.71630382537842,0.68160516023636,1.00684809684753
464,3311921680,0.803093,-0.071080,0.322678,-0.495851,-4.47035932540894,-4.25115585327148,7.80721473693848,0.14907871186733,0.55578273534775,0.52800577878952
465,3311938347,0.803054,-0.071312,0.322800,-0.495802,-4.43302106857300,-4.34931659698486,7.75205659866333,-0.84179347753525,0.57911592721939,0.62094157934189
466,3311955014,0.803035,-0.071332,0.322813,-0.495822,-4.40069103240967,-4.38260269165039,7.76464796066284,0.84007102251053,0.66363793611526,0.75921171903610
467,3311971681,0.803046,-0.071245,0.322757,-0.495852,-4.43146991729736,-4.35885381698608,7.75606489181519,1.70849502086639,0.59224241971970,1.01289260387421
468,3311988348,0.803064,-0.071089,0.322660,-0.495909,-4.44881057739258,-4.28565359115601,7.79728174209595,2.28607416152954,0.59751862287521,1.01585090160370
469,3312005015,0.803058,-0.071162,0.322716,-0.495871,-4.44066572189331,-4.25911140441895,7.77170276641846,0.30840250849724,0.69076168537140,0.98628103733063
470,3312021682,0.803048,-0.071286,0.322795,-0.495818,-4.44518661499023,-4.31523370742798,7.76560306549072,-0.09573387354612,0.64303243160248,0.96369069814682
471,3312038349,0.803035,-0.071389,0.322866,-0.495777,-4.41611099243164,-4.36483240127563,7.77459812164307,0.06704123318195,0.67337065935135,0.93487626314163
472,3312055016,0.803044,-0.071343,0.322859,-0.495775,-4.43934583663940,-4.40126609802246,7.75504398345947,1.19204068183899,0.66189622879028,1.19008135795593
473,3312071683,0.803051,-0.071172,0.322777,-0.495841,-4.45224618911743,-4.29858207702637,7.82023477554321,2.32536411285400,0.75220650434494,0.99415689706802
474,3312088350,0.803025,-0.071180,0.322797,-0.495868,-4.45577001571655,-4.26211118698120,7.82004642486572,0.88876068592072,0.75265479087830,0.74748104810715
475,3312105017,0.802987,-0.071355,0.322899,-0.495840,-4.42980957031250,-4.35235118865967,7.75998926162720,-0.45495203137398,0.63207024335861,0.69113314151764
476,3312121684,0.802982,-0.071283,0.322861,-0.495882,-4.41788387298584,-4.37475299835205,7.74433088302612,1.59430086612701,0.69050556421280,0.83960986137390
477,3312138351,0.802983,-0.071164,0.322811,-0.495931,-4.44506978988647,-4.32592391967773,7.75718450546265,1.91477990150452,0.77142900228500,0.93007403612137
478,3312155018,0.802983,-0.071074,0.322762,-0.495975,-4.44465684890747,-4.29600906372070,7.77070140838623,1.71488535404205,0.66709554195404,0.90702247619629
479,3312171685,0.802980,-0.071010,0.322752,-0.495996,-4.43276786804199,-4.30694770812988,7.76791620254517,1.42091560363770,0.81187129020691,0.94877123832703
480,3312188352,0.802980,-0.070917,0.322719,-0.496031,-4.42579698562622,-4.32164525985718,7.76393175125122,1.66275072097778,0.76053065061569,0.97652250528336
481,3312205019,0.802984,-0.070856,0.322707,-0.496041,-4.42096185684204,-4.34062480926514,7.74871444702148,1.30836069583893,0.70128858089447,1.14958751201630
482,3312221686,0.803019,-0.070722,0.322641,-0.496046,-4.43639326095581,-4.36471509933472,7.77895116806030,1.95757877826691,0.62991875410080,1.32155132293701
483,3312238353,0.803049,-0.070551,0.322561,-0.496075,-4.46008729934692,-4.29392766952515,7.78619289398193,2.27321672439575,0.71217387914658,1.23686289787292
484,3312255020,0.803048,-0.070467,0.322521,-0.496113,-4.44153022766113,-4.27541303634644,7.80523014068604,1.66080391407013,0.71679693460464,0.90077292919159
485,3312271687,0.803034,-0.070455,0.322537,-0.496128,-4.43506956100464,-4.32306766510010,7.78930807113647,1.00975501537323,0.78373575210571,0.86135506629944
486,3312288354,0.803018,-0.070373,0.322482,-0.496201,-4.41533899307251,-4.34217786788940,7.78749990463257,1.74883508682251,0.65599250793457,0.68389743566513
487,3312305021,0.803037,-0.070295,0.322453,-0.496199,-4.43118238449097,-4.35261344909668,7.78045320510864,1.49483382701874,0.66918301582336,1.21140372753143
488,3312321688,0.803048,-0.070100,0.322361,-0.496270,-4.44712066650391,-4.28319168090820,7.78414773941040,2.52173686027527,0.78605377674103,0.99201816320419
489,3312338355,0.803044,-0.070127,0.322386,-0.496256,-4.47489404678345,-4.23331451416016,7.82186889648438,0.68758577108383,0.65229147672653,1.00371038913727
490,3312355022,0.803007,-0.070304,0.322500,-0.496217,-4.43659162521362,-4.30717945098877,7.80216979980469,-0.48890164494514,0.71850025653839,0.69980305433273
491,3312371689,0.802992,-0.070406,0.322569,-0.496182,-4.43669128417969,-4.35232448577881,7.76874828338623,0.11810015141964,0.69793325662613,0.84924024343491
492,3312388356,0.803003,-0.070372,0.322560,-0.496174,-4.41772985458374,-4.34736633300781,7.75025463104248,1.17698049545288,0.66067963838577,1.10649430751801
493,3312405023,0.803029,-0.070231,0.322472,-0.496209,-4.45322418212891,-4.32235956192017,7.80095338821411,2.14890551567078,0.57961541414261,1.11510014533997
494,3312421690,0.803046,-0.070043,0.322359,-0.496282,-4.45882511138916,-4.25789260864258,7.79843950271606,2.54790019989014,0.62109512090683,1.00597727298737
495,3312438357,0.803022,-0.070182,0.322418,-0.496263,-4.43576192855835,-4.27915859222412,7.80221796035767,-0.03138196095824,0.53371745347977,0.66949033737183
496,3312455024,0.803043,-0.070123,0.322364,-0.496272,-4.44325637817383,-4.32702398300171,7.77435064315796,1.55479323863983,0.52798014879227,1.00561869144440
497,3312471691,0.803030,-0.070053,0.322323,-0.496330,-4.41495418548584,-4.28568696975708,7.79536247253418,1.59756648540497,0.66810721158981,0.76624226570129
498,3312488358,0.803063,-0.070163,0.322400,-0.496212,-4.42043924331665,-4.38437604904175,7.73470306396484,-0.10307190567255,0.57996112108231,1.44327557086945
499,3312505025,0.803101,-0.069646,0.322133,-0.496396,-4.40014076232910,-4.29230117797852,7.75486564636230,5.12456417083740,0.87536537647247,1.15796315670013
500,3312521692,0.803114,-0.069574,0.322099,-0.496407,-4.49383068084717,-4.22657060623169,7.80288791656494,1.52870643138885,0.66984879970551,1.05589628219604
501,3312538359,0.803073,-0.069671,0.322141,-0.496431,-4.46896791458130,-4.30186367034912,7.80172824859619,0.31802010536194,0.61813694238663,0.50496715307236
502,3312555026,0.803039,-0.069693,0.322119,-0.496499,-4.45179939270020,-4.30702781677246,7.80339813232422,1.07902467250824,0.54950767755508,0.36872044205666
503,3312571693,0.803024,-0.069817,0.322208,-0.496447,-4.39987468719482,-4.37118911743164,7.77196025848389,-0.18391840159893,0.65563386678696,1.03311383724213
504,3312588360,0.803064,-0.069432,0.321997,-0.496575,-4.42674446105957,-4.32168817520142,7.77500057220459,4.11865043640137,0.74103945493698,1.14707756042480
505,3312605027,0.803088,-0.069205,0.321855,-0.496659,-4.46625900268555,-4.18200016021729,7.84420537948608,2.90722084045410,0.59498304128647,1.01432681083679
506,3312621694,0.803065,-0.069472,0.321994,-0.496568,-4.42186927795410,-4.27416801452637,7.80656766891479,-1.17804980278015,0.50106126070023,0.83311700820923
507,3312638361,0.803065,-0.069390,0.321945,-0.496611,-4.41819477081299,-4.37642908096313,7.76156377792358,1.68120479583740,0.64654135704041,0.88009077310562
508,3312655028,0.803109,-0.069159,0.321800,-0.496667,-4.43907308578491,-4.32939004898071,7.78753328323364,2.90353226661682,0.55154389142990,1.21757650375366
509,3312671695,0.803128,-0.069064,0.321721,-0.496700,-4.46621561050415,-4.24177074432373,7.79933214187622,1.84458827972412,0.47720301151276,1.01829695701599
510,3312688362,0.803125,-0.069041,0.321693,-0.496727,-4.47491645812988,-4.26478719711304,7.81229305267334,1.24749207496643,0.56117421388626,0.84173572063446
511,3312705029,0.803109,-0.069064,0.321705,-0.496742,-4.41761302947998,-4.30557346343994,7.79420614242554,0.79225206375122,0.61424380540848,0.83916175365448
512,3312721696,0.803115,-0.068920,0.321626,-0.496802,-4.41761255264282,-4.34764099121094,7.78237676620483,2.17646455764771,0.69653737545013,0.91634565591812
513,3312738363,0.803123,-0.068688,0.321472,-0.496921,-4.44780588150024,-4.26850652694702,7.81792068481445,3.04656696319580,0.60192406177521,0.77224856615067
514,3312755030,0.803118,-0.068731,0.321488,-0.496913,-4.44917249679565,-4.24662256240845,7.82850551605225,0.65455818176270,0.56742376089096,0.89406251907349
515,3312771697,0.803092,-0.068853,0.321548,-0.496900,-4.44163417816162,-4.28323650360107,7.78632783889771,0.01978580839932,0.54985338449478,0.76309192180634
516,3312788364,0.803080,-0.068988,0.321624,-0.496851,-4.42154026031494,-4.29742765426636,7.79831600189209,-0.16136640310287,0.57227730751038,0.94446820020676
517,3312805031,0.803096,-0.068978,0.321621,-0.496829,-4.41937971115112,-4.34693050384521,7.78608465194702,0.98859900236130,0.58782428503036,1.16895079612732
518,3312821698,0.803127,-0.068877,0.321554,-0.496835,-4.45291757583618,-4.29159259796143,7.80321455001831,1.77613842487335,0.52192282676697,1.23509573936462
519,3312838365,0.803131,-0.068837,0.321530,-0.496851,-4.44397163391113,-4.23509263992310,7.81459331512451,1.31021773815155,0.62064701318741,0.97105431556702
520,3312855032,0.803108,-0.068945,0.321589,-0.496834,-4.44654560089111,-4.25143909454346,7.81227397918701,0.11423263698816,0.61342412233353,0.77693557739258
521,3312871699,0.803084,-0.069030,0.321633,-0.496832,-4.42866945266724,-4.28791236877441,7.79039525985718,0.30639192461967,0.59812051057816,0.76101726293564
522,3312888366,0.803079,-0.069076,0.321665,-0.496814,-4.41490364074707,-4.34176158905029,7.77915430068970,0.59293401241302,0.66322809457779,0.91537237167358
523,3312905033,0.803113,-0.068885,0.321556,-0.496857,-4.42249584197998,-4.32850027084351,7.79878044128418,2.51726722717285,0.62406623363495,1.19286048412323
524,3312921700,0.803125,-0.068667,0.321448,-0.496937,-4.43964672088623,-4.22239637374878,7.80908918380737,2.71749448776245,0.77258139848709,1.00264739990234
525,3312938367,0.803119,-0.068728,0.321500,-0.496905,-4.45356655120850,-4.25768613815308,7.79441070556641,0.39228409528732,0.70510482788086,0.98088955879211
526,3312955034,0.803108,-0.068758,0.321516,-0.496908,-4.45667600631714,-4.28557395935059,7.81127119064331,0.75204014778137,0.63532298803329,0.84740895032883
527,3312971701,0.803098,-0.068755,0.321507,-0.496930,-4.44916963577271,-4.28881263732910,7.81171178817749,1.06393873691559,0.60890352725983,0.81053954362869
528,3312988368,0.803090,-0.068735,0.321474,-0.496967,-4.43012666702271,-4.31255197525024,7.80331516265869,1.27215719223022,0.54785567522049,0.74929958581924
529,3313005035,0.803095,-0.068613,0.321374,-0.497041,-4.44151353836060,-4.26945829391479,7.80495977401733,2.16674447059631,0.52263993024826,0.76208031177521
530,3313021702,0.803102,-0.068553,0.321305,-0.497082,-4.44504785537720,-4.25036811828613,7.80738782882690,1.65253138542175,0.46850749850273,0.82663702964783
531,3313038369,0.803101,-0.068583,0.321300,-0.497084,-4.44224405288696,-4.29923772811890,7.80436897277832,0.80189520120621,0.47227257490158,0.91614067554474
532,3313055036,0.803113,-0.068479,0.321223,-0.497129,-4.41849374771118,-4.27751159667969,7.78716564178467,1.91197526454926,0.54561454057693,0.94430184364319
533,3313071703,0.803132,-0.068409,0.321156,-0.497149,-4.44485950469971,-4.26675987243652,7.81119060516357,1.64972651004791,0.46706029772758,1.01772046089172
534,3313088370,0.803150,-0.068340,0.321100,-0.497167,-4.43604755401611,-4.26483917236328,7.81158876419067,1.56380891799927,0.49120032787323,1.09256088733673
535,3313105037,0.803167,-0.068303,0.321049,-0.497177,-4.44765806198120,-4.24477958679199,7.81192064285278,1.38148498535156,0.42572146654129,1.02563488483429
536,3313121704,0.803178,-0.068410,0.321084,-0.497122,-4.44552373886108,-4.27414274215698,7.81474447250366,0.14409704506397,0.40092837810516,1.07084131240845
537,3313138371,0.803175,-0.068426,0.321073,-0.497132,-4.41374635696411,-4.32227897644043,7.79210567474365,0.97652250528336,0.55158221721649,0.79541510343552
538,3313155038,0.803196,-0.068308,0.320985,-0.497172,-4.42229270935059,-4.31969022750854,7.78055143356323,2.02395415306091,0.51334255933762,1.01706755161285
539,3313171705,0.803215,-0.068132,0.320876,-0.497236,-4.42912864685059,-4.25876665115356,7.81228971481323,2.46057367324829,0.60073310136795,1.02512276172638
540,3313188372,0.803207,-0.068066,0.320815,-0.497295,-4.45303583145142,-4.22320556640625,7.81978893280029,1.65267193317413,0.54357826709747,0.74170523881912
541,3313205039,0.803184,-0.068148,0.320843,-0.497304,-4.43640661239624,-4.23229169845581,7.81761121749878,0.42957618832588,0.54469251632690,0.67029714584351
542,3313221706,0.803157,-0.068262,0.320891,-0.497301,-4.41019105911255,-4.26988649368286,7.83523368835449,0.15739005804062,0.55039131641388,0.65834885835648
543,3313238373,0.803159,-0.068244,0.320882,-0.497305,-4.39455842971802,-4.33404874801636,7.79161405563354,1.10184550285339,0.62559014558792,0.99137794971466
544,3313255040,0.803194,-0.068081,0.320795,-0.497328,-4.43969631195068,-4.29412651062012,7.79858207702637,2.24166178703308,0.63750004768372,1.26192486286163
545,3313271707,0.803207,-0.067989,0.320730,-0.497362,-4.46429920196533,-4.22179746627808,7.84985113143921,1.78724133968353,0.56952399015427,0.97932726144791
546,3313288374,0.803176,-0.068139,0.320801,-0.497345,-4.45908546447754,-4.24592876434326,7.83330011367798,-0.17185480892658,0.53398638963699,0.68125933408737
547,3313305041,0.803147,-0.068271,0.320857,-0.497338,-4.43153238296509,-4.30492734909058,7.79600334167480,0.04246585443616,0.56354337930679,0.59503418207169
548,3313321708,0.803147,-0.068175,0.320825,-0.497372,-4.41319704055786,-4.31153392791748,7.78198099136353,1.68473947048187,0.79428827762604,0.96308881044388
549,3313338375,0.803149,-0.068046,0.320766,-0.497424,-4.43761396408081,-4.27326536178589,7.80100584030151,2.03273916244507,0.78514444828033,0.88454747200012
550,3313355042,0.803158,-0.067934,0.320702,-0.497466,-4.46683406829834,-4.25657606124878,7.81222772598267,1.87267267704010,0.62096709012985,1.01912939548492
551,3313371709,0.803156,-0.067708,0.320587,-0.497574,-4.42067527770996,-4.20236730575562,7.84280490875244,2.86015748977661,0.81795442104340,0.78962677717209
552,3313388376,0.803161,-0.067648,0.320550,-0.497598,-4.42571306228638,-4.27748107910156,7.83258533477783,1.49484658241272,0.63305622339249,0.94188141822815
553,3313405043,0.803192,-0.067211,0.320321,-0.497755,-4.39634704589844,-4.29274797439575,7.79264926910400,4.48075008392334,0.80537867546082,1.13365662097931
554,3313421710,0.803240,-0.066722,0.320050,-0.497917,-4.42716598510742,-4.24247694015503,7.81583070755005,4.99999666213989,0.79011338949203,1.13703751564026
555,3313438377,0.803285,-0.066215,0.319743,-0.498111,-4.47784328460693,-4.25431394577026,7.84070873260498,5.29788494110107,0.67990201711655,0.96709728240967
556,3313455044,0.803308,-0.065625,0.319358,-0.498397,-4.46486043930054,-4.18315029144287,7.86571121215820,6.18495559692383,0.59299808740616,0.58664613962173
557,3313471711,0.803320,-0.065321,0.319147,-0.498553,-4.44084119796753,-4.19870901107788,7.84440231323242,3.70412230491638,0.52860778570175,0.73420095443726
558,3313488378,0.803364,-0.065107,0.318978,-0.498619,-4.38986158370972,-4.27422618865967,7.82826519012451,2.92718601226807,0.38257694244385,1.08683657646179
559,3313505045,0.803443,-0.064720,0.318710,-0.498714,-4.41964817047119,-4.19297456741333,7.85201978683472,4.32106781005859,0.38014370203018,1.35418200492859
560,3313521712,0.803502,-0.064615,0.318609,-0.498696,-4.44358921051025,-4.17373418807983,7.87505865097046,1.91641914844513,0.32060694694519,1.38484036922455
561,3313538379,0.803537,-0.064607,0.318565,-0.498669,-4.45087289810181,-4.18255805969238,7.87814331054688,1.11761009693146,0.31089973449707,1.23531329631805
562,3313555046,0.803575,-0.064504,0.318448,-0.498696,-4.45416450500488,-4.22428321838379,7.84313058853149,2.08000755310059,0.31157854199409,1.00812864303589
563,3313571713,0.803601,-0.064077,0.318157,-0.498894,-4.40450239181519,-4.23656129837036,7.84155130386353,4.77958536148071,0.51090931892395,0.74982452392578
564,3313588380,0.803642,-0.063731,0.317908,-0.499031,-4.44717168807983,-4.18322467803955,7.84176206588745,4.07526206970215,0.42537569999695,0.95181912183762
565,3313605047,0.803652,-0.063513,0.317734,-0.499154,-4.43563222885132,-4.14738893508911,7.87569379806519,3.06940007209778,0.45953023433685,0.66943913698196
566,3313621714,0.803632,-0.063522,0.317709,-0.499200,-4.43268871307373,-4.18584871292114,7.85916757583618,1.10011672973633,0.51988655328751,0.60460060834885
567,3313638381,0.803631,-0.063485,0.317641,-0.499251,-4.43408060073853,-4.19742488861084,7.86951637268066,1.56826579570770,0.44152453541756,0.64112436771393
568,3313655048,0.803652,-0.063307,0.317493,-0.499334,-4.42993450164795,-4.19896554946899,7.86828422546387,2.70703196525574,0.45110368728638,0.81222993135452
569,3313671715,0.803686,-0.063026,0.317279,-0.499450,-4.42736291885376,-4.14981174468994,7.84856700897217,3.61995840072632,0.47729265689850,0.77965056896210
570,3313688382,0.803724,-0.062659,0.317039,-0.499588,-4.41498661041260,-4.14632463455200,7.87475538253784,4.15957927703857,0.54160612821579,0.99496382474899
571,3313705049,0.803770,-0.062336,0.316807,-0.499701,-4.42178773880005,-4.14833068847656,7.87391185760498,3.82200431823730,0.40640959143639,1.09120357036591
572,3313721716,0.803810,-0.062124,0.316633,-0.499774,-4.43553018569946,-4.19129800796509,7.90483427047729,2.91941237449646,0.33565443754196,1.07076466083527
573,3313738383,0.803873,-0.061857,0.316411,-0.499846,-4.44400882720947,-4.18049573898315,7.84187984466553,3.42617249488831,0.22957944869995,1.20804870128632
574,3313755050,0.803916,-0.061465,0.316113,-0.500014,-4.42534208297729,-4.11835193634033,7.92714977264404,4.58883571624756,0.34634780883789,0.82603532075882
575,3313771717,0.803935,-0.061315,0.315966,-0.500095,-4.45046281814575,-4.12013816833496,7.88981342315674,2.51821494102478,0.33849745988846,0.79495418071747
576,3313788384,0.803955,-0.061177,0.315822,-0.500170,-4.39804792404175,-4.09689044952393,7.90728378295898,2.42575311660767,0.31416535377502,0.80568587779999
577,3313805051,0.803984,-0.061094,0.315741,-0.500185,-4.40125131607056,-4.10310125350952,7.87523412704468,1.76308870315552,0.40971356630325,1.10284459590912
578,3313821718,0.804006,-0.061177,0.315737,-0.500141,-4.40815734863281,-4.12819814682007,7.89470005035400,0.46255251765251,0.26577016711235,1.05333507061005
579,3313838385,0.804056,-0.061065,0.315654,-0.500128,-4.38255453109741,-4.19585657119751,7.86079597473145,1.90459895133972,0.47037726640701,1.34987902641296
580,3313855052,0.804109,-0.060727,0.315421,-0.500230,-4.44853734970093,-4.14492607116699,7.89164304733276,3.87933778762817,0.41767910122871,1.22157204151154
581,3313871719,0.804143,-0.060696,0.315357,-0.500220,-4.46498107910156,-4.06834602355957,7.93158531188965,1.38085770606995,0.31630405783653,1.12519145011902
582,3313888386,0.804130,-0.060866,0.315422,-0.500180,-4.42788934707642,-4.10939598083496,7.89552354812622,-0.28254008293152,0.41312003135681,0.78810274600983
583,3313905053,0.804108,-0.060928,0.315426,-0.500205,-4.41572427749634,-4.12776899337769,7.89113616943359,0.67612409591675,0.50457018613815,0.58624911308289
584,3313921720,0.804101,-0.061095,0.315515,-0.500139,-4.38458728790283,-4.12055253982544,7.89189147949219,-0.36547401547432,0.55455338954926,0.90429472923279
585,3313938387,0.804126,-0.061114,0.315523,-0.500092,-4.38749933242798,-4.18132686614990,7.87206649780273,0.76543551683426,0.54724091291428,1.23202204704285
586,3313955054,0.804174,-0.060971,0.315413,-0.500102,-4.44120264053345,-4.07605218887329,7.91090393066406,2.19491887092590,0.42024037241936,1.31115257740021
587,3313971721,0.804180,-0.060994,0.315394,-0.500101,-4.43979549407959,-4.02625894546509,7.95657157897949,0.96908217668533,0.48292747139931,0.81212747097015
588,3313988388,0.804160,-0.061142,0.315463,-0.500071,-4.42970132827759,-4.13000774383545,7.89805030822754,-0.13885284960270,0.54150366783142,0.73388063907623
589,3314005055,0.804171,-0.061090,0.315406,-0.500096,-4.41915893554688,-4.17028141021729,7.87656641006470,1.56995582580566,0.51872116327286,0.85855048894882
590,3314021722,0.804189,-0.061016,0.315343,-0.500116,-4.41089248657227,-4.13508176803589,7.89454936981201,1.67573630809784,0.52079582214355,0.99433618783951
591,3314038389,0.804221,-0.060914,0.315245,-0.500138,-4.41043853759766,-4.12331962585449,7.87591075897217,1.94395279884338,0.38009247183800,1.10914516448975
592,3314055056,0.804237,-0.060880,0.315202,-0.500144,-4.41573095321655,-4.10368013381958,7.88444757461548,1.37245666980743,0.51654416322708,0.94295722246170
593,3314071723,0.804240,-0.060969,0.315218,-0.500119,-4.43801879882812,-4.10323095321655,7.90381336212158,0.43276494741440,0.43962916731834,0.82679075002670
594,3314088390,0.804216,-0.060903,0.315138,-0.500215,-4.41459560394287,-4.11468315124512,7.90396404266357,1.76944041252136,0.46204027533531,0.51601910591125
595,3314105057,0.804205,-0.060872,0.315081,-0.500272,-4.44627666473389,-4.12085151672363,7.91565895080566,1.48078548908234,0.47980269789696,0.61296314001083
596,3314121724,0.804188,-0.060963,0.315102,-0.500276,-4.42690467834473,-4.13079309463501,7.91988277435303,0.42935848236084,0.49532398581505,0.62840753793716
597,3314138391,0.804176,-0.061080,0.315144,-0.500254,-4.40701770782471,-4.13684844970703,7.90886592864990,0.20313434302807,0.53609943389893,0.67271763086319
598,3314155058,0.804154,-0.061200,0.315180,-0.500253,-4.40940952301025,-4.12627363204956,7.87645721435547,0.17189963161945,0.45513767004013,0.64006137847900
599,3314171725,0.804135,-0.061350,0.315214,-0.500243,-4.40371990203857,-4.10359811782837,7.90641927719116,0.05175045877695,0.38370385766029,0.53211665153503
600,3314188392,0.804120,-0.061593,0.315311,-0.500176,-4.39877033233643,-4.15428590774536,7.88661384582520,-0.80159419775009,0.38064309954643,0.70232576131821
601,3314205059,0.804130,-0.061660,0.315318,-0.500147,-4.45509624481201,-4.13720989227295,7.91309499740601,0.54843193292618,0.42301931977272,0.95687758922577
602,3314221726,0.804146,-0.061648,0.315289,-0.500143,-4.39190673828125,-4.07756567001343,7.92771625518799,1.11927497386932,0.45013040304184,1.07860207557678
603,3314238393,0.804170,-0.061660,0.315284,-0.500105,-4.39096069335938,-4.17543601989746,7.86809301376343,0.86437726020813,0.50025445222855,1.18904387950897
604,3314255060,0.804244,-0.061323,0.315097,-0.500146,-4.39692115783691,-4.11056661605835,7.88216876983643,3.64204978942871,0.64310938119888,1.56715178489685
605,3314271727,0.804269,-0.061299,0.315073,-0.500123,-4.41805362701416,-4.07377576828003,7.91757440567017,1.17389404773712,0.53298753499985,1.15743792057037
606,3314288394,0.804267,-0.061471,0.315131,-0.500069,-4.45922470092773,-4.14272689819336,7.91970968246460,-0.24713054299355,0.38142433762550,0.81769829988480
607,3314305061,0.804251,-0.061471,0.315092,-0.500119,-4.43153476715088,-4.15661907196045,7.90494537353516,1.21565568447113,0.46323132514954,0.59608435630798
608,3314321728,0.804260,-0.061464,0.315056,-0.500127,-4.40774059295654,-4.15453243255615,7.86546087265015,1.17719817161560,0.45842891931534,0.89700800180435
609,3314338395,0.804288,-0.061360,0.314971,-0.500150,-4.39014387130737,-4.13308191299438,7.88056230545044,1.96167671680450,0.51472556591034,1.01408362388611
610,3314355062,0.804315,-0.061174,0.314842,-0.500211,-4.40100336074829,-4.09779739379883,7.89934492111206,2.59318327903748,0.51558369398117,1.05427002906799
611,3314371729,0.804335,-0.061045,0.314750,-0.500252,-4.39843082427979,-4.07992029190063,7.92377614974976,2.09420967102051,0.53087449073792,1.03977322578430
612,3314388396,0.804357,-0.061059,0.314750,-0.500214,-4.39144897460938,-4.10970449447632,7.90506792068481,0.90803414583206,0.59202468395233,1.06459176540375
613,3314405063,0.804370,-0.061117,0.314782,-0.500165,-4.39831972122192,-4.18354225158691,7.91001749038696,0.46110537648201,0.56396597623825,1.12332177162170
614,3314421730,0.804406,-0.060953,0.314665,-0.500202,-4.42445850372314,-4.13438606262207,7.89397859573364,2.36821413040161,0.46603593230247,1.20297729969025
615,3314438397,0.804437,-0.060695,0.314484,-0.500297,-4.42530107498169,-4.05388402938843,7.92680072784424,3.27673506736755,0.52100068330765,0.95344555377960
616,3314455064,0.804442,-0.060713,0.314457,-0.500304,-4.44472932815552,-4.07192325592041,7.94211339950562,1.00876891613007,0.42271196842194,0.83862382173538
617,3314471731,0.804427,-0.060766,0.314453,-0.500324,-4.40458440780640,-4.11500358581543,7.89683294296265,0.73213893175125,0.46659931540489,0.67150092124939
618,3314488398,0.804431,-0.060630,0.314322,-0.500416,-4.38919019699097,-4.16124439239502,7.89872980117798,2.38683485984802,0.40351530909538,0.67906951904297
619,3314505065,0.804458,-0.060454,0.314168,-0.500491,-4.41037368774414,-4.12939310073853,7.90256309509277,2.65589618682861,0.35586285591125,0.93131625652313
620,3314521732,0.804474,-0.060247,0.314032,-0.500576,-4.39255142211914,-4.04571199417114,7.90893888473511,2.77299737930298,0.58099848031998,0.93859010934830
621,3314538399,0.804483,-0.060315,0.314086,-0.500519,-4.40343856811523,-4.07979726791382,7.91649055480957,0.31664979457855,0.66589176654816,1.14411926269531
622,3314555066,0.804479,-0.060386,0.314139,-0.500483,-4.41808509826660,-4.13295984268188,7.90905189514160,0.31433185935020,0.66322809457779,1.01464724540710
623,3314571733,0.804485,-0.060382,0.314122,-0.500486,-4.41310834884644,-4.14392518997192,7.91262578964233,1.14911377429962,0.61724048852921,0.80190801620483
624,3314588400,0.804478,-0.060286,0.314048,-0.500554,-4.41052913665771,-4.12539243698120,7.90399932861328,1.93788266181946,0.61749660968781,0.67639297246933
625,3314605067,0.804483,-0.060203,0.313989,-0.500594,-4.42137002944946,-4.10871934890747,7.91228103637695,1.75051271915436,0.61206662654877,0.85285162925720
626,3314621734,0.804493,-0.060162,0.313963,-0.500599,-4.43127584457397,-4.06082820892334,7.95918798446655,1.35710167884827,0.64696401357651,0.95239549875259
627,3314638401,0.804486,-0.060285,0.314025,-0.500557,-4.41042232513428,-4.04236125946045,7.93235015869141,0.01854359544814,0.57159858942032,0.86266130208969
628,3314655068,0.804472,-0.060419,0.314113,-0.500507,-4.39252710342407,-4.10487699508667,7.91193532943726,-0.15077555179596,0.69388639926910,0.86655443906784
629,3314671735,0.804495,-0.060467,0.314152,-0.500439,-4.39293527603149,-4.17116594314575,7.87930679321289,0.49299323558807,0.64953809976578,1.22237884998322
630,3314688402,0.804513,-0.060400,0.314128,-0.500435,-4.40915489196777,-4.10581064224243,7.90162658691406,1.45596671104431,0.70335030555725,1.12905895709991
631,3314705069,0.804482,-0.060588,0.314260,-0.500379,-4.42473554611206,-4.07228899002075,7.92300510406494,-0.69508379697800,0.71066278219223,0.88083356618881
632,3314721736,0.804470,-0.060702,0.314331,-0.500339,-4.41931438446045,-4.15344047546387,7.89801883697510,0.00636475533247,0.63589930534363,0.91899651288986
633,3314738403,0.804451,-0.060628,0.314285,-0.500407,-4.41335582733154,-4.09819841384888,7.93221664428711,1.68411171436310,0.69110739231110,0.64340370893478
634,3314755070,0.804421,-0.060825,0.314410,-0.500354,-4.40145397186279,-4.10913038253784,7.92785215377808,-0.67671954631805,0.68558794260025,0.76807367801666
635,3314771737,0.804415,-0.060798,0.314386,-0.500381,-4.40852642059326,-4.14350128173828,7.90927410125732,1.26066970825195,0.60769963264465,0.82904458045959
636,3314788404,0.804425,-0.060691,0.314318,-0.500422,-4.42245960235596,-4.09038114547729,7.94299411773682,1.89892554283142,0.61544764041901,0.96305036544800
637,3314805071,0.804404,-0.060690,0.314314,-0.500458,-4.40067338943481,-4.07781648635864,7.90537595748901,1.06742203235626,0.66275423765182,0.67707175016403
638,3314821738,0.804400,-0.060578,0.314235,-0.500528,-4.40900325775146,-4.13134002685547,7.90179061889648,2.08676934242249,0.68083679676056,0.63463151454926
639,3314838405,0.804408,-0.060497,0.314193,-0.500551,-4.39989757537842,-4.09385395050049,7.91177558898926,1.63644659519196,0.67625212669373,0.98283606767654
640,3314855072,0.804437,-0.060506,0.314195,-0.500502,-4.42258691787720,-4.10557365417480,7.93168640136719,0.83126014471054,0.53515172004700,1.28665399551392
641,3314871739,0.804451,-0.060587,0.314233,-0.500445,-4.43791913986206,-4.07013368606567,7.95647239685059,0.34345349669456,0.56198108196259,1.03740406036377
642,3314888406,0.804446,-0.060878,0.314404,-0.500310,-4.41565036773682,-4.08490753173828,7.91833114624023,-1.43582856655121,0.60064339637756,0.97820019721985
643,3314905073,0.804437,-0.061082,0.314493,-0.500244,-4.41596269607544,-4.13648414611816,7.91005420684814,-0.55806875228882,0.44984871149063,0.80304777622223
644,3314921740,0.804412,-0.061169,0.314523,-0.500255,-4.40294694900513,-4.12252521514893,7.93644905090332,0.40589722990990,0.55523204803467,0.63139146566391
645,3314938407,0.804375,-0.061351,0.314619,-0.500233,-4.39934873580933,-4.13283634185791,7.88204765319824,-0.41048833727837,0.61231005191803,0.56208348274231
646,3314955074,0.804357,-0.061388,0.314616,-0.500258,-4.39378643035889,-4.14644289016724,7.90257406234741,0.85258281230927,0.55167198181152,0.62278568744659
647,3314971741,0.804365,-0.061321,0.314555,-0.500292,-4.40577077865601,-4.12882471084595,7.91417169570923,1.65860128402710,0.54147797822952,0.86981993913651
648,3314988408,0.804369,-0.061202,0.314441,-0.500372,-4.42448711395264,-4.11749172210693,7.90800809860229,2.26772284507751,0.49538803100586,0.61102938652039
649,3315005075,0.804368,-0.061137,0.314358,-0.500433,-4.43881130218506,-4.05968475341797,7.94251632690430,1.74336671829224,0.41269740462303,0.72476255893707
650,3315021742,0.804319,-0.061361,0.314466,-0.500416,-4.37589597702026,-4.13120794296265,7.89273118972778,-0.69705599546432,0.54588347673416,0.44484135508537
651,3315038409,0.804328,-0.061312,0.314431,-0.500431,-4.39412546157837,-4.18955898284912,7.89334726333618,1.43724358081818,0.61496084928513,0.93204599618912
652,3315055076,0.804355,-0.061159,0.314330,-0.500469,-4.40313625335693,-4.10412836074829,7.90485429763794,2.30410552024841,0.59381759166718,1.05370640754700
653,3315071743,0.804337,-0.061476,0.314478,-0.500366,-4.44328975677490,-4.09915876388550,7.92882061004639,-1.46930468082428,0.38830134272575,0.75627899169922
654,3315088410,0.804308,-0.061746,0.314559,-0.500329,-4.42722177505493,-4.16383361816406,7.91244792938232,-0.83449375629425,0.24457564949989,0.40734434127808
655,3315105077,0.804284,-0.061717,0.314484,-0.500418,-4.39460802078247,-4.14550352096558,7.90720987319946,1.59572243690491,0.41350424289703,0.38077121973038
656,3315121744,0.804280,-0.061698,0.314420,-0.500467,-4.37717247009277,-4.14053058624268,7.90451526641846,1.41539621353149,0.37881180644035,0.64980703592300
657,3315138411,0.804298,-0.061640,0.314337,-0.500497,-4.37630414962769,-4.15013694763184,7.85868597030640,1.70271933078766,0.38361421227455,0.85783332586288
658,3315155078,0.804437,-0.061517,0.313985,-0.500510,-4.37973356246948,-4.12193155288696,7.92019987106323,3.00458741188049,-1.13955378532410,1.38361072540283
659,3315171745,0.804466,-0.061452,0.313923,-0.500511,-4.43477678298950,-4.06648874282837,7.95065402984619,1.58957529067993,0.46490889787674,1.11214172840118
660,3315188412,0.804455,-0.061568,0.313927,-0.500511,-4.40683174133301,-4.05798721313477,7.94931888580322,0.34367120265961,0.30535459518433,0.61215627193451
661,3315205079,0.804449,-0.061806,0.314042,-0.500420,-4.38978672027588,-4.17919015884399,7.89877653121948,-0.93374300003052,0.41588622331619,0.97102868556976
662,3315221746,0.804485,-0.061776,0.313997,-0.500394,-4.37955474853516,-4.21116781234741,7.88438463211060,1.24933600425720,0.38004118204117,1.27587080001831
663,3315238413,0.804552,-0.061519,0.313814,-0.500431,-4.40742921829224,-4.08651256561279,7.94317817687988,3.22965884208679,0.46282145380974,1.28103184700012
664,3315255080,0.804568,-0.061597,0.313845,-0.500378,-4.41363620758057,-4.06384420394897,7.93746709823608,0.36790084838867,0.51028186082840,1.07522118091583
665,3315271747,0.804555,-0.061783,0.313926,-0.500325,-4.39349412918091,-4.13378286361694,7.91473436355591,-0.43791949748993,0.45299902558327,0.80382883548737
666,3315288414,0.804538,-0.061868,0.313944,-0.500329,-4.38416767120361,-4.11958122253418,7.93567657470703,0.50727230310440,0.52484256029129,0.58811879158020
667,3315305081,0.804541,-0.062127,0.314084,-0.500205,-4.39986848831177,-4.16999053955078,7.86274528503418,-1.15332067012787,0.50065147876740,1.05954623222351
668,3315321748,0.804563,-0.062140,0.314093,-0.500162,-4.34656000137329,-4.14604187011719,7.89123106002808,0.79915463924408,0.57973062992096,1.21506655216217
669,3315338415,0.804610,-0.062137,0.314118,-0.500072,-4.41499090194702,-4.09709548950195,7.92755746841431,0.78353089094162,0.67982506752014,1.54146182537079
670,3315355082,0.804612,-0.062178,0.314137,-0.500051,-4.40581655502319,-4.10757446289062,7.91609954833984,0.63904964923859,0.57517158985138,0.98539739847183
671,3315371749,0.804613,-0.062114,0.314073,-0.500097,-4.41921615600586,-4.12442207336426,7.93662881851196,1.68119180202484,0.54082489013672,0.75534403324127
672,3315388416,0.804588,-0.062136,0.314077,-0.500134,-4.37199735641479,-4.13250207901001,7.91652870178223,0.88518768548965,0.61473041772842,0.66161441802979
673,3315405083,0.804581,-0.062291,0.314158,-0.500074,-4.37938928604126,-4.19724988937378,7.90343904495239,-0.29220888018608,0.53590732812881,0.95571219921112
674,3315421750,0.804594,-0.062194,0.314101,-0.500101,-4.40181016921997,-4.09769248962402,7.93705034255981,1.76290917396545,0.61401325464249,1.05095303058624
675,3315438417,0.804594,-0.062436,0.314258,-0.499973,-4.41125583648682,-4.08467388153076,7.93679094314575,-1.19354557991028,0.59581547975540,1.22442805767059
676,3315455084,0.804611,-0.062567,0.314360,-0.499865,-4.35741043090820,-4.19213867187500,7.88561868667603,-0.30554026365280,0.67261511087418,1.33499789237976
677,3315471751,0.804639,-0.062388,0.314262,-0.499904,-4.37989807128906,-4.14521837234497,7.88981246948242,2.39496707916260,0.65188163518906,1.17855560779572
678,3315488418,0.804652,-0.062330,0.314250,-0.499898,-4.38628530502319,-4.09049797058105,7.90276384353638,1.35717821121216,0.75102823972702,1.10488045215607
679,3315505085,0.804646,-0.062341,0.314266,-0.499895,-4.40168619155884,-4.15666723251343,7.89545440673828,0.85606604814529,0.69328457117081,0.91502648591995
680,3315521752,0.804660,-0.062258,0.314224,-0.499909,-4.41577577590942,-4.12559175491333,7.93312597274780,1.63890516757965,0.68192529678345,1.04171967506409
681,3315538419,0.804638,-0.062417,0.314310,-0.499870,-4.42515420913696,-4.09081935882568,7.93921232223511,-0.28385916352272,0.59509831666946,0.76187539100647
682,3315555086,0.804616,-0.062689,0.314452,-0.499783,-4.37896156311035,-4.17091894149780,7.87702131271362,-1.16822719573975,0.52506035566330,0.75241148471832
683,3315571753,0.804634,-0.062530,0.314344,-0.499843,-4.37194252014160,-4.19664764404297,7.87505817413330,2.37784457206726,0.57775843143463,0.95070493221283
684,3315588420,0.804653,-0.062368,0.314258,-0.499886,-4.39856672286987,-4.10560798645020,7.89649581909180,2.25562071800232,0.66937506198883,1.11497199535370
685,3315605087,0.804663,-0.062281,0.314229,-0.499899,-4.42074489593506,-4.08579206466675,7.94222927093506,1.59824526309967,0.75983911752701,1.06579566001892
686,3315621754,0.804660,-0.062289,0.314228,-0.499904,-4.39763641357422,-4.11006069183350,7.91469144821167,0.94929629564285,0.60851925611496,0.88399666547775
687,3315638421,0.804684,-0.062387,0.314257,-0.499834,-4.40683317184448,-4.12264013290405,7.90891647338867,0.24611245095730,0.41378596425056,1.13323390483856
688,3315655088,0.804703,-0.062515,0.314326,-0.499744,-4.39725208282471,-4.14263439178467,7.92094802856445,-0.14406503736973,0.50414758920670,1.23720872402191
689,3315671755,0.804722,-0.062567,0.314355,-0.499689,-4.39498424530029,-4.17574071884155,7.88229322433472,0.45871064066887,0.51770949363708,1.25933802127838
690,3315688422,0.804743,-0.062475,0.314309,-0.499697,-4.40254116058350,-4.13055706024170,7.89465808868408,1.58610498905182,0.56691151857376,1.30818140506744
691,3315705089,0.804757,-0.062445,0.314286,-0.499691,-4.39617204666138,-4.08617782592773,7.90777158737183,1.21099412441254,0.56815373897552,1.08975636959076
692,3315721756,0.804741,-0.062681,0.314414,-0.499606,-4.39821052551270,-4.10611438751221,7.91170597076416,-0.90457010269165,0.57561981678009,0.80741477012634
693,3315738423,0.804729,-0.062660,0.314418,-0.499627,-4.35153102874756,-4.22441720962524,7.83291721343994,1.13916325569153,0.77328580617905,0.81083405017853
694,3315755090,0.804758,-0.062376,0.314279,-0.499703,-4.40698575973511,-4.19161272048950,7.89753532409668,3.21301054954529,0.81522655487061,1.15442836284637
695,3315771757,0.804779,-0.062231,0.314219,-0.499725,-4.42166948318481,-4.07095623016357,7.94794225692749,2.06211686134338,0.77350354194641,1.14901137351990
696,3315788424,0.804765,-0.062378,0.314296,-0.499680,-4.42286252975464,-4.08518600463867,7.92299079895020,-0.13227036595345,0.62273436784744,0.75344866514206
697,3315805091,0.804731,-0.062586,0.314417,-0.499632,-4.38926076889038,-4.15029191970825,7.89427566528320,-0.73174834251404,0.62050610780716,0.72832274436951
698,3315821758,0.804707,-0.062742,0.314511,-0.499594,-4.37549114227295,-4.15549659729004,7.89409685134888,-0.29744666814804,0.64883369207382,0.78062385320663
699,3315838425,0.804708,-0.062884,0.314590,-0.499523,-4.37231922149658,-4.18039083480835,7.85940504074097,-0.23724403977394,0.54137563705444,1.06772947311401
700,3315855092,0.804718,-0.062919,0.314608,-0.499491,-4.39996337890625,-4.15608119964600,7.89442539215088,0.66149920225143,0.57517158985138,1.09081935882568
701,3315871759,0.804743,-0.062799,0.314528,-0.499516,-4.40778446197510,-4.08174085617065,7.93125438690186,1.98885166645050,0.55895876884460,1.09955322742462
702,3315888426,0.804724,-0.063002,0.314639,-0.499451,-4.40587949752808,-4.10575771331787,7.93795919418335,-0.64316689968109,0.59039837121964,0.79464691877365
703,3315905093,0.804727,-0.063130,0.314726,-0.499377,-4.37850809097290,-4.18460607528687,7.86586618423462,-0.15541145205498,0.65587723255157,1.07415819168091
704,3315921760,0.804740,-0.062996,0.314685,-0.499397,-4.34716606140137,-4.17236518859863,7.88197946548462,1.90220391750336,0.83891838788986,1.16800308227539
705,3315938427,0.804771,-0.062897,0.314664,-0.499374,-4.40862941741943,-4.17071294784546,7.90308094024658,1.56553792953491,0.78171241283417,1.37168812751770
706,3315955094,0.804775,-0.062741,0.314571,-0.499446,-4.44226169586182,-4.10311794281006,7.93470430374146,2.33270215988159,0.68580555915833,0.83037644624710
707,3315971761,0.804721,-0.062928,0.314681,-0.499439,-4.43554162979126,-4.07108640670776,7.94481277465820,-0.46953836083412,0.70497667789459,0.43939864635468
708,3315988428,0.804678,-0.063225,0.314847,-0.499367,-4.37218523025513,-4.18955564498901,7.87948274612427,-1.38999474048615,0.61228442192078,0.59406095743179
709,3316005095,0.804676,-0.063193,0.314826,-0.499388,-4.36156940460205,-4.17609977722168,7.88970375061035,1.33648359775543,0.69724178314209,0.77488666772842
710,3316021762,0.804704,-0.063192,0.314830,-0.499341,-4.37428998947144,-4.13619709014893,7.88962316513062,0.90945571660995,0.59931153059006,1.25221765041351
711,3316038429,0.804725,-0.063150,0.314796,-0.499334,-4.41015672683716,-4.12565946578979,7.90424823760986,1.34127318859100,0.55254280567169,1.10133337974548
712,3316055096,0.804728,-0.063282,0.314838,-0.499284,-4.42840766906738,-4.12471866607666,7.91153001785278,0.01727576740086,0.39893060922623,0.92510515451431
713,3316071763,0.804727,-0.063327,0.314837,-0.499282,-4.37812519073486,-4.19268083572388,7.90639257431030,0.72772091627121,0.46799528598785,0.85491353273392
714,3316088430,0.804742,-0.063308,0.314799,-0.499284,-4.40017604827881,-4.15201568603516,7.89983034133911,1.25635409355164,0.48542463779449,0.95303583145142
715,3316105097,0.804737,-0.063413,0.314856,-0.499242,-4.37836408615112,-4.17361879348755,7.91085147857666,0.13720722496510,0.60303813219070,0.91941905021667
716,3316121764,0.804752,-0.063508,0.314913,-0.499170,-4.40317583084106,-4.20890235900879,7.86673641204834,0.11935517936945,0.56656569242477,1.18999159336090
717,3316138431,0.804761,-0.063422,0.314859,-0.499201,-4.39105081558228,-4.10655450820923,7.91977024078369,1.69524025917053,0.59853029251099,0.99600094556808
718,3316155098,0.804733,-0.063554,0.314926,-0.499186,-4.40635395050049,-4.12257719039917,7.89884948730469,-0.00196577468887,0.62575662136078,0.63748723268509
719,3316171765,0.804710,-0.063691,0.314986,-0.499168,-4.39573526382446,-4.17262220382690,7.88041353225708,-0.05611102655530,0.51154971122742,0.73167806863785
720,3316188432,0.804688,-0.063701,0.314998,-0.499195,-4.38615894317627,-4.15200233459473,7.88293838500977,0.89384478330612,0.68052935600281,0.77013540267944
721,3316205099,0.804687,-0.063749,0.315055,-0.499154,-4.36029434204102,-4.17920541763306,7.87938737869263,0.41732051968575,0.75087469816208,1.10522639751434
722,3316221766,0.804702,-0.063579,0.314981,-0.499199,-4.40141773223877,-4.17225122451782,7.91771936416626,2.27399778366089,0.78963953256607,1.08772015571594
723,3316238433,0.804718,-0.063522,0.314921,-0.499218,-4.44113588333130,-4.09493255615234,7.91305971145630,1.60978364944458,0.52859485149384,0.89056634902954
724,3316255100,0.804695,-0.063715,0.315003,-0.499179,-4.40532445907593,-4.12031030654907,7.90581417083740,-0.43903371691704,0.47800981998444,0.64722013473511
725,3316271767,0.804694,-0.063900,0.315094,-0.499099,-4.38898468017578,-4.20304441452026,7.89053487777710,-0.45919090509415,0.53029817342758,0.90315508842468
726,3316288434,0.804708,-0.063718,0.314976,-0.499175,-4.37333345413208,-4.16711330413818,7.89962577819824,2.56702017784119,0.61200261116028,0.90446126461029
727,3316305101,0.804715,-0.063757,0.315016,-0.499133,-4.38329029083252,-4.15028953552246,7.89631605148315,0.56890928745270,0.71191781759262,1.07245481014252
728,3316321768,0.804737,-0.063793,0.315063,-0.499064,-4.38648986816406,-4.20138454437256,7.87831306457520,0.49109786748886,0.69484686851501,1.33209085464478
729,3316338435,0.804762,-0.063603,0.314986,-0.499096,-4.41840553283691,-4.14091682434082,7.92249202728271,2.37571883201599,0.81842821836472,1.21985614299774
730,3316355102,0.804753,-0.063702,0.315048,-0.499058,-4.42687177658081,-4.10006523132324,7.91414308547974,0.13610589504242,0.63908809423447,0.93454343080521
731,3316371769,0.804725,-0.063972,0.315192,-0.498978,-4.39410686492920,-4.20646667480469,7.88902759552002,-1.17018663883209,0.54848313331604,0.73149871826172
732,3316388436,0.804722,-0.063915,0.315159,-0.499012,-4.38055610656738,-4.24489879608154,7.86420440673828,1.45898890495300,0.64331418275833,0.88824838399887
733,3316405103,0.804723,-0.063733,0.315063,-0.499094,-4.40196180343628,-4.13861083984375,7.89746093750000,2.43405151367188,0.70030248165131,0.94638919830322
734,3316421770,0.804722,-0.063787,0.315108,-0.499060,-4.41174364089966,-4.12713813781738,7.91804790496826,0.48311957716942,0.70587325096130,0.97784167528152
735,3316438437,0.804715,-0.063816,0.315128,-0.499056,-4.40716648101807,-4.14299678802490,7.90814876556396,0.73347085714340,0.65635097026825,0.89796841144562
736,3316455104,0.804704,-0.063926,0.315177,-0.499028,-4.39737319946289,-4.14591550827026,7.87589597702026,0.17230942845345,0.55931729078293,0.79202151298523
737,3316471771,0.804711,-0.064085,0.315277,-0.498932,-4.37445354461670,-4.20767164230347,7.85135030746460,-0.43652367591858,0.59288275241852,1.17837631702423
738,3316488438,0.804735,-0.064108,0.315298,-0.498877,-4.39620780944824,-4.20812511444092,7.88105964660645,0.66240841150284,0.58510929346085,1.30465960502625
739,3316505105,0.804764,-0.063969,0.315222,-0.498898,-4.41198110580444,-4.10973691940308,7.90236616134644,2.05785226821899,0.61985296010971,1.20669114589691
740,3316521772,0.804756,-0.063997,0.315254,-0.498885,-4.39926433563232,-4.13426446914673,7.88648843765259,0.64784765243530,0.69147890806198,1.00173842906952
741,3316538439,0.804759,-0.064006,0.315276,-0.498867,-4.40191650390625,-4.15972375869751,7.89960861206055,0.83727920055389,0.72079259157181,1.02021777629852
742,3316555106,0.804744,-0.064097,0.315337,-0.498839,-4.40837764739990,-4.14504528045654,7.89179658889771,0.20103408396244,0.67638021707535,0.87273985147476
743,3316571773,0.804729,-0.064244,0.315431,-0.498786,-4.38614034652710,-4.22262001037598,7.86201286315918,-0.29095384478569,0.64560645818710,0.92249250411987
744,3316588440,0.804745,-0.064121,0.315373,-0.498813,-4.39084672927856,-4.17681360244751,7.86447048187256,1.94048213958740,0.71798801422119,1.07047009468079
745,3316605107,0.804745,-0.064159,0.315418,-0.498779,-4.41285371780396,-4.12406587600708,7.89977264404297,0.56588691473007,0.76386028528214,1.02502012252808
746,3316621774,0.804723,-0.064405,0.315573,-0.498685,-4.40686750411987,-4.16161203384399,7.88203620910645,-1.09509027004242,0.67265355587006,0.86501777172089
747,3316638441,0.804701,-0.064428,0.315608,-0.498695,-4.38172626495361,-4.21305465698242,7.90325260162354,0.77986830472946,0.83133709430695,0.71736055612564
748,3316655108,0.804716,-0.064299,0.315528,-0.498739,-4.38505506515503,-4.19859933853149,7.87316513061523,2.03989791870117,0.58993732929230,1.04786682128906
749,3316671775,0.804726,-0.064119,0.315432,-0.498807,-4.40897321701050,-4.13534593582153,7.88956642150879,2.45030307769775,0.72230374813080,0.95842730998993
750,3316688442,0.804717,-0.064194,0.315463,-0.498792,-4.39842557907104,-4.13157176971436,7.90785503387451,0.41913899779320,0.54817581176758,0.85497748851776
751,3316705109,0.804706,-0.064265,0.315489,-0.498783,-4.38877820968628,-4.18437051773071,7.86115217208862,0.45648226141930,0.53351247310638,0.83926409482956
752,3316721776,0.804714,-0.064309,0.315493,-0.498762,-4.39281558990479,-4.16837787628174,7.89962339401245,0.72025477886200,0.51381647586823,0.93081682920456
753,3316738443,0.804719,-0.064248,0.315469,-0.498777,-4.38637542724609,-4.18622303009033,7.87823009490967,1.46400904655457,0.72697800397873,0.94590258598328
754,3316755110,0.804754,-0.064063,0.315372,-0.498807,-4.41267967224121,-4.19782781600952,7.85892486572266,2.45126342773438,0.70397782325745,1.19739365577698
755,3316771777,0.804780,-0.063791,0.315212,-0.498901,-4.41675281524658,-4.12503910064697,7.91011619567871,3.29339599609375,0.70509195327759,0.94359749555588
756,3316788444,0.804762,-0.063718,0.315172,-0.498965,-4.40254640579224,-4.11868000030518,7.92857742309570,1.63913595676422,0.71104699373245,0.69781804084778
757,3316805111,0.804762,-0.063689,0.315140,-0.498987,-4.38043355941772,-4.18972587585449,7.86665058135986,1.30239284038544,0.56406843662262,0.86809116601944
758,3316821778,0.804799,-0.063590,0.315018,-0.499017,-4.40217494964600,-4.18853855133057,7.88388586044312,2.04174208641052,0.24143812060356,1.03426647186279
759,3316838445,0.804874,-0.063286,0.314777,-0.499088,-4.41765069961548,-4.11748504638672,7.90731048583984,3.68214654922485,0.22102482616901,1.34685683250427
760,3316855112,0.804919,-0.063305,0.314726,-0.499045,-4.40439462661743,-4.04480981826782,7.95542192459106,1.06702506542206,0.24855843186378,1.11166799068451
761,3316871779,0.804941,-0.063627,0.314870,-0.498877,-4.36667728424072,-4.23817634582520,7.84813833236694,-1.64425218105316,0.20490160584450,1.30564594268799
