sep=,
DeviceTag:,B
FirmwareVersion:,3.0.0
AppVersion:,2023.6.0
StartTime: ,2024-03-14_11:50:42_000 EDT
© Movella Technologies B. V. 2005-2024

PacketCounter,SampleTimeFine,Quat_W,Quat_X,Quat_Y,Quat_Z,Acc_X,Acc_Y,Acc_Z,Gyr_X,Gyr_Y,Gyr_Z
0,3304171525,0.168793,-0.664852,0.002312,-0.727651,0.00000000000000,0.00000000000000,0.00000000000000,0.00000000000000,0.00000000000000,0.00000000000000
1,3304188192,0.168820,-0.664883,0.002236,-0.727617,9.67303562164307,-2.33691048622131,1.14993393421173,3.73125171661377,2.94976973533630,1.10145497322083
2,3304204859,0.168925,-0.664855,0.002092,-0.727618,9.76094245910645,-2.33962583541870,1.14729082584381,4.52869033813477,3.31238150596619,1.14426660537720
3,3304221526,0.168987,-0.664825,0.001982,-0.727631,9.78849124908447,-2.29884576797485,1.15335714817047,4.28526735305786,3.39087200164795,1.08890473842621
4,3304238193,0.168937,-0.664814,0.001975,-0.727653,9.79567813873291,-2.25710129737854,1.17807078361511,3.24348330497742,3.45568442344666,0.98782414197922
5,3304254860,0.168788,-0.664837,0.002074,-0.727667,9.77166938781738,-2.28385138511658,1.15482556819916,2.17146372795105,3.39261317253113,0.98428958654404
6,3304271527,0.168611,-0.664896,0.002214,-0.727653,9.74275588989258,-2.29147982597351,1.15851855278015,1.82401466369629,3.11184692382812,1.05882251262665
7,3304288194,0.168449,-0.664933,0.002364,-0.727657,9.74475574493408,-2.31979703903198,1.19740426540375,1.99214982986450,3.29359531402588,1.18107223510742
8,3304304861,0.168350,-0.664896,0.002484,-0.727713,9.73647499084473,-2.31868791580200,1.15482330322266,2.31517696380615,3.91412663459778,1.27234303951263
9,3304321528,0.168260,-0.664859,0.002570,-0.727767,9.70425701141357,-2.33242821693420,1.14167737960815,2.65001201629639,3.84020853042603,1.18066251277924
10,3304338195,0.168234,-0.664835,0.002541,-0.727796,9.72729015350342,-2.33784270286560,1.14859092235565,3.41499900817871,3.54324150085449,0.99589228630066
11,3304354862,0.168230,-0.664799,0.002487,-0.727829,9.77013301849365,-2.34277009963989,1.12770152091980,3.70680522918701,3.57770419120789,0.98671019077301
12,3304371529,0.168268,-0.664764,0.002380,-0.727853,9.78868865966797,-2.30903434753418,1.13960206508636,4.09009838104248,3.49182391166687,0.95708900690079
13,3304388196,0.168300,-0.664763,0.002268,-0.727847,9.75612068176270,-2.23762178421021,1.13889098167419,4.04103755950928,3.17416262626648,0.93749535083771
14,3304404863,0.168230,-0.664802,0.002283,-0.727827,9.76053428649902,-2.22149372100830,1.15269482135773,3.26234769821167,2.98325896263123,1.07262802124023
15,3304421530,0.168124,-0.664842,0.002396,-0.727815,9.78576374053955,-2.24867606163025,1.17458999156952,2.26338768005371,3.19547224044800,1.28554618358612
16,3304438197,0.167991,-0.664865,0.002586,-0.727824,9.76318645477295,-2.29075670242310,1.18658947944641,1.75888156890869,3.47646927833557,1.48364746570587
17,3304454864,0.167865,-0.664880,0.002760,-0.727839,9.74337196350098,-2.35600805282593,1.16996061801910,1.81784200668335,3.54170489311218,1.42049944400787
18,3304471531,0.167799,-0.664881,0.002834,-0.727853,9.74528694152832,-2.35587072372437,1.19480228424072,2.72741317749023,3.45766949653625,1.28920888900757
19,3304488198,0.167789,-0.664883,0.002838,-0.727853,9.75630187988281,-2.33404922485352,1.18600940704346,3.29388880729675,3.31814408302307,1.25610423088074
20,3304504865,0.167803,-0.664877,0.002830,-0.727855,9.74877834320068,-2.31532359123230,1.18461549282074,3.35017323493958,3.38442993164062,1.29873681068420
21,3304521532,0.167829,-0.664858,0.002795,-0.727866,9.74904441833496,-2.32628893852234,1.15832591056824,3.55067014694214,3.45656871795654,1.23190045356750
22,3304538199,0.167860,-0.664831,0.002732,-0.727885,9.73864841461182,-2.32516765594482,1.14518201351166,3.89585232734680,3.45928382873535,1.14483034610748
23,3304554866,0.167874,-0.664795,0.002682,-0.727914,9.75876903533936,-2.26202845573425,1.12503826618195,3.80496573448181,3.55813598632812,1.10529696941376
24,3304571533,0.167851,-0.664789,0.002706,-0.727925,9.75503540039062,-2.22931337356567,1.14681410789490,3.12820100784302,3.43698787689209,1.26272547245026
25,3304588200,0.167769,-0.664799,0.002826,-0.727934,9.75401782989502,-2.26168012619019,1.15419805049896,2.20276284217834,3.49745917320251,1.39630854129791
26,3304604867,0.167657,-0.664828,0.002946,-0.727933,9.73872184753418,-2.30456280708313,1.11019861698151,2.21431374549866,3.31550621986389,1.27505767345428
27,3304621534,0.167568,-0.664852,0.003032,-0.727931,9.75690841674805,-2.31179428100586,1.13875651359558,2.58951473236084,3.26968526840210,1.24897134304047
28,3304638201,0.167551,-0.664861,0.003034,-0.727927,9.68704795837402,-2.30587935447693,1.14043545722961,3.28104496002197,3.26366686820984,1.21933758258820
29,3304654868,0.167561,-0.664880,0.003024,-0.727907,9.69378376007080,-2.25748205184937,1.18029367923737,3.43680810928345,3.12204098701477,1.31306719779968
30,3304671535,0.167553,-0.664866,0.003072,-0.727922,9.79670047760010,-2.30076289176941,1.15249967575073,3.28354167938232,3.47275567054749,1.47620713710785
31,3304688202,0.167563,-0.664841,0.003095,-0.727942,9.82860469818115,-2.29587697982788,1.13073480129242,3.27260565757751,3.58196854591370,1.41065156459808
32,3304704869,0.167432,-0.664877,0.003180,-0.727939,9.81367015838623,-2.26072573661804,1.17260622978210,2.31530451774597,3.22341561317444,1.02890694141388
33,3304721536,0.167242,-0.664935,0.003340,-0.727929,9.76551246643066,-2.30834269523621,1.18031632900238,1.60213184356689,3.18734025955200,1.07698202133179
34,3304738203,0.167121,-0.664970,0.003454,-0.727925,9.71485614776611,-2.35400724411011,1.14797592163086,2.26931738853455,3.24758124351501,1.21637904644012
35,3304754870,0.167123,-0.665011,0.003462,-0.727887,9.71402549743652,-2.35965061187744,1.17896211147308,3.26446056365967,2.95699286460876,1.37565183639526
36,3304771537,0.167211,-0.665004,0.003402,-0.727873,9.76287746429443,-2.32309722900391,1.17704832553864,4.07774066925049,3.22141861915588,1.47035491466522
37,3304788204,0.167301,-0.664971,0.003355,-0.727883,9.77363300323486,-2.26570677757263,1.17068362236023,4.01588630676270,3.48330855369568,1.50535464286804
38,3304804871,0.167307,-0.664967,0.003382,-0.727885,9.76881885528564,-2.24106526374817,1.15139472484589,3.05412936210632,3.43570780754089,1.41231667995453
39,3304821538,0.167228,-0.664975,0.003524,-0.727895,9.75667476654053,-2.25745725631714,1.15739059448242,2.27381205558777,3.49251556396484,1.53169691562653
40,3304838205,0.167126,-0.664959,0.003721,-0.727932,9.74208354949951,-2.30960869789124,1.14057517051697,1.90028965473175,3.81111288070679,1.63660693168640
41,3304854872,0.167066,-0.664943,0.003874,-0.727960,9.72342872619629,-2.35574197769165,1.16630709171295,2.38760972023010,3.69536876678467,1.65712273120880
42,3304871539,0.167065,-0.664925,0.003936,-0.727976,9.73890590667725,-2.34205341339111,1.14810943603516,3.04713654518127,3.56774044036865,1.54869103431702
43,3304888206,0.167103,-0.664907,0.003926,-0.727984,9.74893093109131,-2.32179617881775,1.15831923484802,3.60525012016296,3.43352985382080,1.42248451709747
44,3304904873,0.167128,-0.664928,0.003872,-0.727959,9.75870132446289,-2.29918766021729,1.16300845146179,3.74740076065063,3.03993964195251,1.19736182689667
45,3304921540,0.167149,-0.664969,0.003839,-0.727917,9.69509696960449,-2.29064917564392,1.15297746658325,3.63822698593140,2.86773276329041,1.29764831066132
46,3304938207,0.167201,-0.664991,0.003839,-0.727885,9.71402740478516,-2.27403974533081,1.12651991844177,3.67654323577881,3.04845571517944,1.59221994876862
47,3304954874,0.167237,-0.664988,0.003875,-0.727880,9.76054668426514,-2.30119919776917,1.14347910881042,3.44550395011902,3.33141183853149,1.65563690662384
48,3304971541,0.167167,-0.665001,0.003986,-0.727883,9.79645824432373,-2.27603340148926,1.15477752685547,2.61179780960083,3.36711573600769,1.45717704296112
49,3304988208,0.167058,-0.665020,0.004137,-0.727890,9.74638843536377,-2.28877854347229,1.15725672245026,2.09089922904968,3.43533563613892,1.42453360557556
50,3305004875,0.166969,-0.665065,0.004276,-0.727868,9.71457004547119,-2.33429384231567,1.15455293655396,2.08978486061096,3.18983745574951,1.48363471031189
51,3305021542,0.166924,-0.665131,0.004321,-0.727818,9.73035812377930,-2.37090349197388,1.15714025497437,2.78643727302551,2.83589553833008,1.31797182559967
52,3305038209,0.166985,-0.665143,0.004246,-0.727793,9.74502944946289,-2.35738062858582,1.14364182949066,3.93886852264404,3.07280087471008,1.27321386337280
53,3305054876,0.167091,-0.665119,0.004125,-0.727792,9.70434951782227,-2.28759360313416,1.15412724018097,4.64328193664551,3.25360059738159,1.28488039970398
54,3305071543,0.167145,-0.665103,0.004079,-0.727794,9.73194885253906,-2.25104975700378,1.14622139930725,3.80619478225708,3.37296867370605,1.34439146518707
55,3305088210,0.167114,-0.665119,0.004132,-0.727787,9.75416755676270,-2.25708246231079,1.11629676818848,2.93222522735596,3.27228522300720,1.37525486946106
56,3305104877,0.167015,-0.665170,0.004246,-0.727762,9.76696872711182,-2.29645156860352,1.10331737995148,2.27117443084717,3.09345746040344,1.34481418132782
57,3305121544,0.166910,-0.665226,0.004372,-0.727734,9.76708030700684,-2.30030584335327,1.12712979316711,2.17452502250671,3.06231236457825,1.36573982238770
58,3305138211,0.166839,-0.665289,0.004476,-0.727693,9.74032688140869,-2.32165169715881,1.13901138305664,2.44011545181274,2.94483923912048,1.45688223838806
59,3305154878,0.166821,-0.665343,0.004535,-0.727646,9.74128818511963,-2.32165789604187,1.16663682460785,2.91502642631531,2.90502452850342,1.51356339454651
60,3305171545,0.166828,-0.665375,0.004563,-0.727615,9.75512504577637,-2.32431459426880,1.16602289676666,3.20672988891602,3.05703616142273,1.48503088951111
61,3305188212,0.166820,-0.665394,0.004580,-0.727600,9.75400257110596,-2.33177137374878,1.13717007637024,3.21014928817749,3.18600940704346,1.34262454509735
62,3305204879,0.166797,-0.665429,0.004587,-0.727573,9.76816177368164,-2.31482744216919,1.14261543750763,3.16942477226257,3.03036046028137,1.23375749588013
63,3305221546,0.166785,-0.665448,0.004623,-0.727559,9.75644588470459,-2.32388234138489,1.15181612968445,3.09907937049866,3.21087884902954,1.40545225143433
64,3305238213,0.166770,-0.665468,0.004655,-0.727543,9.73675346374512,-2.33507513999939,1.16355788707733,3.10128211975098,3.18926167488098,1.37590801715851
65,3305254880,0.166762,-0.665494,0.004685,-0.727521,9.75511169433594,-2.31820440292358,1.15611410140991,3.13428425788879,3.12692022323608,1.41034436225891
66,3305271547,0.166756,-0.665487,0.004723,-0.727529,9.76298904418945,-2.30669546127319,1.13664972782135,3.14473342895508,3.44607973098755,1.42217707633972
67,3305288214,0.166720,-0.665481,0.004788,-0.727542,9.77727317810059,-2.29795527458191,1.13384056091309,2.86905169487000,3.48706102371216,1.38354063034058
68,3305304881,0.166681,-0.665470,0.004840,-0.727561,9.75174713134766,-2.31208610534668,1.13136434555054,2.92383742332458,3.53115344047546,1.30689465999603
69,3305321548,0.166663,-0.665474,0.004860,-0.727561,9.73901844024658,-2.33699059486389,1.12600433826447,3.16542911529541,3.33143782615662,1.29119408130646
70,3305338215,0.166688,-0.665476,0.004847,-0.727553,9.73713588714600,-2.33350849151611,1.14089250564575,3.52985930442810,3.26157879829407,1.35639095306396
71,3305354882,0.166722,-0.665497,0.004831,-0.727527,9.74702167510986,-2.30298781394958,1.14955019950867,3.55831456184387,3.08524799346924,1.41669595241547
72,3305371549,0.166736,-0.665515,0.004852,-0.727507,9.75788497924805,-2.28526902198792,1.13222765922546,3.28730702400208,3.16735005378723,1.47080302238464
73,3305388216,0.166708,-0.665523,0.004909,-0.727505,9.78182601928711,-2.29670095443726,1.10741400718689,2.92732048034668,3.34201574325562,1.40748846530914
74,3305404883,0.166657,-0.665535,0.004998,-0.727505,9.75141906738281,-2.31747508049011,1.13185000419617,2.65167689323425,3.37296867370605,1.43754494190216
75,3305421550,0.166610,-0.665562,0.005088,-0.727491,9.73337841033936,-2.32771062850952,1.15460276603699,2.65102338790894,3.23660659790039,1.47865331172943
76,3305438217,0.166579,-0.665569,0.005154,-0.727491,9.71451282501221,-2.32817411422729,1.15282750129700,2.87589025497437,3.36715459823608,1.43322920799255
77,3305454884,0.166571,-0.665607,0.005197,-0.727458,9.67241859436035,-2.29345655441284,1.15929305553436,3.04927539825439,3.02982234954834,1.48012602329254
78,3305471551,0.166561,-0.665629,0.005234,-0.727440,9.76208972930908,-2.31479668617249,1.12937343120575,3.21724390983582,3.14980530738831,1.43963253498077
79,3305488218,0.166589,-0.665636,0.005240,-0.727427,9.81903839111328,-2.33982610702515,1.11568200588226,3.28825426101685,3.27041506767273,1.44803297519684
80,3305504885,0.166538,-0.665671,0.005298,-0.727407,9.80511665344238,-2.29079318046570,1.15297198295593,2.61447381973267,3.16921901702881,1.29471540451050
81,3305521552,0.166412,-0.665721,0.005403,-0.727388,9.75362777709961,-2.34529185295105,1.15884459018707,2.04666638374329,3.14860177040100,1.14553463459015
82,3305538219,0.166355,-0.665755,0.005452,-0.727370,9.68455314636230,-2.36785173416138,1.12055969238281,2.87764430046082,3.11795568466187,1.24948346614838
83,3305554886,0.166383,-0.665772,0.005404,-0.727349,9.69861602783203,-2.34888553619385,1.14012229442596,3.63531923294067,3.10217785835266,1.21883773803711
84,3305571553,0.166485,-0.665754,0.005350,-0.727341,9.76467037200928,-2.31476688385010,1.14348196983337,3.99636936187744,3.34076070785522,1.54821729660034
85,3305588220,0.166573,-0.665723,0.005317,-0.727351,9.77796363830566,-2.28277897834778,1.12979924678802,3.83814620971680,3.51184058189392,1.54852461814880
86,3305604887,0.166559,-0.665714,0.005372,-0.727362,9.77967548370361,-2.24576950073242,1.13116288185120,2.82671403884888,3.53230547904968,1.43369030952454
87,3305621554,0.166501,-0.665732,0.005514,-0.727357,9.75646018981934,-2.27927827835083,1.13111817836761,2.11710095405579,3.43828105926514,1.62015068531036
88,3305638221,0.166412,-0.665760,0.005711,-0.727350,9.74950504302979,-2.33895826339722,1.12633240222931,1.91486322879791,3.38230466842651,1.74939239025116
89,3305654888,0.166372,-0.665791,0.005829,-0.727330,9.71963977813721,-2.35892415046692,1.11857342720032,2.53136086463928,3.21857523918152,1.64726173877716
90,3305671555,0.166392,-0.665817,0.005873,-0.727301,9.75188159942627,-2.36073637008667,1.11917197704315,3.18762254714966,3.10976028442383,1.61433672904968
91,3305688222,0.166440,-0.665830,0.005876,-0.727278,9.73443031311035,-2.33590388298035,1.12608754634857,3.53285574913025,3.16215038299561,1.56779825687408
92,3305704889,0.166474,-0.665855,0.005877,-0.727248,9.77355766296387,-2.33675193786621,1.14578878879547,3.46316337585449,3.06319546699524,1.49309873580933
93,3305721556,0.166470,-0.665867,0.005884,-0.727237,9.71967315673828,-2.33232593536377,1.15433394908905,3.28269672393799,3.22661757469177,1.31040346622467
94,3305738223,0.166451,-0.665872,0.005953,-0.727237,9.68290615081787,-2.32260346412659,1.14028704166412,3.01255965232849,3.36031627655029,1.51722609996796
95,3305754890,0.166476,-0.665861,0.005977,-0.727241,9.74043369293213,-2.34810256958008,1.12268114089966,3.15127778053284,3.47389507293701,1.49377739429474
96,3305771557,0.166462,-0.665841,0.006021,-0.727262,9.78633213043213,-2.32302570343018,1.13264238834381,3.08036899566650,3.57068586349487,1.39197981357574
97,3305788224,0.166409,-0.665816,0.006097,-0.727296,9.75940704345703,-2.32984519004822,1.14854133129120,2.75163030624390,3.69981241226196,1.32861423492432
98,3305804891,0.166353,-0.665801,0.006142,-0.727323,9.73528766632080,-2.34615468978882,1.13575315475464,2.88097405433655,3.57598757743835,1.18210947513580
99,3305821558,0.166354,-0.665797,0.006120,-0.727327,9.72302818298340,-2.37638139724731,1.12569034099579,3.45842504501343,3.34252762794495,1.18627130985260
100,3305838225,0.166396,-0.665783,0.006027,-0.727330,9.72645092010498,-2.34559178352356,1.14943468570709,4.01452827453613,3.30495429039001,1.06409895420074
101,3305854892,0.166468,-0.665754,0.005952,-0.727341,9.73097896575928,-2.30185532569885,1.13095915317535,4.07725381851196,3.43934392929077,1.28762090206146
102,3305871559,0.166478,-0.665723,0.005968,-0.727367,9.73284435272217,-2.26259756088257,1.13058066368103,3.34578132629395,3.61725020408630,1.37985241413116
103,3305888226,0.166411,-0.665705,0.006074,-0.727398,9.74001693725586,-2.28894186019897,1.08086860179901,2.52812123298645,3.68390750885010,1.40292942523956
104,3305904893,0.166306,-0.665696,0.006184,-0.727430,9.73418426513672,-2.31767988204956,1.08446776866913,2.31329417228699,3.65365767478943,1.22449827194214
105,3305921560,0.166195,-0.665713,0.006267,-0.727439,9.74319744110107,-2.31843638420105,1.10469245910645,2.39791846275330,3.38161301612854,1.09841978549957
106,3305938227,0.166120,-0.665747,0.006322,-0.727424,9.70622158050537,-2.31629943847656,1.15125942230225,2.68562602996826,3.15937137603760,1.17619276046753
107,3305954894,0.166076,-0.665781,0.006349,-0.727402,9.70109462738037,-2.33616209030151,1.16110002994537,2.96264052391052,3.08718204498291,1.21639192104340
108,3305971561,0.166059,-0.665809,0.006365,-0.727380,9.71799755096436,-2.33122897148132,1.13033187389374,3.14725685119629,3.10541844367981,1.29453659057617
109,3305988228,0.166028,-0.665831,0.006358,-0.727368,9.75876331329346,-2.34640526771545,1.13297557830811,3.20612788200378,3.16052436828613,1.10552752017975
110,3306004895,0.165969,-0.665837,0.006327,-0.727376,9.76917648315430,-2.35397648811340,1.13128077983856,3.21854996681213,3.30238032341003,0.83920663595200
111,3306021562,0.165907,-0.665842,0.006324,-0.727386,9.75296401977539,-2.31940412521362,1.16293513774872,3.05757403373718,3.34817576408386,0.94980227947235
112,3306038229,0.165829,-0.665857,0.006365,-0.727390,9.73391246795654,-2.32698726654053,1.19532644748688,2.76161909103394,3.32187080383301,1.07343459129333
113,3306054896,0.165741,-0.665854,0.006455,-0.727411,9.75258445739746,-2.34709811210632,1.14956259727478,2.49134087562561,3.54979825019836,1.23487126827240
114,3306071563,0.165665,-0.665834,0.006496,-0.727446,9.75316810607910,-2.36475658416748,1.14697706699371,2.80722260475159,3.63816308975220,1.05254769325256
115,3306088230,0.165644,-0.665801,0.006438,-0.727482,9.77608394622803,-2.37210750579834,1.14239323139191,3.25722479820251,3.66659235954285,0.83473712205887
116,3306104897,0.165602,-0.665765,0.006411,-0.727525,9.72031497955322,-2.33265900611877,1.14493811130524,3.32568764686584,3.67613339424133,0.90577393770218
117,3306121564,0.165563,-0.665732,0.006385,-0.727564,9.67564582824707,-2.33497357368469,1.13936424255371,3.32553386688232,3.65029001235962,0.92358756065369
118,3306138231,0.165541,-0.665698,0.006317,-0.727601,9.66173076629639,-2.35002326965332,1.12422549724579,3.61278033256531,3.59165000915527,0.82450491189957
119,3306154898,0.165497,-0.665676,0.006245,-0.727631,9.72511863708496,-2.31804084777832,1.11967134475708,3.52038216590881,3.49524331092834,0.69955325126648
120,3306171565,0.165399,-0.665659,0.006202,-0.727670,9.76684188842773,-2.31191396713257,1.13546514511108,3.12927675247192,3.54905629158020,0.55489277839661
121,3306188232,0.165243,-0.665665,0.006180,-0.727700,9.81022357940674,-2.30745291709900,1.11101281642914,2.72328948974609,3.41466593742371,0.36990505456924
122,3306204899,0.165106,-0.665681,0.006171,-0.727717,9.81335449218750,-2.29870009422302,1.12441504001617,2.73626232147217,3.32722425460815,0.53331404924393
123,3306221566,0.164968,-0.665700,0.006165,-0.727730,9.79295063018799,-2.31041455268860,1.14808130264282,2.70513010025024,3.29118728637695,0.55233144760132
124,3306238233,0.164874,-0.665718,0.006170,-0.727735,9.78287315368652,-2.29143500328064,1.14966070652008,2.86441540718079,3.27237439155579,0.82835948467255
125,3306254900,0.164800,-0.665722,0.006206,-0.727748,9.75252628326416,-2.27475929260254,1.15206086635590,2.80692791938782,3.41387248039246,1.05904042720795
126,3306271567,0.164730,-0.665692,0.006273,-0.727790,9.72874450683594,-2.28855228424072,1.16283297538757,2.67398548126221,3.76220536231995,1.19327664375305
127,3306288234,0.164672,-0.665649,0.006335,-0.727843,9.73808956146240,-2.30752468109131,1.12912452220917,2.80362367630005,3.86349010467529,1.21872270107269
128,3306304901,0.164626,-0.665610,0.006393,-0.727888,9.72325611114502,-2.31765198707581,1.11440920829773,2.87823390960693,3.79866433143616,1.27180504798889
129,3306321568,0.164576,-0.665595,0.006428,-0.727913,9.73821449279785,-2.29404616355896,1.14098358154297,2.95180654525757,3.56300234794617,1.16740775108337
130,3306338235,0.164496,-0.665586,0.006505,-0.727938,9.69731998443604,-2.28909039497375,1.13483226299286,2.58537817001343,3.57801151275635,1.20329129695892
131,3306354902,0.164408,-0.665593,0.006574,-0.727951,9.65344238281250,-2.32122492790222,1.13512766361237,2.57996106147766,3.43737173080444,1.14103937149048
132,3306371569,0.164308,-0.665607,0.006597,-0.727961,9.68101310729980,-2.32500958442688,1.11777627468109,2.73972010612488,3.33299970626831,0.88158267736435
133,3306388236,0.164221,-0.665618,0.006543,-0.727971,9.71510791778564,-2.34019756317139,1.10534083843231,3.19182276725769,3.26875066757202,0.58752334117889
134,3306404903,0.164125,-0.665623,0.006481,-0.727988,9.71361541748047,-2.28821754455566,1.12689375877380,3.20150446891785,3.31753039360046,0.50038897991180
135,3306421570,0.164078,-0.665631,0.006398,-0.727992,9.82427501678467,-2.32535362243652,1.12738311290741,3.08626031875610,3.32242250442505,0.61092060804367
136,3306438237,0.164003,-0.665644,0.006293,-0.727998,9.89660930633545,-2.32463216781616,1.12828969955444,3.52489066123962,3.17311286926270,0.42606088519096
137,3306454904,0.163905,-0.665669,0.006202,-0.727999,9.88537216186523,-2.27664613723755,1.17177677154541,3.26303887367249,3.12560105323792,0.36178576946259
138,3306471571,0.163798,-0.665704,0.006198,-0.727991,9.81167316436768,-2.27475023269653,1.20729172229767,2.67588043212891,3.15008640289307,0.72158014774323
139,3306488238,0.163753,-0.665708,0.006204,-0.727997,9.72220993041992,-2.32294058799744,1.20040583610535,2.85171127319336,3.40946626663208,1.05079305171967
140,3306504905,0.163809,-0.665671,0.006188,-0.728019,9.71069145202637,-2.29999160766602,1.18671357631683,3.57068586349487,3.62616324424744,1.45158076286316
141,3306521572,0.163937,-0.665590,0.006142,-0.728065,9.76941394805908,-2.31722617149353,1.15652871131897,3.99963450431824,3.94642400741577,1.63496744632721
142,3306538239,0.164048,-0.665476,0.006111,-0.728144,9.79595470428467,-2.25476384162903,1.15782248973846,4.31732225418091,4.17935895919800,1.63636386394501
143,3306554906,0.164095,-0.665399,0.006155,-0.728203,9.74817848205566,-2.23619866371155,1.16241478919983,3.38509631156921,4.04289436340332,1.64859354496002
144,3306571573,0.164088,-0.665363,0.006276,-0.728236,9.74418830871582,-2.24559760093689,1.12029147148132,2.66717195510864,3.81013870239258,1.76300525665283
145,3306588240,0.164110,-0.665361,0.006404,-0.728233,9.72996330261230,-2.30897188186646,1.11953270435333,2.85741066932678,3.45839977264404,1.98720622062683
146,3306604907,0.164222,-0.665355,0.006432,-0.728212,9.70982456207275,-2.32554078102112,1.09394872188568,3.38193321228027,3.37291741371155,1.96146559715271
147,3306621574,0.164340,-0.665332,0.006409,-0.728207,9.71387386322021,-2.32495284080505,1.11247479915619,3.91499733924866,3.41631817817688,1.75929141044617
148,3306638241,0.164381,-0.665317,0.006382,-0.728212,9.76340866088867,-2.31331562995911,1.12581598758698,3.83909440040588,3.35310626029968,1.38558959960938
149,3306654908,0.164409,-0.665350,0.006335,-0.728175,9.77904605865479,-2.31019520759583,1.11865174770355,3.44884610176086,2.98955965042114,1.22588145732880
150,3306671575,0.164350,-0.665415,0.006361,-0.728129,9.72323036193848,-2.31193566322327,1.15554177761078,3.02087068557739,2.78976750373840,1.17351627349854
151,3306688242,0.164340,-0.665458,0.006372,-0.728092,9.69014930725098,-2.30955648422241,1.14589226245880,3.06756258010864,2.99042987823486,1.31133830547333
152,3306704909,0.164382,-0.665454,0.006381,-0.728086,9.75253200531006,-2.32166576385498,1.16864824295044,3.41547274589539,3.34638237953186,1.53283679485321
153,3306721576,0.164388,-0.665427,0.006371,-0.728110,9.79903507232666,-2.27766489982605,1.17836546897888,3.24327874183655,3.60696625709534,1.21498334407806
154,3306738243,0.164298,-0.665399,0.006421,-0.728155,9.79951286315918,-2.30634117126465,1.16792583465576,2.69857358932495,3.73994779586792,1.01671552658081
155,3306754910,0.164230,-0.665408,0.006421,-0.728163,9.77128028869629,-2.34534883499146,1.15793907642365,2.78862786293030,3.37811684608459,0.90441650152206
156,3306771577,0.164164,-0.665442,0.006411,-0.728146,9.77240180969238,-2.34078860282898,1.15224313735962,3.01666998863220,3.07919073104858,0.92687875032425
157,3306788244,0.164195,-0.665419,0.006324,-0.728161,9.75865364074707,-2.32314062118530,1.16584658622742,3.91396021842957,3.42475795745850,1.01645934581757
158,3306804911,0.164315,-0.665335,0.006193,-0.728212,9.70740604400635,-2.31674766540527,1.16057586669922,4.55589056015015,3.84559965133667,1.22206509113312
159,3306821578,0.164417,-0.665243,0.006070,-0.728273,9.72201824188232,-2.28157138824463,1.13807713985443,4.50969839096069,3.93329763412476,1.16811203956604
160,3306838245,0.164450,-0.665178,0.006007,-0.728326,9.78210735321045,-2.27118539810181,1.11436295509338,3.95487642288208,3.80437660217285,1.11007368564606
161,3306854912,0.164404,-0.665139,0.005973,-0.728373,9.78650474548340,-2.28246355056763,1.11477792263031,3.25617480278015,3.72619318962097,0.83500605821609
162,3306871579,0.164311,-0.665137,0.005953,-0.728396,9.76544857025146,-2.29266667366028,1.12556803226471,2.73890066146851,3.48841810226440,0.66611593961716
163,3306888246,0.164178,-0.665152,0.005978,-0.728411,9.74824142456055,-2.31885528564453,1.16143846511841,2.59001398086548,3.35990619659424,0.72027397155762
164,3306904913,0.164112,-0.665139,0.005929,-0.728438,9.75837421417236,-2.36281466484070,1.16306936740875,3.28552651405334,3.46558380126953,0.69435387849808
165,3306921580,0.164110,-0.665118,0.005792,-0.728459,9.79179763793945,-2.36714410781860,1.15706372261047,3.86843347549438,3.42156887054443,0.60175126791000
166,3306938247,0.164098,-0.665089,0.005591,-0.728490,9.82593536376953,-2.33455634117126,1.15215945243835,4.30701255798340,3.39509749412537,0.27401107549667
167,3306954914,0.164089,-0.665052,0.005385,-0.728528,9.82110023498535,-2.30375146865845,1.14576125144958,4.48500776290894,3.43023872375488,0.27093756198883
168,3306971581,0.164076,-0.665000,0.005213,-0.728579,9.83008098602295,-2.28980422019958,1.14531278610229,4.22605085372925,3.62305116653442,0.37860056757927
169,3306988248,0.164080,-0.664886,0.005065,-0.728684,9.82287883758545,-2.28120398521423,1.17330861091614,4.17537641525269,4.22719049453735,0.50597250461578
170,3307004915,0.164112,-0.664715,0.004871,-0.728833,9.77314758300781,-2.31429481506348,1.17355692386627,4.59374761581421,4.66287612915039,0.38972932100296
171,3307021582,0.164164,-0.664547,0.004658,-0.728976,9.73566246032715,-2.26371026039124,1.19606292247772,5.01613903045654,4.54472446441650,0.43830379843712
172,3307038249,0.164260,-0.664379,0.004459,-0.729109,9.70495700836182,-2.22839570045471,1.20167732238770,4.87074899673462,4.57271957397461,0.70258855819702
173,3307054916,0.164266,-0.664230,0.004378,-0.729244,9.67602157592773,-2.21059083938599,1.19276916980743,4.38619518280029,4.49923610687256,0.84892666339874
174,3307071583,0.164269,-0.664091,0.004332,-0.729370,9.69358253479004,-2.20955061912537,1.15658056735992,3.89037156105042,4.51886844635010,0.97099679708481
175,3307088250,0.164235,-0.663978,0.004277,-0.729481,9.73793888092041,-2.23047471046448,1.15131390094757,3.73144340515137,4.31103372573853,0.76521146297455
176,3307104917,0.164206,-0.663902,0.004238,-0.729557,9.75813770294189,-2.22852826118469,1.15871453285217,3.47385716438293,4.01878070831299,0.87350207567215
177,3307121584,0.164163,-0.663861,0.004215,-0.729604,9.73868083953857,-2.22175025939941,1.18260407447815,3.29323625564575,3.72696185112000,0.90879625082016
178,3307138251,0.164085,-0.663874,0.004219,-0.729610,9.73007297515869,-2.22915840148926,1.18770074844360,2.93241763114929,3.30541491508484,0.90501844882965
179,3307154918,0.163965,-0.663907,0.004275,-0.729606,9.73320960998535,-2.25733351707458,1.16648638248444,2.46160459518433,3.21338844299316,0.93853247165680
180,3307171585,0.163824,-0.663931,0.004319,-0.729616,9.72569179534912,-2.25857973098755,1.17723500728607,2.36118960380554,3.33599638938904,0.75812947750092
181,3307188252,0.163665,-0.663948,0.004359,-0.729636,9.71317863464355,-2.26021957397461,1.17978358268738,2.37342000007629,3.38574886322021,0.64335894584656
182,3307204919,0.163522,-0.663966,0.004349,-0.729651,9.72203254699707,-2.29201364517212,1.20387053489685,2.70454096794128,3.30839872360229,0.50580602884293
183,3307221586,0.163431,-0.663994,0.004295,-0.729647,9.73362731933594,-2.27856874465942,1.21004998683929,3.14449048042297,3.11387038230896,0.58829170465469
184,3307238253,0.163392,-0.664013,0.004190,-0.729639,9.75456142425537,-2.27325129508972,1.20698308944702,3.65127658843994,3.08460855484009,0.61088222265244
185,3307254920,0.163361,-0.664029,0.004043,-0.729632,9.77839183807373,-2.26532554626465,1.20998167991638,3.90342020988464,3.06267046928406,0.46312242746353
186,3307271587,0.163316,-0.664043,0.003939,-0.729630,9.79681873321533,-2.25138878822327,1.22139549255371,3.62077164649963,3.13889384269714,0.58798438310623
187,3307288254,0.163217,-0.664077,0.003921,-0.729621,9.76708221435547,-2.23269629478455,1.22031998634338,2.92322230339050,3.10814595222473,0.71316647529602
188,3307304921,0.163086,-0.664120,0.003972,-0.729611,9.73764514923096,-2.21893715858459,1.21446108818054,2.41570687294006,3.13010931015015,0.86867409944534
189,3307321588,0.162979,-0.664132,0.004029,-0.729623,9.71204566955566,-2.25818181037903,1.20449554920197,2.53442144393921,3.40002799034119,0.99473959207535
190,3307338255,0.162947,-0.664126,0.003989,-0.729637,9.70815467834473,-2.30377221107483,1.17884325981140,3.38638925552368,3.38747739791870,0.91896438598633
191,3307354922,0.163020,-0.664084,0.003842,-0.729659,9.77472114562988,-2.32187628746033,1.15529656410217,4.43919992446899,3.47958135604858,0.95343935489655
192,3307371589,0.163106,-0.664061,0.003583,-0.729663,9.84534358978271,-2.27876234054565,1.17309832572937,5.03762769699097,3.17362499237061,0.53456908464432
193,3307388256,0.163090,-0.664117,0.003379,-0.729616,9.84409141540527,-2.16367459297180,1.17917382717133,4.20796823501587,2.60834002494812,0.32122808694839
194,3307404923,0.162917,-0.664222,0.003370,-0.729559,9.78661537170410,-2.15687680244446,1.17924404144287,2.45704531669617,2.54608821868896,0.43491002917290
195,3307421590,0.162736,-0.664271,0.003425,-0.729555,9.74356746673584,-2.22985839843750,1.15156900882721,2.15728759765625,3.13730645179749,0.62772256135941
196,3307438257,0.162620,-0.664266,0.003430,-0.729585,9.70862293243408,-2.26902580261230,1.15811741352081,2.77025055885315,3.50728178024292,0.69503265619278
197,3307454924,0.162582,-0.664228,0.003340,-0.729629,9.71443080902100,-2.24094057083130,1.18434834480286,3.63730454444885,3.62928771972656,0.62913119792938
198,3307471591,0.162629,-0.664177,0.003180,-0.729665,9.73998928070068,-2.20524859428406,1.15313208103180,4.39675951004028,3.57806277275085,0.74878096580505
199,3307488258,0.162693,-0.664150,0.003022,-0.729677,9.77493667602539,-2.19977426528931,1.14657843112946,4.43134975433350,3.34653615951538,0.87136334180832
200,3307504925,0.162717,-0.664153,0.002917,-0.729669,9.79493045806885,-2.16810035705566,1.14600169658661,3.95255827903748,3.16758036613464,0.93533104658127
201,3307521592,0.162669,-0.664162,0.002908,-0.729671,9.78498172760010,-2.13218069076538,1.14165723323822,3.13471937179565,3.29058551788330,0.99482941627502
202,3307538259,0.162556,-0.664179,0.002993,-0.729680,9.76834678649902,-2.16040754318237,1.14701044559479,2.35260963439941,3.38828468322754,1.09845829010010
203,3307554926,0.162435,-0.664215,0.003121,-0.729674,9.74213027954102,-2.19876646995544,1.16988492012024,2.08234429359436,3.27859830856323,1.25963890552521
204,3307571593,0.162328,-0.664262,0.003227,-0.729655,9.76469326019287,-2.24998998641968,1.16386437416077,2.24433231353760,3.13117194175720,1.25271093845367
205,3307588260,0.162262,-0.664315,0.003250,-0.729621,9.74952793121338,-2.26874494552612,1.19149696826935,2.83689475059509,2.94099783897400,1.09424495697021
206,3307604927,0.162250,-0.664354,0.003170,-0.729589,9.68608856201172,-2.23846483230591,1.18820536136627,3.61590552330017,2.91123604774475,0.89145654439926
207,3307621594,0.162314,-0.664353,0.003059,-0.729576,9.70392036437988,-2.21105194091797,1.14245820045471,4.16931915283203,3.15057373046875,1.10789668560028
208,3307638261,0.162424,-0.664316,0.002956,-0.729586,9.78212547302246,-2.20825815200806,1.16625320911407,4.37611532211304,3.45402002334595,1.35455965995789
209,3307654928,0.162444,-0.664288,0.002917,-0.729607,9.81740951538086,-2.17150926589966,1.16397404670715,3.63443636894226,3.52984690666199,1.18190467357635
210,3307671595,0.162358,-0.664279,0.002966,-0.729633,9.80742931365967,-2.19484782218933,1.16309010982513,2.68425631523132,3.55799531936646,1.04883384704590
211,3307688262,0.162238,-0.664288,0.003073,-0.729652,9.76902580261230,-2.21344041824341,1.16358757019043,2.21938538551331,3.50273537635803,1.14926111698151
212,3307704929,0.162134,-0.664321,0.003163,-0.729645,9.71930408477783,-2.26115298271179,1.16619122028351,2.34782004356384,3.24257397651672,1.17637193202972
213,3307721596,0.162117,-0.664316,0.003158,-0.729653,9.71906089782715,-2.27122068405151,1.16832590103149,3.26530528068542,3.39641666412354,1.16214418411255
214,3307738263,0.162175,-0.664273,0.003048,-0.729680,9.66636562347412,-2.24086022377014,1.17958199977875,4.17810392379761,3.55086159706116,1.04331421852112
215,3307754930,0.162276,-0.664201,0.002941,-0.729723,9.66745948791504,-2.19048738479614,1.20108807086945,4.38677072525024,3.77627897262573,1.25382483005524
216,3307771597,0.162345,-0.664132,0.002866,-0.729771,9.68907737731934,-2.18923974037170,1.16400396823883,4.08340120315552,3.81916785240173,1.23583209514618
217,3307788264,0.162370,-0.664082,0.002843,-0.729811,9.74862480163574,-2.20702886581421,1.15463292598724,3.59252119064331,3.74254703521729,1.25677049160004
218,3307804931,0.162324,-0.664067,0.002838,-0.729835,9.79014778137207,-2.25666785240173,1.15966320037842,3.29919099807739,3.48667621612549,1.01999378204346
219,3307821598,0.162287,-0.664063,0.002776,-0.729847,9.81851387023926,-2.24629616737366,1.16294777393341,3.47491955757141,3.33721327781677,0.80562824010849
220,3307838265,0.162277,-0.664086,0.002675,-0.729828,9.81283187866211,-2.24928498268127,1.19064068794250,3.84980034828186,3.00228881835938,0.80183762311935
221,3307854932,0.162279,-0.664119,0.002539,-0.729798,9.82643032073975,-2.24920201301575,1.18483293056488,4.35942935943604,2.79993605613708,0.75464624166489
222,3307871599,0.162321,-0.664162,0.002336,-0.729750,9.82007598876953,-2.20856094360352,1.21392667293549,4.57342338562012,2.65207338333130,0.62870860099792
223,3307888266,0.162361,-0.664184,0.002170,-0.729722,9.82047271728516,-2.19435524940491,1.19644451141357,4.30116033554077,2.91284918785095,0.75847536325455
224,3307904933,0.162368,-0.664189,0.002083,-0.729716,9.79404067993164,-2.17310547828674,1.20171475410461,3.77798223495483,3.18659782409668,0.92888939380646
225,3307921600,0.162341,-0.664196,0.002079,-0.729716,9.77380180358887,-2.18017363548279,1.19717335700989,3.20740842819214,3.29947304725647,1.12804102897644
226,3307938267,0.162266,-0.664192,0.002130,-0.729736,9.78687477111816,-2.18866157531738,1.17907106876373,2.84510374069214,3.48411488533020,1.13239526748657
227,3307954934,0.162224,-0.664183,0.002173,-0.729753,9.76650047302246,-2.20107078552246,1.17616057395935,2.92283868789673,3.50360655784607,1.25111019611359
228,3307971601,0.162160,-0.664180,0.002254,-0.729770,9.76583290100098,-2.20226812362671,1.15786445140839,2.87166428565979,3.46431636810303,1.33578562736511
229,3307988268,0.162118,-0.664167,0.002284,-0.729792,9.80720043182373,-2.22997260093689,1.16170191764832,3.02960491180420,3.52791309356689,1.19286680221558
230,3308004935,0.162109,-0.664164,0.002278,-0.729796,9.81005096435547,-2.21720814704895,1.19408202171326,3.31350827217102,3.35961127281189,1.21087229251862
231,3308021602,0.162099,-0.664168,0.002283,-0.729794,9.79918766021729,-2.21270251274109,1.17335462570190,3.24587869644165,3.31712055206299,1.25379931926727
232,3308038269,0.162043,-0.664194,0.002293,-0.729783,9.77512931823730,-2.19603896141052,1.17375206947327,3.04006767272949,3.15866708755493,1.06826102733612
233,3308054936,0.161962,-0.664218,0.002319,-0.729780,9.78809547424316,-2.19386863708496,1.17552769184113,2.84973931312561,3.21862626075745,1.00454938411713
234,3308071603,0.161851,-0.664239,0.002369,-0.729785,9.78867912292480,-2.22294235229492,1.16183984279633,2.62853550910950,3.29295444488525,0.96194261312485
235,3308088270,0.161750,-0.664257,0.002396,-0.729791,9.77204322814941,-2.22261381149292,1.17066371440887,2.60466384887695,3.32571268081665,0.87936717271805
236,3308104937,0.161665,-0.664260,0.002442,-0.729807,9.75548839569092,-2.20243024826050,1.19288587570190,2.69898295402527,3.44616937637329,1.04683578014374
237,3308121604,0.161555,-0.664253,0.002536,-0.729837,9.74005699157715,-2.18933081626892,1.21490752696991,2.79935979843140,3.52111268043518,1.18459379673004
238,3308138271,0.161488,-0.664234,0.002609,-0.729869,9.74936485290527,-2.21432757377625,1.19813489913940,3.02408480644226,3.57868933677673,1.28838920593262
239,3308154938,0.161473,-0.664194,0.002631,-0.729909,9.78519439697266,-2.21306324005127,1.17550492286682,3.32760882377625,3.71379709243774,1.28336930274963
240,3308171605,0.161466,-0.664152,0.002596,-0.729949,9.85739803314209,-2.22442698478699,1.15573656558990,3.44640040397644,3.70225834846497,1.03349173069000
241,3308188272,0.161365,-0.664135,0.002596,-0.729986,9.85950183868408,-2.20093560218811,1.16525876522064,3.09790134429932,3.54462528228760,0.76368755102158
242,3308204939,0.161181,-0.664162,0.002672,-0.730002,9.80293273925781,-2.19049310684204,1.19764530658722,2.30170440673828,3.30718207359314,0.71894204616547
243,3308221606,0.161014,-0.664177,0.002758,-0.730025,9.75643920898438,-2.23812747001648,1.18142819404602,2.14802813529968,3.45556926727295,0.81710267066956
244,3308238273,0.160941,-0.664152,0.002773,-0.730064,9.73577117919922,-2.25945711135864,1.18132662773132,3.12202811241150,3.62259030342102,0.96890920400620
245,3308254940,0.160951,-0.664118,0.002698,-0.730093,9.75081825256348,-2.22077584266663,1.19668221473694,4.00293922424316,3.50370860099792,0.98142105340958
246,3308271607,0.161024,-0.664043,0.002568,-0.730145,9.76716232299805,-2.16451907157898,1.20008242130280,4.39856529235840,3.80227589607239,1.00203931331635
247,3308288274,0.161042,-0.663980,0.002529,-0.730199,9.76655101776123,-2.13355731964111,1.20824790000916,3.68726181983948,3.85300230979919,1.14223051071167
248,3308304941,0.160966,-0.663966,0.002635,-0.730228,9.75417804718018,-2.11713433265686,1.18626308441162,2.65496802330017,3.61409997940063,1.37631773948669
249,3308321608,0.160851,-0.663969,0.002822,-0.730250,9.77018737792969,-2.15034818649292,1.15185892581940,2.08231878280640,3.57751107215881,1.56316220760345
250,3308338275,0.160735,-0.663984,0.003011,-0.730261,9.77820205688477,-2.19496059417725,1.16834211349487,1.89844536781311,3.50651335716248,1.56232988834381
251,3308354942,0.160616,-0.664003,0.003172,-0.730269,9.77548217773438,-2.19708132743835,1.16324794292450,2.03503775596619,3.44714283943176,1.42268943786621
252,3308371609,0.160517,-0.664039,0.003268,-0.730258,9.77012348175049,-2.23503470420837,1.17628347873688,2.37708282470703,3.20023655891418,1.23853397369385
253,3308388276,0.160470,-0.664086,0.003267,-0.730225,9.76686668395996,-2.24691367149353,1.19438469409943,3.07313323020935,2.94960331916809,1.07757115364075
254,3308404943,0.160455,-0.664145,0.003229,-0.730175,9.69167613983154,-2.21901631355286,1.18933975696564,3.58967757225037,2.72590231895447,1.11821866035461
255,3308421610,0.160490,-0.664198,0.003173,-0.730119,9.71404075622559,-2.18758058547974,1.20605051517487,3.68956756591797,2.75191235542297,1.25986981391907
256,3308438277,0.160497,-0.664215,0.003188,-0.730103,9.77478981018066,-2.18565869331360,1.16315913200378,3.37523484230042,3.16681146621704,1.42327845096588
257,3308454944,0.160433,-0.664215,0.003253,-0.730117,9.79852771759033,-2.18900322914124,1.19418501853943,2.80206179618835,3.45157456398010,1.25543856620789
258,3308471611,0.160323,-0.664235,0.003351,-0.730122,9.80262374877930,-2.17988109588623,1.19106221199036,2.33955979347229,3.36528444290161,1.17443811893463
259,3308488278,0.160194,-0.664261,0.003466,-0.730126,9.76747703552246,-2.22038555145264,1.19522976875305,2.34527182579041,3.29759025573730,1.18269848823547
260,3308504945,0.160123,-0.664315,0.003556,-0.730092,9.76697254180908,-2.23220109939575,1.19484865665436,2.56002140045166,2.99282479286194,1.38019788265228
261,3308521612,0.160112,-0.664358,0.003553,-0.730055,9.75029659271240,-2.23319435119629,1.19574356079102,3.26246285438538,2.95052576065063,1.26056110858917
262,3308538279,0.160122,-0.664352,0.003526,-0.730059,9.75120830535889,-2.20146059989929,1.16854596138000,3.83506083488464,3.28258156776428,1.24028873443604
263,3308554946,0.160131,-0.664340,0.003524,-0.730068,9.76845359802246,-2.16942381858826,1.17110133171082,3.41840553283691,3.42340016365051,1.31657612323761
264,3308571613,0.160068,-0.664337,0.003600,-0.730084,9.78160190582275,-2.17384147644043,1.16462731361389,2.85378646850586,3.46811962127686,1.31859946250916
265,3308588280,0.159989,-0.664360,0.003706,-0.730080,9.78044414520264,-2.21226716041565,1.14833474159241,2.38207721710205,3.32609748840332,1.37248861789703
266,3308604947,0.159892,-0.664409,0.003810,-0.730056,9.76118946075439,-2.20480394363403,1.15455162525177,2.38367772102356,3.07862710952759,1.30986547470093
267,3308621614,0.159805,-0.664454,0.003896,-0.730033,9.77069473266602,-2.18313789367676,1.16039133071899,2.53612446784973,3.08176469802856,1.27375149726868
268,3308638281,0.159736,-0.664494,0.003931,-0.730012,9.77856636047363,-2.19272685050964,1.16815268993378,2.79316115379333,3.07935738563538,1.12104856967926
269,3308654948,0.159680,-0.664512,0.003979,-0.730008,9.77736186981201,-2.21667790412903,1.16934013366699,2.82010579109192,3.27818870544434,1.22626566886902
270,3308671615,0.159615,-0.664546,0.004036,-0.729990,9.77957725524902,-2.21436977386475,1.17129898071289,2.84784412384033,3.11351180076599,1.25411939620972
271,3308688282,0.159518,-0.664586,0.004094,-0.729975,9.78012371063232,-2.22211527824402,1.16198933124542,2.78079032897949,3.07858920097351,1.10601401329041
272,3308704949,0.159426,-0.664626,0.004143,-0.729958,9.76590156555176,-2.21002197265625,1.15879535675049,2.67796778678894,3.09910440444946,1.06864500045776
273,3308721616,0.159327,-0.664659,0.004221,-0.729949,9.76687717437744,-2.20336532592773,1.19222354888916,2.45850539207458,3.21460509300232,1.15324378013611
274,3308738283,0.159249,-0.664679,0.004275,-0.729948,9.77129364013672,-2.21408820152283,1.15866696834564,2.50259780883789,3.32941412925720,1.12161231040955
275,3308754950,0.159203,-0.664694,0.004293,-0.729944,9.77092170715332,-2.23509693145752,1.15374183654785,3.00797510147095,3.26268076896667,1.13586568832397
276,3308771617,0.159203,-0.664700,0.004262,-0.729939,9.78017425537109,-2.21641278266907,1.14886271953583,3.48659944534302,3.24436736106873,1.15230894088745
277,3308788284,0.159215,-0.664712,0.004225,-0.729925,9.75824546813965,-2.17922759056091,1.15579545497894,3.41147708892822,3.20429587364197,1.17249178886414
278,3308804951,0.159163,-0.664710,0.004244,-0.729938,9.77136802673340,-2.17668986320496,1.16736924648285,3.00117492675781,3.42347741127014,1.09564101696014
279,3308821618,0.159081,-0.664718,0.004319,-0.729949,9.79699897766113,-2.17344069480896,1.13002824783325,2.58355951309204,3.42652440071106,1.20477664470673
280,3308838285,0.158952,-0.664730,0.004409,-0.729965,9.79745769500732,-2.19238829612732,1.14203262329102,2.53055381774902,3.39450860023499,1.06082034111023
281,3308854952,0.158879,-0.664750,0.004439,-0.729963,9.78325557708740,-2.21026897430420,1.14947724342346,2.67990159988403,3.29368424415588,1.04296839237213
282,3308871619,0.158845,-0.664765,0.004447,-0.729956,9.76434612274170,-2.21765756607056,1.16700601577759,3.07589983940125,3.24368858337402,1.14850556850433
283,3308888286,0.158834,-0.664788,0.004429,-0.729938,9.77568912506104,-2.18668723106384,1.14879703521729,3.34880328178406,3.11535620689392,1.16620397567749
284,3308904953,0.158825,-0.664818,0.004419,-0.729913,9.79491138458252,-2.16761922836304,1.16080927848816,3.35537290573120,3.04868650436401,1.22703409194946
285,3308921620,0.158816,-0.664821,0.004435,-0.729912,9.80909252166748,-2.19483137130737,1.14724636077881,3.29849934577942,3.31740188598633,1.32638561725616
286,3308938287,0.158779,-0.664812,0.004482,-0.729928,9.80732059478760,-2.18801283836365,1.17508625984192,2.97001695632935,3.49355363845825,1.29676473140717
287,3308954954,0.158734,-0.664797,0.004576,-0.729951,9.77329921722412,-2.20675611495972,1.15131986141205,2.74954271316528,3.60468649864197,1.47408139705658
288,3308971621,0.158699,-0.664791,0.004649,-0.729963,9.76534461975098,-2.21318721771240,1.16138887405396,2.82255172729492,3.49479556083679,1.42982280254364
289,3308988288,0.158691,-0.664796,0.004676,-0.729961,9.72613334655762,-2.18995094299316,1.15754365921021,3.02101182937622,3.35976576805115,1.35365068912506
290,3309004955,0.158698,-0.664782,0.004711,-0.729971,9.77148246765137,-2.19877338409424,1.13384890556335,3.12152862548828,3.50546264648438,1.45944368839264
291,3309021622,0.158692,-0.664757,0.004736,-0.729995,9.82441997528076,-2.21767258644104,1.12570750713348,3.23277759552002,3.59212374687195,1.34667098522186
292,3309038289,0.158642,-0.664771,0.004737,-0.729994,9.83691596984863,-2.18991827964783,1.14666712284088,2.94500613212585,3.29461979866028,1.01978898048401
293,3309054956,0.158501,-0.664833,0.004820,-0.729967,9.79469108581543,-2.18860769271851,1.18092656135559,2.30873537063599,2.97369265556335,0.99548256397247
294,3309071623,0.158418,-0.664861,0.004847,-0.729960,9.75514316558838,-2.25648164749146,1.15617573261261,2.68434548377991,3.21488690376282,0.98555743694305
295,3309088290,0.158429,-0.664872,0.004775,-0.729947,9.70170879364014,-2.22094845771790,1.15158331394196,3.67699146270752,3.15098333358765,1.02181231975555
296,3309104957,0.158564,-0.664876,0.004642,-0.729916,9.76564407348633,-2.19475889205933,1.16813552379608,4.25751638412476,3.10634064674377,1.34387922286987
297,3309121624,0.158690,-0.664846,0.004554,-0.729915,9.79389095306396,-2.16069126129150,1.14562845230103,4.24259662628174,3.41163063049316,1.50074422359467
298,3309138291,0.158725,-0.664836,0.004569,-0.729918,9.77598285675049,-2.13179039955139,1.14984059333801,3.29486250877380,3.44368529319763,1.50837659835815
299,3309154958,0.158616,-0.664859,0.004733,-0.729919,9.76714801788330,-2.13155674934387,1.14244043827057,2.07428908348083,3.38436579704285,1.49353396892548
300,3309171625,0.158513,-0.664895,0.004924,-0.729907,9.76169586181641,-2.20083642005920,1.12905275821686,1.76673197746277,3.33530449867249,1.64128088951111
301,3309188292,0.158412,-0.664938,0.005075,-0.729889,9.75913906097412,-2.24483633041382,1.13221144676208,2.14437818527222,3.18109059333801,1.49394392967224
302,3309204959,0.158393,-0.664980,0.005097,-0.729855,9.76547336578369,-2.25227093696594,1.14402496814728,3.04060530662537,3.00924253463745,1.32064831256866
303,3309221626,0.158466,-0.665015,0.005031,-0.729808,9.76152229309082,-2.24139451980591,1.15026593208313,3.82282996177673,2.89567613601685,1.38182449340820
304,3309238293,0.158530,-0.665044,0.004978,-0.729768,9.79067897796631,-2.20693540573120,1.17781364917755,3.80609178543091,2.95984840393066,1.39483547210693
305,3309254960,0.158574,-0.665078,0.004948,-0.729727,9.77394294738770,-2.19793415069580,1.18006002902985,3.38978385925293,2.99504065513611,1.38505172729492
306,3309271627,0.158528,-0.665111,0.005002,-0.729707,9.73902988433838,-2.19899773597717,1.17835319042206,3.08036947250366,3.07873010635376,1.35239553451538
307,3309288294,0.158535,-0.665109,0.005022,-0.729707,9.77538108825684,-2.21844434738159,1.13724517822266,3.06461763381958,3.41456389427185,1.38685739040375
308,3309304961,0.158525,-0.665099,0.005051,-0.729718,9.81964588165283,-2.21490383148193,1.16944110393524,2.93035602569580,3.51862907409668,1.32876801490784
309,3309321628,0.158431,-0.665084,0.005182,-0.729751,9.79871273040771,-2.18739700317383,1.19364094734192,2.29824686050415,3.69358825683594,1.37530601024628
310,3309338295,0.158345,-0.665072,0.005309,-0.729780,9.77854824066162,-2.23372626304626,1.15393829345703,2.41187763214111,3.64578247070312,1.41824591159821
311,3309354962,0.158314,-0.665076,0.005335,-0.729783,9.76657199859619,-2.25923275947571,1.14971423149109,2.97262954711914,3.37852716445923,1.23224639892578
312,3309371629,0.158316,-0.665077,0.005273,-0.729782,9.77361202239990,-2.24364352226257,1.14044380187988,3.57593631744385,3.27216982841492,1.00180876255035
313,3309388296,0.158377,-0.665045,0.005152,-0.729799,9.73167896270752,-2.20059752464294,1.15865230560303,4.21734237670898,3.44672012329102,1.01802170276642
314,3309404963,0.158423,-0.665015,0.005064,-0.729817,9.74288463592529,-2.16924238204956,1.14317035675049,4.21475505828857,3.42841958999634,1.11734759807587
315,3309421630,0.158466,-0.664980,0.005022,-0.729839,9.76435852050781,-2.15354800224304,1.15211153030396,3.62038755416870,3.59569668769836,1.26431334018707
316,3309438297,0.158452,-0.664967,0.005024,-0.729854,9.77171611785889,-2.18268060684204,1.13124334812164,3.17936205863953,3.49738192558289,1.20110106468201
317,3309454964,0.158381,-0.664969,0.005082,-0.729868,9.78351974487305,-2.16938090324402,1.14814388751984,2.92191624641418,3.40188598632812,1.19668316841125
318,3309471631,0.158293,-0.664996,0.005147,-0.729861,9.79218387603760,-2.17857360839844,1.13613140583038,2.66495656967163,3.22093129158020,1.16105556488037
319,3309488298,0.158231,-0.665046,0.005219,-0.729829,9.77989959716797,-2.18786048889160,1.16350018978119,2.45115470886230,3.05709958076477,1.31233704090118
320,3309504965,0.158194,-0.665090,0.005316,-0.729796,9.78565692901611,-2.21261358261108,1.17578053474426,2.60298657417297,3.07984423637390,1.57061564922333
321,3309521632,0.158152,-0.665105,0.005413,-0.729791,9.80684185028076,-2.24334740638733,1.18618559837341,2.77107048034668,3.30619645118713,1.53804910182953
322,3309538299,0.158163,-0.665114,0.005441,-0.729780,9.79739665985107,-2.21616148948669,1.14983570575714,3.13415598869324,3.29281377792358,1.46883082389832
323,3309554966,0.158136,-0.665120,0.005494,-0.729780,9.76803874969482,-2.21918797492981,1.16186296939850,3.15985822677612,3.31103730201721,1.41531312465668
324,3309571633,0.158148,-0.665124,0.005525,-0.729773,9.77215194702148,-2.20749211311340,1.16562104225159,3.16213750839233,3.33283305168152,1.48773276805878
325,3309588300,0.158158,-0.665124,0.005583,-0.729771,9.76680660247803,-2.20049738883972,1.16394567489624,2.97796988487244,3.41146469116211,1.58766102790833
326,3309604967,0.158150,-0.665112,0.005654,-0.729783,9.75402545928955,-2.21073985099792,1.15019822120667,2.93591308593750,3.53047370910645,1.55478692054749
327,3309621634,0.158184,-0.665082,0.005681,-0.729802,9.76842975616455,-2.20628499984741,1.13597810268402,3.08732271194458,3.67038321495056,1.52211785316467
328,3309638301,0.158176,-0.665051,0.005716,-0.729832,9.78097915649414,-2.21167159080505,1.15064013004303,3.16359734535217,3.66162347793579,1.36950457096100
329,3309654968,0.158139,-0.665037,0.005789,-0.729853,9.77592563629150,-2.19658684730530,1.15782618522644,2.74339628219604,3.59801554679871,1.40733492374420
330,3309671635,0.158105,-0.665031,0.005892,-0.729864,9.75323581695557,-2.21166110038757,1.13795340061188,2.64907717704773,3.53185725212097,1.56852829456329
331,3309688302,0.158055,-0.665040,0.005984,-0.729867,9.76566123962402,-2.22377896308899,1.12741208076477,2.59874796867371,3.41108083724976,1.44536960124969
332,3309704969,0.158024,-0.665044,0.006010,-0.729869,9.78410053253174,-2.22242259979248,1.15273928642273,2.99661588668823,3.36569499969482,1.23802208900452
333,3309721636,0.157989,-0.665039,0.006036,-0.729881,9.76663875579834,-2.21243000030518,1.13776743412018,3.12580633163452,3.42569279670715,1.22250080108643
334,3309738303,0.157957,-0.665016,0.006081,-0.729909,9.78480911254883,-2.20328664779663,1.16909015178680,2.97659897804260,3.62648224830627,1.29965865612030
335,3309754970,0.157919,-0.664991,0.006152,-0.729939,9.77617645263672,-2.22041630744934,1.18386256694794,2.73966908454895,3.69919800758362,1.37211740016937
336,3309771637,0.157872,-0.664989,0.006214,-0.729951,9.76893043518066,-2.22742486000061,1.15665781497955,2.83516597747803,3.46449613571167,1.32515645027161
337,3309788304,0.157848,-0.665000,0.006235,-0.729946,9.77871513366699,-2.21983480453491,1.14922261238098,3.13957285881042,3.27095341682434,1.26742541790009
338,3309804971,0.157855,-0.664989,0.006228,-0.729954,9.78636550903320,-2.20692324638367,1.16135692596436,3.30596590042114,3.44255828857422,1.26506888866425
339,3309821638,0.157849,-0.664968,0.006264,-0.729975,9.77540016174316,-2.19774174690247,1.16870498657227,3.13883018493652,3.57569313049316,1.40068829059601
340,3309838305,0.157838,-0.664943,0.006328,-0.729999,9.76288890838623,-2.18934082984924,1.17039299011230,2.93707871437073,3.64779281616211,1.48683643341064
341,3309854972,0.157793,-0.664921,0.006416,-0.730028,9.73661518096924,-2.19859457015991,1.15967679023743,2.70680809020996,3.67778587341309,1.43157708644867
342,3309871639,0.157736,-0.664930,0.006487,-0.730032,9.68759250640869,-2.18138957023621,1.18685245513916,2.63947176933289,3.40247416496277,1.30711197853088
343,3309888306,0.157714,-0.664922,0.006585,-0.730042,9.75929355621338,-2.19676184654236,1.15636312961578,2.66120505332947,3.54376721382141,1.60617923736572
344,3309904973,0.157703,-0.664917,0.006673,-0.730048,9.84578990936279,-2.25315380096436,1.15989232063293,2.69922685623169,3.51527357101440,1.60095405578613
345,3309921640,0.157615,-0.664939,0.006766,-0.730046,9.85884380340576,-2.21300005912781,1.15229296684265,2.45768594741821,3.31636476516724,1.27484011650085
346,3309938307,0.157475,-0.664994,0.006880,-0.730026,9.81668281555176,-2.22607827186584,1.17165720462799,2.03232312202454,3.10685300827026,1.11673319339752
347,3309954974,0.157416,-0.665008,0.006922,-0.730025,9.75348567962646,-2.26643943786621,1.16358268260956,2.65353345870972,3.34631848335266,1.15645825862885
348,3309971641,0.157439,-0.665007,0.006881,-0.730022,9.70805454254150,-2.25419640541077,1.18585240840912,3.59127855300903,3.28734540939331,1.21297264099121
349,3309988308,0.157555,-0.664989,0.006809,-0.730014,9.75759410858154,-2.23289155960083,1.17308771610260,4.07666492462158,3.34424424171448,1.52501237392426
350,3310004975,0.157654,-0.664955,0.006790,-0.730024,9.79665946960449,-2.18009018898010,1.16521894931793,3.96265006065369,3.51189184188843,1.69488847255707
351,3310021642,0.157642,-0.664932,0.006885,-0.730047,9.79975700378418,-2.14991044998169,1.15073823928833,2.88092279434204,3.64453983306885,1.63408362865448
352,3310038309,0.157567,-0.664937,0.007054,-0.730057,9.76343727111816,-2.13962769508362,1.16950917243958,1.93637764453888,3.58953642845154,1.65002775192261
353,3310054976,0.157469,-0.664949,0.007284,-0.730064,9.75281429290771,-2.19817352294922,1.14115679264069,1.44841730594635,3.62000274658203,1.80206453800201
354,3310071643,0.157417,-0.664955,0.007434,-0.730068,9.74967861175537,-2.25486207008362,1.15309643745422,2.10380792617798,3.53941273689270,1.67818903923035
355,3310088310,0.157443,-0.664967,0.007478,-0.730052,9.74599933624268,-2.28171873092651,1.13310992717743,3.19567704200745,3.25394630432129,1.62875640392303
356,3310104977,0.157525,-0.664980,0.007402,-0.730023,9.76328277587891,-2.26640582084656,1.12943112850189,4.14930295944214,3.02768421173096,1.38790762424469
357,3310121644,0.157631,-0.665005,0.007300,-0.729979,9.78050518035889,-2.23471999168396,1.15127253532410,4.29028797149658,2.89527916908264,1.39438760280609
358,3310138311,0.157688,-0.665041,0.007221,-0.729934,9.74337196350098,-2.22427296638489,1.16764080524445,3.91714811325073,2.86761665344238,1.25422167778015
359,3310154978,0.157732,-0.665074,0.007195,-0.729895,9.73482322692871,-2.19404935836792,1.15682768821716,3.45970606803894,2.99402904510498,1.40610539913177
360,3310171645,0.157712,-0.665075,0.007277,-0.729898,9.76358985900879,-2.23179054260254,1.14225602149963,2.82914710044861,3.43345355987549,1.55435168743134
361,3310188312,0.157651,-0.665069,0.007351,-0.729915,9.80164337158203,-2.24893784523010,1.15715658664703,2.66523885726929,3.53288149833679,1.29567611217499
362,3310204979,0.157602,-0.665067,0.007390,-0.729927,9.78263378143311,-2.25123476982117,1.18088185787201,2.74608516693115,3.48297572135925,1.18143069744110
363,3310221646,0.157596,-0.665049,0.007387,-0.729945,9.78317546844482,-2.26780652999878,1.18274903297424,3.27549934387207,3.51628446578979,1.21539306640625
364,3310238313,0.157684,-0.665038,0.007319,-0.729937,9.76510810852051,-2.25980067253113,1.18489754199982,4.03743886947632,3.28224849700928,1.42062771320343
365,3310254980,0.157802,-0.665025,0.007211,-0.729924,9.76003360748291,-2.24016857147217,1.16970467567444,4.41453456878662,3.21774291992188,1.38941860198975
366,3310271647,0.157943,-0.664977,0.007104,-0.729938,9.74589633941650,-2.19760847091675,1.14607775211334,4.47764444351196,3.54083466529846,1.48381423950195
367,3310288314,0.158041,-0.664930,0.007041,-0.729960,9.75895023345947,-2.16787600517273,1.12015175819397,4.08023786544800,3.61102581024170,1.45608842372894
368,3310304981,0.158035,-0.664915,0.007102,-0.729975,9.76873207092285,-2.16921114921570,1.13206231594086,3.10554623603821,3.52100968360901,1.53081333637238
369,3310321648,0.157973,-0.664925,0.007201,-0.729978,9.77068614959717,-2.20395016670227,1.13684749603271,2.59765934944153,3.39933705329895,1.42558360099792
370,3310338315,0.157922,-0.664957,0.007302,-0.729959,9.78744220733643,-2.20615220069885,1.14401364326477,2.25134968757629,3.26974916458130,1.46915078163147
371,3310354982,0.157853,-0.664994,0.007412,-0.729939,9.76947689056396,-2.25094246864319,1.13684296607971,2.38868546485901,3.18707180023193,1.45451331138611
372,3310371649,0.157830,-0.665019,0.007447,-0.729921,9.74315071105957,-2.26527404785156,1.14513552188873,2.96454834938049,3.17861962318420,1.34031903743744
373,3310388316,0.157912,-0.665022,0.007345,-0.729902,9.77399158477783,-2.26921176910400,1.17069411277771,3.79570651054382,3.21189045906067,1.20149827003479
374,3310404983,0.157972,-0.665024,0.007237,-0.729888,9.77307033538818,-2.24881219863892,1.18817114830017,4.20089912414551,3.12779092788696,1.11314725875854
375,3310421650,0.158015,-0.665025,0.007170,-0.729878,9.80231571197510,-2.21957874298096,1.14654958248138,3.78961062431335,3.22084236145020,1.19319975376129
376,3310438317,0.158016,-0.665019,0.007168,-0.729884,9.81395435333252,-2.22760605812073,1.16273701190948,3.32452201843262,3.40089893341064,1.27012741565704
377,3310454984,0.157988,-0.665004,0.007180,-0.729903,9.79968643188477,-2.24328160285950,1.16408896446228,3.02791500091553,3.53667306900024,1.16713893413544
378,3310471651,0.157897,-0.664989,0.007238,-0.729936,9.80096149444580,-2.23075628280640,1.15677237510681,2.61343669891357,3.63644695281982,1.05143344402313
379,3310488318,0.157833,-0.664961,0.007288,-0.729975,9.78595924377441,-2.25735425949097,1.16031253337860,2.50747704505920,3.78079962730408,1.11766779422760
380,3310504985,0.157753,-0.664906,0.007343,-0.730041,9.78324890136719,-2.27122712135315,1.16427600383759,2.85750007629395,3.95327544212341,1.07751989364624
381,3310521652,0.157757,-0.664844,0.007275,-0.730098,9.77303123474121,-2.27824711799622,1.14941799640656,3.46867036819458,3.90080809593201,0.89876890182495
382,3310538319,0.157827,-0.664772,0.007116,-0.730150,9.76180934906006,-2.25000596046448,1.15530073642731,4.13128423690796,3.84493422508240,0.80492407083511
383,3310554986,0.157848,-0.664698,0.007009,-0.730214,9.74300765991211,-2.18787813186646,1.15204262733459,4.12380504608154,3.86527037620544,0.84226727485657
384,3310571653,0.157858,-0.664632,0.006933,-0.730272,9.76047801971436,-2.17215752601624,1.16389727592468,3.81818175315857,3.85379600524902,0.92634111642838
385,3310588320,0.157844,-0.664571,0.006872,-0.730332,9.75379657745361,-2.19271183013916,1.13009238243103,3.61794185638428,3.84987711906433,0.87101751565933
386,3310604987,0.157792,-0.664507,0.006864,-0.730401,9.77801799774170,-2.21553206443787,1.14151275157928,3.33654761314392,3.93404078483582,0.93247526884079
387,3310621654,0.157701,-0.664466,0.006858,-0.730458,9.77385520935059,-2.22854495048523,1.13480257987976,3.12175917625427,3.77283382415771,0.75508159399033
388,3310638321,0.157619,-0.664435,0.006867,-0.730504,9.77798557281494,-2.22091722488403,1.15948212146759,2.91683220863342,3.71612763404846,0.86118239164352
389,3310654988,0.157571,-0.664419,0.006859,-0.730529,9.79111957550049,-2.22890186309814,1.16583812236786,2.98005700111389,3.56928992271423,0.95249164104462
390,3310671655,0.157509,-0.664401,0.006839,-0.730558,9.79825496673584,-2.23011827468872,1.15712440013885,3.13484764099121,3.54216623306274,0.85124450922012
391,3310688322,0.157447,-0.664387,0.006827,-0.730585,9.80960941314697,-2.22540307044983,1.19351840019226,3.19020891189575,3.50602626800537,0.89632272720337
392,3310704989,0.157412,-0.664357,0.006807,-0.730620,9.80986881256104,-2.20409822463989,1.17227220535278,3.17764616012573,3.65397834777832,0.96712905168533
393,3310721656,0.157326,-0.664318,0.006836,-0.730673,9.80054664611816,-2.23864436149597,1.18016171455383,2.88923406600952,3.79425883293152,0.93228304386139
394,3310738323,0.157248,-0.664288,0.006873,-0.730718,9.73846530914307,-2.22105765342712,1.17616164684296,2.72405815124512,3.75724864006042,1.00170636177063
395,3310754990,0.157174,-0.664219,0.006931,-0.730796,9.72929096221924,-2.20561909675598,1.19858574867249,2.73933625221252,4.11312437057495,1.09214496612549
396,3310771657,0.157145,-0.664146,0.006978,-0.730868,9.69108009338379,-2.21703886985779,1.18737792968750,2.99146723747253,4.09469604492188,1.27234292030334
397,3310788324,0.157178,-0.664053,0.006955,-0.730945,9.72502708435059,-2.23049688339233,1.17115962505341,3.60965561866760,4.15101909637451,1.25400424003601
398,3310804991,0.157213,-0.663938,0.006896,-0.731043,9.85964298248291,-2.22869491577148,1.16302692890167,4.18659448623657,4.23404216766357,1.12314891815186
399,3310821658,0.157211,-0.663852,0.006806,-0.731122,9.88643455505371,-2.18947124481201,1.15697026252747,3.83785176277161,4.03185462951660,0.77888864278793
400,3310838325,0.157068,-0.663843,0.006828,-0.731161,9.82010841369629,-2.16310858726501,1.16787767410278,2.51973247528076,3.60606980323792,0.61948800086975
401,3310854992,0.156891,-0.663835,0.006924,-0.731205,9.77165412902832,-2.23132038116455,1.15579354763031,2.03325796127319,3.69228196144104,0.78474116325378
402,3310871659,0.156791,-0.663796,0.006941,-0.731262,9.72165203094482,-2.28427696228027,1.20321965217590,2.83211803436279,3.81163740158081,0.79411542415619
403,3310888326,0.156803,-0.663727,0.006867,-0.731323,9.71291637420654,-2.24137949943542,1.20292174816132,3.76102709770203,3.89495563507080,0.94117075204849
404,3310904993,0.156906,-0.663636,0.006736,-0.731385,9.75040721893311,-2.18693566322327,1.19652092456818,4.34999084472656,3.97785091400146,1.11545228958130
405,3310921660,0.156944,-0.663541,0.006690,-0.731462,9.79131507873535,-2.13958621025085,1.18723285198212,3.80817937850952,4.12064123153687,1.17972719669342
406,3310938327,0.156855,-0.663470,0.006772,-0.731545,9.78300571441650,-2.13620305061340,1.20020246505737,2.98748469352722,4.07373189926147,1.17748641967773
407,3310954994,0.156760,-0.663428,0.006887,-0.731603,9.80973434448242,-2.17263150215149,1.19909799098969,2.33849740028381,3.94972848892212,1.26788640022278
408,3310971661,0.156674,-0.663367,0.007033,-0.731676,9.78272628784180,-2.20475673675537,1.19793605804443,2.24150180816650,4.13832712173462,1.43413841724396
409,3310988328,0.156631,-0.663313,0.007133,-0.731733,9.76802730560303,-2.22655487060547,1.19290602207184,2.65900111198425,3.98713493347168,1.46592354774475
410,3311004995,0.156599,-0.663279,0.007211,-0.731770,9.76992988586426,-2.20247578620911,1.18530535697937,2.79335308074951,3.76678967475891,1.43759608268738
411,3311021662,0.156561,-0.663248,0.007283,-0.731805,9.74851608276367,-2.19805788993835,1.18545043468475,2.79573488235474,3.73765468597412,1.38062036037445
412,3311038329,0.156540,-0.663242,0.007294,-0.731815,9.71477031707764,-2.19192385673523,1.21222269535065,3.15357041358948,3.42848467826843,1.20974564552307
413,3311054996,0.156541,-0.663230,0.007283,-0.731825,9.67365360260010,-2.19465899467468,1.18387317657471,3.37304520606995,3.43851113319397,1.22684180736542
414,3311071663,0.156611,-0.663176,0.007281,-0.731859,9.70406913757324,-2.20691728591919,1.19152486324310,3.68253707885742,3.76196146011353,1.59315490722656
415,3311088330,0.156651,-0.663131,0.007296,-0.731892,9.77614974975586,-2.18646073341370,1.18888199329376,3.45259904861450,3.73647713661194,1.51721334457397
416,3311104997,0.156578,-0.663105,0.007385,-0.731929,9.78811645507812,-2.15152096748352,1.20341145992279,2.54707479476929,3.74165105819702,1.27769625186920
417,3311121664,0.156460,-0.663118,0.007496,-0.731942,9.74626636505127,-2.20098972320557,1.19179701805115,2.18272066116333,3.46192121505737,1.17667925357819
418,3311138331,0.156359,-0.663150,0.007576,-0.731934,9.76727390289307,-2.23633885383606,1.20105433464050,2.51712012290955,3.20674180984497,1.16103005409241
419,3311154998,0.156306,-0.663193,0.007604,-0.731906,9.74887084960938,-2.21804642677307,1.22558319568634,2.85310745239258,3.03265237808228,1.16665208339691
420,3311171665,0.156259,-0.663198,0.007594,-0.731912,9.73546981811523,-2.21788859367371,1.23561358451843,3.16717100143433,3.33264160156250,1.00013124942780
421,3311188332,0.156259,-0.663168,0.007592,-0.731938,9.70263099670410,-2.19035410881042,1.22305130958557,3.33690619468689,3.60941267013550,1.24538564682007
422,3311204999,0.156201,-0.663150,0.007636,-0.731967,9.72294235229492,-2.19014191627502,1.19652450084686,3.11156511306763,3.54920911788940,1.19302034378052
423,3311221666,0.156181,-0.663135,0.007639,-0.731985,9.76313114166260,-2.20510530471802,1.19412028789520,3.10852980613708,3.53362369537354,1.16289973258972
424,3311238333,0.156135,-0.663104,0.007670,-0.732022,9.78153419494629,-2.19865250587463,1.19121003150940,3.34428286552429,3.61523914337158,1.20283019542694
425,3311255000,0.156096,-0.663085,0.007704,-0.732048,9.78005504608154,-2.19132208824158,1.20689928531647,2.96200013160706,3.59681129455566,1.21046268939972
426,3311271667,0.156033,-0.663075,0.007762,-0.732069,9.78939914703369,-2.18939280509949,1.20872616767883,2.73204922676086,3.55396103858948,1.20628786087036
427,3311288334,0.155969,-0.663084,0.007834,-0.732074,9.76311206817627,-2.21199703216553,1.20324182510376,2.63162183761597,3.39758205413818,1.27983462810516
428,3311305001,0.155912,-0.663111,0.007856,-0.732061,9.79254627227783,-2.21779084205627,1.20114791393280,2.89290928840637,3.17566084861755,1.10719215869904
429,3311321668,0.155867,-0.663126,0.007870,-0.732057,9.77073764801025,-2.22259521484375,1.22610843181610,3.00496554374695,3.26583075523376,1.12222683429718
430,3311338335,0.155831,-0.663137,0.007900,-0.732055,9.76970386505127,-2.21531081199646,1.23542904853821,2.96435666084290,3.31681299209595,1.23756086826324
431,3311355002,0.155775,-0.663149,0.007939,-0.732056,9.76114749908447,-2.20976185798645,1.22496628761292,2.82956933975220,3.32915806770325,1.17272233963013
432,3311371669,0.155717,-0.663142,0.007983,-0.732073,9.73926067352295,-2.22101593017578,1.22414398193359,2.80923342704773,3.50749993324280,1.16945683956146
433,3311388336,0.155672,-0.663125,0.008003,-0.732098,9.74087429046631,-2.21833920478821,1.22229433059692,2.90346240997314,3.58894801139832,1.10707712173462
434,3311405003,0.155631,-0.663088,0.008026,-0.732141,9.74800872802734,-2.21889162063599,1.20847380161285,3.01451873779297,3.75788903236389,1.13471305370331
435,3311421670,0.155611,-0.663048,0.008009,-0.732181,9.75485134124756,-2.21163916587830,1.20560753345490,3.32938885688782,3.71259331703186,1.05407166481018
436,3311438337,0.155602,-0.663019,0.007991,-0.732210,9.78398799896240,-2.20583963394165,1.20004761219025,3.44874429702759,3.58582282066345,1.13813245296478
437,3311455004,0.155619,-0.663005,0.007902,-0.732220,9.79015636444092,-2.19887900352478,1.21077466011047,3.68167853355408,3.39550828933716,0.93033653497696
438,3311471671,0.155588,-0.663001,0.007878,-0.732230,9.77943611145020,-2.16648888587952,1.18768513202667,3.38685035705566,3.36279988288879,1.01567804813385
439,3311488338,0.155555,-0.663013,0.007885,-0.732227,9.77169322967529,-2.15458154678345,1.20938432216644,3.06872868537903,3.28201842308044,1.14589321613312
440,3311505005,0.155476,-0.663020,0.007940,-0.732235,9.77472877502441,-2.19206047058105,1.22237288951874,2.58553171157837,3.42040348052979,1.11493992805481
441,3311521672,0.155399,-0.663033,0.008004,-0.732240,9.77900505065918,-2.20864558219910,1.19589960575104,2.57056093215942,3.38078022003174,1.17881798744202
442,3311538339,0.155337,-0.663063,0.008054,-0.732226,9.76224613189697,-2.20679497718811,1.21279823780060,2.75475502014160,3.17995119094849,1.20995044708252
443,3311555006,0.155301,-0.663066,0.008090,-0.732229,9.73648071289062,-2.19458079338074,1.21182739734650,2.94024229049683,3.38302206993103,1.25684750080109
444,3311571673,0.155273,-0.663070,0.008137,-0.732231,9.70879554748535,-2.19222331047058,1.20787835121155,3.13675546646118,3.33530545234680,1.37864851951599
445,3311588340,0.155284,-0.663058,0.008137,-0.732240,9.73905467987061,-2.21770191192627,1.19788897037506,3.36040520668030,3.44090580940247,1.32915186882019
446,3311605007,0.155297,-0.663025,0.008113,-0.732268,9.85170459747314,-2.22450613975525,1.17672848701477,3.50611639022827,3.61334419250488,1.20522487163544
447,3311621674,0.155268,-0.663006,0.008104,-0.732291,9.84794139862061,-2.20511937141418,1.18790602684021,3.22446608543396,3.53249716758728,1.07504832744598
448,3311638341,0.155123,-0.663044,0.008173,-0.732286,9.81461238861084,-2.16800403594971,1.20876979827881,2.24412751197815,3.21381139755249,0.86391013860703
449,3311655008,0.154944,-0.663096,0.008304,-0.732276,9.74672603607178,-2.22195911407471,1.20427823066711,1.71144711971283,3.19853353500366,0.98016607761383
450,3311671675,0.154845,-0.663113,0.008341,-0.732281,9.71030902862549,-2.26100754737854,1.19298219680786,2.62667822837830,3.33237195014954,0.94411605596542
451,3311688342,0.154847,-0.663096,0.008271,-0.732297,9.74769783020020,-2.23072123527527,1.21928322315216,3.65214705467224,3.43041801452637,0.94972532987595
452,3311705009,0.154911,-0.663062,0.008172,-0.732315,9.76020145416260,-2.19282484054565,1.22796833515167,4.30451536178589,3.44268655776978,1.16038978099823
453,3311721676,0.154964,-0.663021,0.008142,-0.732342,9.77591323852539,-2.13957309722900,1.22864699363708,3.87299275398254,3.60699129104614,1.39874148368835
454,3311738343,0.154942,-0.663016,0.008197,-0.732350,9.75799560546875,-2.15296959877014,1.20679330825806,2.90980148315430,3.46385526657104,1.41058766841888
455,3311755010,0.154869,-0.663011,0.008312,-0.732368,9.79160594940186,-2.15716099739075,1.19749045372009,2.36063909530640,3.58908820152283,1.41551792621613
456,3311771677,0.154791,-0.663006,0.008454,-0.732388,9.79695224761963,-2.19621324539185,1.18329238891602,2.23225569725037,3.61399698257446,1.51324319839478
457,3311788344,0.154749,-0.663011,0.008587,-0.732391,9.76852130889893,-2.20197343826294,1.20164072513580,2.17552351951599,3.53343200683594,1.64385509490967
458,3311805011,0.154705,-0.663045,0.008691,-0.732368,9.77176666259766,-2.21223497390747,1.19837486743927,2.39510107040405,3.20821428298950,1.53542375564575
459,3311821678,0.154694,-0.663073,0.008725,-0.732344,9.77664279937744,-2.22514319419861,1.18143486976624,3.00815439224243,3.13897109031677,1.40117490291595
460,3311838345,0.154684,-0.663121,0.008689,-0.732304,9.74442577362061,-2.22513103485107,1.19771385192871,3.59108686447144,2.83247709274292,1.13110184669495
461,3311855012,0.154720,-0.663150,0.008641,-0.732270,9.71315193176270,-2.17840170860291,1.21078860759735,3.85939192771912,2.94524908065796,1.30291163921356
462,3311871679,0.154782,-0.663144,0.008650,-0.732263,9.75749874114990,-2.17913341522217,1.18215441703796,3.64478373527527,3.32360029220581,1.65808308124542
463,3311888346,0.154787,-0.663121,0.008743,-0.732281,9.79408073425293,-2.18157482147217,1.18441867828369,2.87188148498535,3.64232444763184,1.70757949352264
464,3311905013,0.154684,-0.663117,0.008893,-0.732305,9.80725002288818,-2.18725299835205,1.20403504371643,2.06853914260864,3.64004516601562,1.42198514938354
465,3311921680,0.154556,-0.663118,0.009046,-0.732329,9.77411460876465,-2.20655083656311,1.19553399085999,1.93697953224182,3.61452198028564,1.30316781997681
466,3311938347,0.154456,-0.663153,0.009166,-0.732317,9.74931716918945,-2.24294257164001,1.22403717041016,2.19410514831543,3.24622368812561,1.33486342430115
467,3311955014,0.154422,-0.663202,0.009167,-0.732279,9.76028442382812,-2.26299309730530,1.19432199001312,2.97186112403870,2.95350956916809,1.14093697071075
468,3311971681,0.154433,-0.663223,0.009122,-0.732259,9.74356555938721,-2.25152564048767,1.23272144794464,3.89947628974915,3.01859140396118,1.19567131996155
469,3311988348,0.154492,-0.663205,0.009074,-0.732264,9.73286533355713,-2.18306493759155,1.21516227722168,3.92721486091614,3.37965369224548,1.36754536628723
470,3312005015,0.154483,-0.663189,0.009098,-0.732279,9.76062870025635,-2.16871929168701,1.19832777976990,3.14290189743042,3.51966500282288,1.33016335964203
471,3312021682,0.154364,-0.663184,0.009218,-0.732307,9.78454875946045,-2.17552304267883,1.18944978713989,2.54795813560486,3.54498386383057,1.24880504608154
472,3312038349,0.154235,-0.663186,0.009325,-0.732332,9.78228092193604,-2.18815803527832,1.21628999710083,2.29275274276733,3.53521227836609,1.10639822483063
473,3312055016,0.154131,-0.663214,0.009432,-0.732327,9.74018383026123,-2.20223522186279,1.20548474788666,2.30917072296143,3.28890776634216,1.25166070461273
474,3312071683,0.154089,-0.663227,0.009510,-0.732323,9.77034854888916,-2.21654820442200,1.19039595127106,2.40831732749939,3.41205334663391,1.39332437515259
475,3312088350,0.154066,-0.663230,0.009517,-0.732324,9.77354621887207,-2.23580050468445,1.17852914333344,3.06835699081421,3.35667943954468,1.18613064289093
476,3312105017,0.154038,-0.663250,0.009487,-0.732313,9.79510211944580,-2.21970629692078,1.21925806999207,3.27847075462341,3.16344428062439,1.01031231880188
477,3312121684,0.154014,-0.663267,0.009449,-0.732304,9.77839851379395,-2.22273325920105,1.21730482578278,3.22953748703003,3.20784378051758,0.98043501377106
478,3312138351,0.153973,-0.663289,0.009452,-0.732291,9.74717617034912,-2.19474267959595,1.20920848846436,3.06187701225281,3.18146276473999,1.10003352165222
479,3312155018,0.153925,-0.663312,0.009483,-0.732280,9.75078678131104,-2.20219707489014,1.22088968753815,2.91760015487671,3.20833039283752,1.19241845607758
480,3312171685,0.153884,-0.663305,0.009534,-0.732295,9.75102329254150,-2.19887757301331,1.21118164062500,2.97592115402222,3.48136186599731,1.30471754074097
481,3312188352,0.153819,-0.663269,0.009599,-0.732341,9.75886440277100,-2.20705342292786,1.19516658782959,2.96267867088318,3.74852728843689,1.23562717437744
482,3312205019,0.153775,-0.663241,0.009658,-0.732374,9.76946735382080,-2.20253729820251,1.19334220886230,2.84272146224976,3.69139838218689,1.29812192916870
483,3312221686,0.153764,-0.663221,0.009677,-0.732395,9.77485275268555,-2.22536087036133,1.21582746505737,3.03244781494141,3.59272575378418,1.26827049255371
484,3312238353,0.153744,-0.663214,0.009674,-0.732405,9.75452613830566,-2.22414517402649,1.20039451122284,3.23847603797913,3.42389917373657,1.15698325634003
485,3312255020,0.153737,-0.663230,0.009655,-0.732393,9.77949237823486,-2.18793678283691,1.19215011596680,3.26950621604919,3.19953227043152,1.16200339794159
486,3312271687,0.153702,-0.663243,0.009649,-0.732388,9.78611660003662,-2.17527270317078,1.19748020172119,3.11800694465637,3.25955581665039,1.07909524440765
487,3312288354,0.153661,-0.663248,0.009643,-0.732392,9.76306056976318,-2.19849443435669,1.18946778774261,2.95067930221558,3.37100934982300,1.02000653743744
488,3312305021,0.153607,-0.663262,0.009669,-0.732390,9.75475406646729,-2.18591785430908,1.20370984077454,2.89800715446472,3.30062580108643,1.12754166126251
489,3312321688,0.153517,-0.663291,0.009758,-0.732381,9.75071334838867,-2.19446229934692,1.19786596298218,2.54256653785706,3.22236585617065,1.25797426700592
490,3312338355,0.153444,-0.663327,0.009825,-0.732364,9.76328754425049,-2.21198248863220,1.21358752250671,2.47068405151367,3.18844151496887,1.21760845184326
491,3312355022,0.153390,-0.663357,0.009841,-0.732348,9.78702354431152,-2.23115563392639,1.15454566478729,2.81390738487244,3.16556954383850,1.08288574218750
492,3312371689,0.153372,-0.663368,0.009830,-0.732341,9.79020595550537,-2.22219562530518,1.20345115661621,3.31699252128601,3.23327708244324,1.15315425395966
493,3312388356,0.153383,-0.663369,0.009789,-0.732339,9.78841304779053,-2.20545673370361,1.21428120136261,3.61219120025635,3.27184963226318,1.15944218635559
494,3312405023,0.153398,-0.663368,0.009797,-0.732336,9.78258895874023,-2.16982936859131,1.23740816116333,3.34234857559204,3.33389639854431,1.39582169055939
495,3312421690,0.153363,-0.663377,0.009864,-0.732335,9.79156303405762,-2.19274330139160,1.22462809085846,2.81969618797302,3.36274957656860,1.41138160228729
496,3312438357,0.153309,-0.663394,0.009947,-0.732330,9.77698040008545,-2.21019506454468,1.19299662113190,2.74223041534424,3.29437637329102,1.40996015071869
497,3312455024,0.153264,-0.663387,0.010028,-0.732344,9.75454616546631,-2.21555066108704,1.19200313091278,2.64892315864563,3.54302406311035,1.40477347373962
498,3312471691,0.153281,-0.663362,0.010054,-0.732363,9.71356964111328,-2.22301769256592,1.18738830089569,3.10203742980957,3.61712169647217,1.43936336040497
499,3312488358,0.153279,-0.663360,0.010069,-0.732365,9.68617057800293,-2.19000315666199,1.19987392425537,3.36511802673340,3.33813524246216,1.35755622386932
500,3312505025,0.153304,-0.663355,0.010089,-0.732364,9.79275035858154,-2.21624565124512,1.18354427814484,3.29061055183411,3.38678622245789,1.49878466129303
501,3312521692,0.153343,-0.663334,0.010061,-0.732375,9.85285377502441,-2.23686480522156,1.15227925777435,3.30463409423828,3.54220414161682,1.29823732376099
502,3312538359,0.153279,-0.663347,0.010066,-0.732377,9.82555198669434,-2.17350077629089,1.20000183582306,2.75129723548889,3.34781718254089,0.94946920871735
503,3312555026,0.153151,-0.663375,0.010135,-0.732378,9.77714443206787,-2.21924901008606,1.20104134082794,2.17000389099121,3.32690358161926,0.92787760496140
504,3312571693,0.153084,-0.663379,0.010151,-0.732387,9.68918895721436,-2.24761867523193,1.20089888572693,2.92840957641602,3.37946200370789,1.00878834724426
505,3312588360,0.153110,-0.663384,0.010101,-0.732378,9.72647285461426,-2.23197126388550,1.22104620933533,3.55854535102844,3.24573755264282,1.17988109588623
506,3312605027,0.153213,-0.663358,0.010007,-0.732381,9.77578544616699,-2.21302485466003,1.21068692207336,4.24888467788696,3.38687634468079,1.36427986621857
507,3312621694,0.153302,-0.663312,0.009949,-0.732406,9.81540489196777,-2.15812897682190,1.16437005996704,4.20057868957520,3.58577156066895,1.46168470382690
508,3312638361,0.153302,-0.663292,0.009989,-0.732423,9.80592918395996,-2.11734104156494,1.19726252555847,2.94043374061584,3.60079336166382,1.42299675941467
509,3312655028,0.153150,-0.663299,0.010205,-0.732445,9.77398586273193,-2.15273809432983,1.20392191410065,1.73457527160645,3.59537625312805,1.50599455833435
510,3312671695,0.153015,-0.663312,0.010444,-0.732459,9.75554275512695,-2.21488857269287,1.20082068443298,1.39989411830902,3.62024664878845,1.66745734214783
511,3312688362,0.152955,-0.663317,0.010601,-0.732464,9.75166130065918,-2.26287722587585,1.19947600364685,2.04398965835571,3.54841566085815,1.66417884826660
512,3312705029,0.152901,-0.663325,0.010672,-0.732468,9.74503231048584,-2.26545119285583,1.19578135013580,2.98068451881409,3.33495950698853,1.36465120315552
513,3312721696,0.152926,-0.663314,0.010626,-0.732473,9.76363277435303,-2.22944879531860,1.22740733623505,3.63658738136292,3.37121438980103,1.19008779525757
514,3312738363,0.153001,-0.663317,0.010536,-0.732455,9.76093578338623,-2.20694136619568,1.19568312168121,3.87460660934448,3.19676613807678,1.23839330673218
515,3312755030,0.153051,-0.663337,0.010449,-0.732428,9.75058746337891,-2.20133471488953,1.19611287117004,3.81108689308167,3.05574250221252,1.14728891849518
516,3312771697,0.153077,-0.663338,0.010428,-0.732422,9.71267032623291,-2.16617226600647,1.19633543491364,3.49432158470154,3.28470730781555,1.32004654407501
517,3312788364,0.153067,-0.663329,0.010487,-0.732432,9.77640056610107,-2.19146752357483,1.18478989601135,2.94685006141663,3.50116014480591,1.48700320720673
518,3312805031,0.152987,-0.663317,0.010594,-0.732457,9.79635143280029,-2.18583989143372,1.21361446380615,2.39068317413330,3.63936686515808,1.33851349353790
519,3312821698,0.152862,-0.663328,0.010735,-0.732472,9.78026103973389,-2.19320797920227,1.23276841640472,1.98686039447784,3.51519584655762,1.27212524414062
520,3312838365,0.152737,-0.663346,0.010857,-0.732480,9.76269721984863,-2.24177169799805,1.21396791934967,2.07636380195618,3.43546342849731,1.19623470306396
521,3312855032,0.152694,-0.663370,0.010890,-0.732466,9.74741458892822,-2.25474262237549,1.21951222419739,2.85805106163025,3.20708799362183,1.22230851650238
522,3312871699,0.152731,-0.663382,0.010821,-0.732449,9.73689746856689,-2.24416279792786,1.18017446994781,3.72804999351501,3.14178800582886,1.16307902336121
523,3312888366,0.152827,-0.663353,0.010683,-0.732457,9.73357582092285,-2.20677661895752,1.18349766731262,4.44740867614746,3.38033246994019,1.12556934356689
524,3312905033,0.152894,-0.663320,0.010611,-0.732474,9.72166347503662,-2.16428542137146,1.19456350803375,3.98000240325928,3.50620627403259,1.26537632942200
525,3312921700,0.152860,-0.663320,0.010647,-0.732480,9.76067256927490,-2.14968156814575,1.18427646160126,2.93903851509094,3.41416692733765,1.26751506328583
526,3312938367,0.152761,-0.663332,0.010762,-0.732489,9.78500747680664,-2.19713640213013,1.16912782192230,2.23990106582642,3.45891165733337,1.29621386528015
527,3312955034,0.152620,-0.663346,0.010898,-0.732503,9.79662990570068,-2.21916198730469,1.18456709384918,2.00802922248840,3.47311353683472,1.18209648132324
528,3312971701,0.152533,-0.663358,0.011002,-0.732509,9.76845169067383,-2.21059846878052,1.21583867073059,2.23511147499084,3.45737528800964,1.29153943061829
529,3312988368,0.152487,-0.663381,0.011045,-0.732497,9.76593589782715,-2.25043439865112,1.22885525226593,2.94491624832153,3.19741916656494,1.26759171485901
530,3313005035,0.152505,-0.663404,0.011000,-0.732473,9.76142215728760,-2.22449564933777,1.22816646099091,3.47748136520386,3.08864212036133,1.17545008659363
531,3313021702,0.152510,-0.663424,0.010983,-0.732454,9.79133415222168,-2.22394776344299,1.22451603412628,3.52156043052673,3.10851716995239,1.26357054710388
532,3313038369,0.152538,-0.663436,0.010969,-0.732438,9.77159786224365,-2.21038246154785,1.20428383350372,3.19829058647156,3.25787806510925,1.33729696273804
533,3313055036,0.152509,-0.663445,0.011015,-0.732435,9.75440883636475,-2.21254110336304,1.20320546627045,2.89457464218140,3.33869886398315,1.34267544746399
534,3313071703,0.152475,-0.663455,0.011080,-0.732432,9.76167583465576,-2.21420979499817,1.21765577793121,2.78716754913330,3.35304188728333,1.40579783916473
535,3313088370,0.152472,-0.663453,0.011136,-0.732434,9.73978996276855,-2.23962044715881,1.19747841358185,2.98374533653259,3.42434787750244,1.51526665687561
536,3313105037,0.152490,-0.663434,0.011145,-0.732447,9.76012516021729,-2.22602939605713,1.18230009078979,3.33659839630127,3.51371002197266,1.39869022369385
537,3313121704,0.152531,-0.663411,0.011100,-0.732460,9.75560188293457,-2.21571731567383,1.19239997863770,3.72062301635742,3.47066855430603,1.26650333404541
538,3313138371,0.152564,-0.663400,0.011038,-0.732464,9.76239585876465,-2.19219923019409,1.19542407989502,3.74144530296326,3.35324668884277,1.15782833099365
539,3313155038,0.152580,-0.663409,0.010981,-0.732453,9.77295207977295,-2.18931055068970,1.16399264335632,3.62511277198792,3.18983793258667,1.10529673099518
540,3313171705,0.152589,-0.663426,0.010950,-0.732437,9.77205276489258,-2.19140863418579,1.20284771919250,3.45531320571899,3.15706634521484,1.19816839694977
541,3313188372,0.152592,-0.663439,0.010939,-0.732424,9.74731349945068,-2.18672895431519,1.20381319522858,3.32243490219116,3.21410608291626,1.25916528701782
542,3313205039,0.152553,-0.663461,0.010951,-0.732412,9.74852561950684,-2.17531681060791,1.19119286537170,3.01264929771423,3.19355177879333,1.13952839374542
543,3313221706,0.152502,-0.663470,0.010970,-0.732414,9.75943660736084,-2.19142389297485,1.20173990726471,2.93622088432312,3.33515167236328,1.10767900943756
544,3313238373,0.152460,-0.663486,0.010978,-0.732409,9.77400493621826,-2.20773935317993,1.18165600299835,2.95277929306030,3.27104282379150,1.10003340244293
545,3313255040,0.152436,-0.663495,0.011001,-0.732405,9.78985023498535,-2.21170020103455,1.19247221946716,3.07723164558411,3.30524921417236,1.26672112941742
546,3313271707,0.152433,-0.663478,0.011002,-0.732421,9.76615524291992,-2.23281145095825,1.19320118427277,3.05064558982849,3.55942869186401,1.22483134269714
547,3313288374,0.152413,-0.663480,0.010992,-0.732423,9.77061939239502,-2.21971416473389,1.18221735954285,3.05074810981750,3.37275075912476,1.10541224479675
548,3313305041,0.152344,-0.663497,0.010996,-0.732422,9.76934432983398,-2.19713973999023,1.20158636569977,2.95443153381348,3.26074647903442,0.95218420028687
549,3313321708,0.152275,-0.663517,0.011019,-0.732419,9.76698207855225,-2.22250962257385,1.20700681209564,2.60908246040344,3.30754113197327,1.01602387428284
550,3313338375,0.152196,-0.663539,0.011033,-0.732415,9.77512264251709,-2.23312520980835,1.21908819675446,2.33114624023438,3.35154342651367,0.88807553052902
551,3313355042,0.152128,-0.663530,0.011032,-0.732437,9.75480556488037,-2.24054718017578,1.20661413669586,2.69907283782959,3.56314325332642,0.86685556173325
552,3313371709,0.152059,-0.663502,0.011002,-0.732477,9.72161483764648,-2.22941970825195,1.21520698070526,3.14196729660034,3.63907146453857,0.75245624780655
553,3313388376,0.151996,-0.663484,0.010936,-0.732508,9.71329975128174,-2.19264864921570,1.24344134330750,3.34898233413696,3.51710414886475,0.63554716110229
554,3313405043,0.151971,-0.663437,0.010887,-0.732556,9.76834869384766,-2.19878721237183,1.20460367202759,3.45492982864380,3.75358653068542,0.87739509344101
555,3313421710,0.151958,-0.663379,0.010820,-0.732612,9.83390426635742,-2.23375439643860,1.18807864189148,3.61239624023438,3.82924604415894,0.85229462385178
556,3313438377,0.151900,-0.663346,0.010745,-0.732656,9.83831024169922,-2.18150448799133,1.22720003128052,3.42873978614807,3.64023685455322,0.60377454757690
557,3313455044,0.151790,-0.663348,0.010724,-0.732676,9.78738212585449,-2.19987678527832,1.23328661918640,2.87750387191772,3.41263008117676,0.60268604755402
558,3313471711,0.151751,-0.663333,0.010649,-0.732699,9.74648094177246,-2.23210048675537,1.21434104442596,3.49580717086792,3.45075440406799,0.71425497531891
559,3313488378,0.151794,-0.663305,0.010493,-0.732718,9.70551300048828,-2.20507764816284,1.25390291213989,4.28560066223145,3.41146469116211,0.76672261953354
560,3313505045,0.151926,-0.663261,0.010340,-0.732733,9.76113796234131,-2.16406822204590,1.22484540939331,4.69272708892822,3.47048926353455,1.23168289661407
561,3313521712,0.152068,-0.663194,0.010256,-0.732765,9.79415607452393,-2.13133382797241,1.18825089931488,4.41979789733887,3.73269891738892,1.57869648933411
562,3313538379,0.152094,-0.663158,0.010294,-0.732792,9.79376983642578,-2.09580993652344,1.17777621746063,3.23321318626404,3.68840169906616,1.55590128898621
563,3313555046,0.152003,-0.663151,0.010472,-0.732814,9.77261638641357,-2.11362218856812,1.17784476280212,1.97431015968323,3.67786216735840,1.61278688907623
564,3313571713,0.151892,-0.663151,0.010690,-0.732834,9.77118968963623,-2.18659639358521,1.18818688392639,1.66909646987915,3.67399430274963,1.68559110164642
565,3313588380,0.151804,-0.663176,0.010876,-0.732827,9.76511001586914,-2.21203589439392,1.18774843215942,1.91367220878601,3.39587926864624,1.68961226940155
566,3313605047,0.151760,-0.663207,0.010961,-0.732807,9.74982070922852,-2.23181700706482,1.19936800003052,2.60901832580566,3.18704581260681,1.46233773231506
567,3313621714,0.151802,-0.663232,0.010920,-0.732776,9.75225162506104,-2.24354100227356,1.19149613380432,3.51524686813354,3.06203007698059,1.31491112709045
568,3313638381,0.151856,-0.663264,0.010824,-0.732737,9.78488254547119,-2.23244738578796,1.21676945686340,4.08030176162720,2.88064122200012,1.16722857952118
569,3313655048,0.151949,-0.663287,0.010698,-0.732700,9.75725746154785,-2.18163800239563,1.23030245304108,4.22063398361206,2.94412231445312,1.19570970535278
570,3313671715,0.152025,-0.663299,0.010660,-0.732673,9.71955585479736,-2.15951514244080,1.20934951305389,3.77297472953796,3.12126016616821,1.51038742065430
571,3313688382,0.152127,-0.663274,0.010678,-0.732674,9.75915241241455,-2.17775225639343,1.18870913982391,3.23732376098633,3.59045886993408,1.82123625278473
572,3313705049,0.152108,-0.663222,0.010773,-0.732724,9.80676174163818,-2.19031190872192,1.17271244525909,2.59854316711426,3.97632694244385,1.54233920574188
573,3313721716,0.151968,-0.663200,0.010917,-0.732771,9.83064651489258,-2.19966721534729,1.19767951965332,1.98267269134521,3.82431507110596,1.18979299068451
574,3313738383,0.151848,-0.663189,0.011022,-0.732805,9.79021263122559,-2.21662092208862,1.21213483810425,2.10960936546326,3.69789099693298,1.10391378402710
575,3313755050,0.151785,-0.663196,0.011079,-0.732810,9.74877643585205,-2.24858140945435,1.23142206668854,2.70017409324646,3.39614820480347,1.21319043636322
576,3313771717,0.151806,-0.663200,0.011018,-0.732803,9.74566268920898,-2.25157022476196,1.23247969150543,3.75270223617554,3.21212077140808,1.12681150436401
577,3313788384,0.151964,-0.663158,0.010809,-0.732811,9.73317050933838,-2.22132778167725,1.20773839950562,4.78700780868530,3.43624472618103,1.07447206974030
578,3313805051,0.152111,-0.663109,0.010628,-0.732828,9.75084304809570,-2.14165496826172,1.18876802921295,4.87891817092896,3.47832608222961,1.17810094356537
579,3313821718,0.152129,-0.663056,0.010590,-0.732872,9.78370189666748,-2.12195420265198,1.17086088657379,3.72063541412354,3.75188279151917,1.16551244258881
580,3313838385,0.152055,-0.663021,0.010656,-0.732919,9.79294013977051,-2.15660738945007,1.18762481212616,2.63020062446594,3.81695222854614,1.15999293327332
581,3313855052,0.151914,-0.663008,0.010798,-0.732957,9.80331897735596,-2.19014310836792,1.21067702770233,1.92457044124603,3.74282884597778,1.17528367042542
582,3313871719,0.151785,-0.662999,0.010922,-0.732990,9.78525924682617,-2.21389079093933,1.21073150634766,1.81645917892456,3.74130487442017,1.12291836738586
583,3313888386,0.151685,-0.662995,0.011000,-0.733013,9.77085971832275,-2.24434566497803,1.20150566101074,2.31773781776428,3.58720564842224,1.08960902690887
584,3313905053,0.151650,-0.662990,0.010962,-0.733026,9.77375221252441,-2.24006366729736,1.20326769351959,3.27382230758667,3.40157842636108,0.91440558433533
585,3313921720,0.151695,-0.662964,0.010829,-0.733042,9.76039409637451,-2.21905922889709,1.21207833290100,4.07836771011353,3.43911337852478,0.86633050441742
586,3313938387,0.151746,-0.662934,0.010698,-0.733060,9.77231693267822,-2.17390727996826,1.21168684959412,4.16470813751221,3.44335246086121,0.92011708021164
587,3313955054,0.151767,-0.662900,0.010619,-0.733088,9.76468086242676,-2.14505910873413,1.22910642623901,3.65417051315308,3.59695219993591,0.97390389442444
588,3313971721,0.151736,-0.662868,0.010630,-0.733123,9.75073051452637,-2.17425847053528,1.23658370971680,3.08172655105591,3.69412589073181,1.13777363300323
589,3313988388,0.151661,-0.662840,0.010672,-0.733164,9.77386665344238,-2.19361686706543,1.22443962097168,2.75415325164795,3.71999549865723,1.04757881164551
590,3314005055,0.151607,-0.662804,0.010714,-0.733207,9.77819347381592,-2.20220685005188,1.22418689727783,2.82709765434265,3.77953124046326,1.15002942085266
591,3314021722,0.151588,-0.662759,0.010755,-0.733251,9.77474403381348,-2.20875811576843,1.20629549026489,3.17288231849670,3.78990554809570,1.34663259983063
592,3314038389,0.151630,-0.662732,0.010724,-0.733267,9.76372432708740,-2.19116806983948,1.18751513957977,3.51912760734558,3.54799294471741,1.31355381011963
593,3314055056,0.151667,-0.662711,0.010682,-0.733279,9.78599548339844,-2.18168759346008,1.21665942668915,3.71528220176697,3.45238089561462,1.26903891563416
594,3314071723,0.151691,-0.662699,0.010653,-0.733286,9.76974773406982,-2.16052174568176,1.21602392196655,3.55419111251831,3.40762257575989,1.26031780242920
595,3314088390,0.151667,-0.662694,0.010660,-0.733294,9.76249122619629,-2.16616249084473,1.22279262542725,3.14522075653076,3.41694641113281,1.18313407897949
596,3314105057,0.151649,-0.662688,0.010677,-0.733303,9.76418972015381,-2.17627429962158,1.21415567398071,3.10151243209839,3.44002318382263,1.25814080238342
597,3314121724,0.151650,-0.662676,0.010702,-0.733313,9.76850795745850,-2.18873739242554,1.20379173755646,3.17996406555176,3.47853159904480,1.38631939888000
598,3314138391,0.151660,-0.662690,0.010703,-0.733299,9.76924800872803,-2.18378281593323,1.22406327724457,3.27540993690491,3.21829390525818,1.34225285053253
599,3314155058,0.151616,-0.662719,0.010748,-0.733281,9.78717803955078,-2.15532040596008,1.21840643882751,3.23025465011597,3.08026695251465,1.32642424106598
600,3314171725,0.151582,-0.662739,0.010769,-0.733270,9.78830432891846,-2.19339013099670,1.23082268238068,2.98026204109192,3.22000980377197,1.21543169021606
601,3314188392,0.151521,-0.662755,0.010804,-0.733267,9.76626014709473,-2.21783709526062,1.23193907737732,2.79842448234558,3.29823064804077,1.12901413440704
602,3314205059,0.151490,-0.662747,0.010809,-0.733281,9.74979496002197,-2.20430898666382,1.23013150691986,3.10493159294128,3.45742654800415,1.12948822975159
603,3314221726,0.151483,-0.662692,0.010817,-0.733332,9.69969272613525,-2.20214176177979,1.22187137603760,3.25448417663574,3.87039279937744,1.23117065429688
604,3314238393,0.151509,-0.662645,0.010815,-0.733370,9.69463539123535,-2.20397400856018,1.25121676921844,3.44131660461426,3.75854206085205,1.35906779766083
605,3314255060,0.151561,-0.662578,0.010812,-0.733419,9.78493595123291,-2.21369051933289,1.22070038318634,3.59323787689209,3.90016794204712,1.48147082328796
606,3314271727,0.151605,-0.662514,0.010780,-0.733468,9.85908031463623,-2.19480204582214,1.19462394714355,3.69772529602051,3.85891819000244,1.30693304538727
607,3314288394,0.151538,-0.662513,0.010757,-0.733483,9.83244228363037,-2.13340616226196,1.21128118038177,2.96340894699097,3.42830491065979,0.80176091194153
608,3314305061,0.151375,-0.662564,0.010871,-0.733470,9.75539779663086,-2.15928721427917,1.22079980373383,1.89369451999664,3.16833639144897,0.98384159803391
609,3314321728,0.151255,-0.662592,0.010948,-0.733467,9.69802474975586,-2.22830438613892,1.21430826187134,2.29418683052063,3.28199195861816,1.02304160594940
610,3314338395,0.151226,-0.662581,0.010947,-0.733483,9.68729209899902,-2.21889591217041,1.22206854820251,3.15084218978882,3.48433232307434,1.11195611953735
611,3314355062,0.151277,-0.662537,0.010892,-0.733514,9.73187160491943,-2.19703936576843,1.22542488574982,3.82120370864868,3.65305638313293,1.25291574001312
612,3314371729,0.151368,-0.662485,0.010807,-0.733543,9.77136707305908,-2.16931009292603,1.21175241470337,4.15743446350098,3.64753675460815,1.31990575790405
613,3314388396,0.151406,-0.662446,0.010751,-0.733571,9.77559185028076,-2.14059734344482,1.21294975280762,3.75756883621216,3.61176872253418,1.18995976448059
614,3314405063,0.151369,-0.662463,0.010798,-0.733563,9.77369022369385,-2.11081075668335,1.20296621322632,2.94819474220276,3.25586700439453,1.32486176490784
615,3314421730,0.151259,-0.662485,0.010975,-0.733563,9.78535842895508,-2.14315724372864,1.21088767051697,2.13089346885681,3.37220025062561,1.56244516372681
616,3314438397,0.151174,-0.662499,0.011153,-0.733565,9.77788352966309,-2.18219375610352,1.20756554603577,1.84737348556519,3.50237679481506,1.64201116561890
617,3314455064,0.151085,-0.662539,0.011332,-0.733545,9.75658702850342,-2.20431661605835,1.21358668804169,1.88834095001221,3.25846695899963,1.65363907814026
618,3314471731,0.151024,-0.662576,0.011444,-0.733522,9.75997924804688,-2.20963215827942,1.23239707946777,2.26799798011780,3.20027494430542,1.48330187797546
619,3314488398,0.150976,-0.662605,0.011496,-0.733505,9.77081394195557,-2.22831749916077,1.24311637878418,2.74562406539917,3.19143891334534,1.28873503208160
620,3314505065,0.150991,-0.662626,0.011453,-0.733483,9.68931865692139,-2.21337532997131,1.22543084621429,3.42165851593018,3.11771249771118,1.16468000411987
621,3314521732,0.151070,-0.662613,0.011394,-0.733480,9.68852996826172,-2.19719791412354,1.22041678428650,3.94552755355835,3.33111763000488,1.41235482692719
622,3314538399,0.151218,-0.662575,0.011290,-0.733485,9.76973819732666,-2.19652438163757,1.18642663955688,4.34206390380859,3.48444843292236,1.52996850013733
623,3314555066,0.151255,-0.662559,0.011221,-0.733493,9.81146335601807,-2.15399432182312,1.20651113986969,3.79516863822937,3.39375376701355,1.13915705680847
624,3314571733,0.151196,-0.662581,0.011236,-0.733485,9.81402492523193,-2.12700295448303,1.19426882266998,2.88664722442627,3.21856260299683,1.05211210250854
625,3314588400,0.151074,-0.662618,0.011327,-0.733476,9.77258110046387,-2.16584467887878,1.19400966167450,2.18876552581787,3.23104906082153,1.07924890518188
626,3314605067,0.150933,-0.662686,0.011477,-0.733441,9.74899864196777,-2.21027874946594,1.21966743469238,1.95110499858856,2.97764921188354,1.29777634143829
627,3314621734,0.150840,-0.662737,0.011553,-0.733413,9.73536396026611,-2.23846387863159,1.21954298019409,2.42531180381775,3.04679107666016,1.18203282356262
628,3314638401,0.150835,-0.662732,0.011530,-0.733419,9.73037719726562,-2.22787237167358,1.21502208709717,3.37832164764404,3.37423634529114,1.14472770690918
629,3314655068,0.150844,-0.662699,0.011492,-0.733447,9.75612926483154,-2.19334101676941,1.21662962436676,3.71083879470825,3.56702327728271,1.14191019535065
630,3314671735,0.150901,-0.662667,0.011398,-0.733466,9.78073024749756,-2.19712090492249,1.20596218109131,3.70578098297119,3.56848359107971,1.07859587669373
631,3314688402,0.150877,-0.662647,0.011367,-0.733490,9.79664134979248,-2.19551682472229,1.20337212085724,3.28582143783569,3.53918218612671,0.98872071504593
632,3314705069,0.150809,-0.662657,0.011388,-0.733494,9.78729820251465,-2.17289113998413,1.20744025707245,2.95047450065613,3.31939959526062,1.03614258766174
633,3314721736,0.150735,-0.662688,0.011407,-0.733481,9.79333686828613,-2.15317797660828,1.19893431663513,2.82016944885254,3.15725827217102,1.00095069408417
634,3314738403,0.150684,-0.662717,0.011426,-0.733464,9.79098892211914,-2.16949677467346,1.21191048622131,2.59876036643982,3.21771693229675,1.08296251296997
635,3314755070,0.150602,-0.662736,0.011484,-0.733464,9.78562068939209,-2.17898654937744,1.21503877639771,2.61613869667053,3.31330394744873,1.12923192977905
636,3314771737,0.150519,-0.662762,0.011543,-0.733456,9.78169345855713,-2.18539786338806,1.22334563732147,2.55288815498352,3.25298595428467,1.13472604751587
637,3314788404,0.150429,-0.662780,0.011589,-0.733457,9.75629711151123,-2.20459127426147,1.22839426994324,2.60919785499573,3.31669783592224,1.03355586528778
638,3314805071,0.150371,-0.662805,0.011603,-0.733447,9.74497413635254,-2.21504211425781,1.22235381603241,2.90882825851440,3.19274497032166,1.05663275718689
639,3314821738,0.150337,-0.662810,0.011578,-0.733449,9.74865722656250,-2.20400834083557,1.22807312011719,3.21504092216492,3.31709480285645,0.98468673229218
640,3314838405,0.150329,-0.662796,0.011549,-0.733465,9.74278354644775,-2.18310737609863,1.23181760311127,3.50799846649170,3.43742251396179,1.10128855705261
641,3314855072,0.150374,-0.662783,0.011487,-0.733468,9.75734043121338,-2.16951441764832,1.22329437732697,3.46568679809570,3.43136572837830,1.18469631671906
642,3314871739,0.150392,-0.662773,0.011465,-0.733474,9.79037189483643,-2.15580201148987,1.21142745018005,3.20191407203674,3.46715903282166,1.22554850578308
643,3314888406,0.150363,-0.662768,0.011495,-0.733483,9.78860473632812,-2.17507696151733,1.20690441131592,2.89616298675537,3.46742868423462,1.24568021297455
644,3314905073,0.150299,-0.662776,0.011525,-0.733489,9.77488327026367,-2.20285010337830,1.20537555217743,2.80838799476624,3.37663173675537,1.08298826217651
645,3314921740,0.150248,-0.662805,0.011526,-0.733473,9.76500129699707,-2.19616556167603,1.20878636837006,2.98867559432983,3.13561582565308,1.03952348232269
646,3314938407,0.150208,-0.662861,0.011520,-0.733431,9.74858379364014,-2.17465376853943,1.20031571388245,3.04194974899292,2.87254738807678,1.08417916297913
647,3314955074,0.150170,-0.662933,0.011531,-0.733374,9.77378082275391,-2.16525769233704,1.19497227668762,2.94446802139282,2.74771118164062,1.18643784523010
648,3314971741,0.150128,-0.663003,0.011544,-0.733318,9.78861331939697,-2.16341996192932,1.19214105606079,2.94362306594849,2.75439643859863,1.17224848270416
649,3314988408,0.150078,-0.663069,0.011558,-0.733269,9.77849864959717,-2.17300367355347,1.20186686515808,2.76448702812195,2.83854651451111,1.12080526351929
650,3315005075,0.150002,-0.663117,0.011619,-0.733240,9.73053169250488,-2.16515445709229,1.19150495529175,2.69927763938904,3.01811718940735,1.21495759487152
651,3315021742,0.149984,-0.663175,0.011642,-0.733190,9.70782184600830,-2.17287039756775,1.19812214374542,2.80487847328186,2.89700746536255,1.31437325477600
652,3315038409,0.149961,-0.663222,0.011678,-0.733152,9.73582553863525,-2.18686652183533,1.19526660442352,2.92513012886047,2.97846889495850,1.36146211624146
653,3315055076,0.149968,-0.663270,0.011700,-0.733108,9.84250068664551,-2.21173167228699,1.18515324592590,3.12434649467468,2.93123960494995,1.44946777820587
654,3315071743,0.149941,-0.663313,0.011723,-0.733073,9.85774898529053,-2.17072486877441,1.17609131336212,2.95636534690857,3.00392818450928,1.27499389648438
655,3315088410,0.149804,-0.663400,0.011824,-0.733021,9.81346607208252,-2.13649177551270,1.19158542156219,2.03033804893494,2.78975462913513,1.08998060226440
656,3315105077,0.149607,-0.663497,0.011996,-0.732971,9.77465629577637,-2.20544052124023,1.19917094707489,1.38296389579773,2.83437156677246,1.11371064186096
657,3315121744,0.149513,-0.663543,0.012076,-0.732947,9.71435546875000,-2.26104426383972,1.19999384880066,2.37224149703979,3.09486579895020,1.18614327907562
658,3315138411,0.149512,-0.663579,0.012036,-0.732915,9.73010540008545,-2.22760629653931,1.21064484119415,3.41530632972717,2.98679327964783,1.11601591110229
659,3315155078,0.149598,-0.663589,0.011935,-0.732890,9.76668930053711,-2.19399428367615,1.22332894802094,4.14539718627930,3.07487535476685,1.27385425567627
660,3315171745,0.149676,-0.663579,0.011867,-0.732885,9.79349517822266,-2.15454602241516,1.19316756725311,3.95678496360779,3.30827140808105,1.36504828929901
661,3315188412,0.149662,-0.663587,0.011898,-0.732879,9.78069782257080,-2.12644314765930,1.21176874637604,3.02884936332703,3.31335520744324,1.35356104373932
662,3315205079,0.149581,-0.663601,0.012035,-0.732881,9.77746868133545,-2.14358305931091,1.20903897285461,2.17698359489441,3.43875479698181,1.48480021953583
663,3315221746,0.149496,-0.663604,0.012197,-0.732894,9.77172470092773,-2.19768381118774,1.19344222545624,2.05394005775452,3.56886744499207,1.56850254535675
664,3315238413,0.149431,-0.663596,0.012347,-0.732911,9.76460075378418,-2.20349669456482,1.19186782836914,2.08354830741882,3.65703916549683,1.60122275352478
665,3315255080,0.149419,-0.663592,0.012423,-0.732916,9.78117656707764,-2.21227574348450,1.19299101829529,2.65279078483582,3.51145696640015,1.53866386413574
666,3315271747,0.149399,-0.663598,0.012443,-0.732914,9.78629207611084,-2.22850775718689,1.20551931858063,3.05058169364929,3.33878874778748,1.26723325252533
667,3315288414,0.149411,-0.663603,0.012380,-0.732908,9.74855041503906,-2.22976183891296,1.20344877243042,3.61931133270264,3.23464679718018,1.05413532257080
668,3315305081,0.149462,-0.663608,0.012275,-0.732895,9.70025062561035,-2.18341374397278,1.19193124771118,4.01160860061646,3.15175175666809,1.06193459033966
669,3315321748,0.149553,-0.663590,0.012224,-0.732894,9.74805831909180,-2.17684316635132,1.17564404010773,3.94910097122192,3.38094758987427,1.50170469284058
670,3315338415,0.149590,-0.663550,0.012237,-0.732922,9.78469467163086,-2.16643309593201,1.15800034999847,3.35246586799622,3.70325779914856,1.49421310424805
671,3315355082,0.149535,-0.663512,0.012299,-0.732967,9.80449295043945,-2.17165517807007,1.18001461029053,2.56470870971680,3.85471796989441,1.21705794334412
672,3315371749,0.149395,-0.663491,0.012408,-0.733012,9.79102802276611,-2.17267084121704,1.17892670631409,2.08771038055420,3.78969979286194,1.01982724666595
673,3315388416,0.149287,-0.663519,0.012499,-0.733008,9.74617290496826,-2.18782663345337,1.19846367835999,2.27414512634277,3.29362034797668,1.14737844467163
674,3315405083,0.149207,-0.663570,0.012568,-0.732977,9.73900127410889,-2.20764422416687,1.21133661270142,2.48838233947754,3.02893853187561,1.21222972869873
675,3315421750,0.149217,-0.663583,0.012528,-0.732964,9.75520229339600,-2.23369765281677,1.20606219768524,3.48562574386597,3.18868494033813,1.15821254253387
676,3315438417,0.149299,-0.663557,0.012414,-0.732972,9.73935508728027,-2.20142889022827,1.16687595844269,4.23337650299072,3.39678835868835,1.16190111637115
677,3315455084,0.149347,-0.663547,0.012323,-0.732974,9.76919174194336,-2.14913344383240,1.17416417598724,3.94196820259094,3.31280469894409,1.10168564319611
678,3315471751,0.149323,-0.663547,0.012323,-0.732978,9.79383754730225,-2.13768577575684,1.17181336879730,3.14493918418884,3.36811542510986,1.14661026000977
679,3315488418,0.149224,-0.663561,0.012437,-0.732984,9.78726673126221,-2.16105127334595,1.15517818927765,2.20938348770142,3.44299387931824,1.28873503208160
680,3315505085,0.149084,-0.663594,0.012580,-0.732980,9.78524208068848,-2.18392992019653,1.19871842861176,1.86905503273010,3.32322931289673,1.22810995578766
681,3315521752,0.148968,-0.663618,0.012687,-0.732979,9.78286552429199,-2.20573472976685,1.18960869312286,2.15915679931641,3.34745788574219,1.16963589191437
682,3315538419,0.148918,-0.663636,0.012734,-0.732973,9.79540348052979,-2.21592497825623,1.19048368930817,2.76889324188232,3.28789591789246,1.24830532073975
683,3315555086,0.148909,-0.663659,0.012722,-0.732954,9.79045581817627,-2.20249462127686,1.20877683162689,3.24854230880737,3.13757538795471,1.18924272060394
684,3315571753,0.148905,-0.663673,0.012695,-0.732942,9.78280448913574,-2.18868899345398,1.20627450942993,3.34905982017517,3.20041632652283,1.13936197757721
685,3315588420,0.148898,-0.663684,0.012678,-0.732934,9.76467895507812,-2.17883610725403,1.20543003082275,3.29543924331665,3.24207520484924,1.17191565036774
686,3315605087,0.148859,-0.663696,0.012713,-0.732931,9.76934528350830,-2.18062806129456,1.21964061260223,2.89435696601868,3.32155108451843,1.24110829830170
687,3315621754,0.148831,-0.663678,0.012762,-0.732952,9.77015781402588,-2.18448996543884,1.19583582878113,2.89631652832031,3.59202170372009,1.34060084819794
688,3315638421,0.148821,-0.663641,0.012789,-0.732987,9.79335117340088,-2.18779182434082,1.20236480236053,3.10252404212952,3.72259449958801,1.31314384937286
689,3315655088,0.148808,-0.663616,0.012819,-0.733012,9.77520751953125,-2.19694232940674,1.20382380485535,3.14475917816162,3.61395859718323,1.32949757575989
690,3315671755,0.148833,-0.663603,0.012828,-0.733019,9.77230167388916,-2.18113493919373,1.19698655605316,3.33718752861023,3.45896315574646,1.43238389492035
691,3315688422,0.148840,-0.663597,0.012827,-0.733022,9.75954055786133,-2.18420028686523,1.17348778247833,3.29729580879211,3.39202451705933,1.30397462844849
692,3315705089,0.148828,-0.663594,0.012841,-0.733027,9.76347827911377,-2.18134069442749,1.19441199302673,3.12580633163452,3.41104245185852,1.27218949794769
693,3315721756,0.148801,-0.663592,0.012866,-0.733034,9.76424503326416,-2.16729712486267,1.19163060188293,2.99819064140320,3.42649960517883,1.24637174606323
694,3315738423,0.148754,-0.663586,0.012890,-0.733048,9.75907421112061,-2.18406367301941,1.18590009212494,2.92418289184570,3.47205185890198,1.13391935825348
695,3315755090,0.148724,-0.663586,0.012902,-0.733054,9.75511837005615,-2.17363190650940,1.20633971691132,3.04881453514099,3.39710903167725,1.16986668109894
696,3315771757,0.148696,-0.663593,0.012936,-0.733053,9.77822589874268,-2.16527605056763,1.18407177925110,2.94640207290649,3.35290122032166,1.28540551662445
697,3315788424,0.148669,-0.663605,0.012968,-0.733047,9.76633739471436,-2.19082880020142,1.19005012512207,2.94737553596497,3.29944753646851,1.28735220432281
698,3315805091,0.148652,-0.663635,0.012980,-0.733024,9.78391265869141,-2.18848466873169,1.19788861274719,3.08483839035034,3.11111712455750,1.26678490638733
699,3315821758,0.148649,-0.663664,0.012971,-0.732998,9.79304313659668,-2.17500376701355,1.19792544841766,3.25422835350037,3.08020305633545,1.24492466449738
700,3315838425,0.148608,-0.663677,0.012999,-0.732994,9.78808498382568,-2.18127799034119,1.18741703033447,2.90555000305176,3.29860234260559,1.20160079002380
701,3315855092,0.148547,-0.663680,0.013065,-0.733002,9.74997615814209,-2.19485092163086,1.17502403259277,2.63208317756653,3.44672083854675,1.25387632846832
702,3315871759,0.148483,-0.663671,0.013143,-0.733023,9.76209354400635,-2.20483016967773,1.19226503372192,2.57545328140259,3.58232712745667,1.28630197048187
703,3315888426,0.148462,-0.663660,0.013156,-0.733036,9.71028137207031,-2.20198154449463,1.20083606243134,3.09444379806519,3.48389816284180,1.21481704711914
704,3315905093,0.148465,-0.663644,0.013158,-0.733050,9.71507740020752,-2.16223096847534,1.21989738941193,3.27105522155762,3.50413084030151,1.28577673435211
705,3315921760,0.148486,-0.663621,0.013149,-0.733066,9.81414508819580,-2.21418833732605,1.16615891456604,3.41364169120789,3.52800226211548,1.32726943492889
706,3315938427,0.148477,-0.663600,0.013121,-0.733088,9.85979366302490,-2.19965791702271,1.16529560089111,3.37258434295654,3.53682589530945,1.08269369602203
707,3315955094,0.148361,-0.663635,0.013172,-0.733079,9.82019996643066,-2.13922977447510,1.20507895946503,2.42289066314697,3.19287252426147,0.92787760496140
708,3315971761,0.148214,-0.663679,0.013238,-0.733068,9.77006435394287,-2.20136451721191,1.18890249729156,2.20445346832275,3.16101074218750,0.83943718671799
709,3315988428,0.148158,-0.663677,0.013234,-0.733081,9.73116683959961,-2.22668313980103,1.21290159225464,3.02130627632141,3.42660164833069,0.95865154266357
710,3316005095,0.148225,-0.663674,0.013127,-0.733072,9.74179649353027,-2.20944499969482,1.22036528587341,4.09633493423462,3.20790743827820,1.13366293907166
711,3316021762,0.148352,-0.663648,0.013002,-0.733072,9.81356525421143,-2.16856598854065,1.20851027965546,4.48695468902588,3.34598541259766,1.34914267063141
712,3316038429,0.148428,-0.663607,0.012981,-0.733094,9.82462024688721,-2.13498520851135,1.18993425369263,3.73970460891724,3.63720250129700,1.54240345954895
713,3316055096,0.148379,-0.663598,0.013107,-0.733110,9.77841758728027,-2.12572503089905,1.20526278018951,2.40658879280090,3.59982061386108,1.58490765094757
714,3316071763,0.148245,-0.663614,0.013297,-0.733120,9.76935672760010,-2.15849375724792,1.19213163852692,1.66935241222382,3.52533817291260,1.45648539066315
715,3316088430,0.148154,-0.663608,0.013487,-0.733140,9.76160430908203,-2.22013521194458,1.18772625923157,1.87723803520203,3.68005228042603,1.65775012969971
716,3316105097,0.148142,-0.663602,0.013575,-0.733145,9.75321578979492,-2.23836278915405,1.19502723217010,2.76135039329529,3.49380970001221,1.61516916751862
717,3316121764,0.148202,-0.663608,0.013545,-0.733129,9.76715660095215,-2.19069051742554,1.18494534492493,3.66278982162476,3.21837067604065,1.45131182670593
718,3316138431,0.148263,-0.663607,0.013490,-0.733119,9.78864383697510,-2.20141673088074,1.17764687538147,3.80103397369385,3.25261521339417,1.34764444828033
719,3316155098,0.148331,-0.663623,0.013419,-0.733091,9.78211593627930,-2.19684886932373,1.18637502193451,3.89954042434692,3.06724238395691,1.31950867176056
720,3316171765,0.148370,-0.663655,0.013389,-0.733055,9.74137210845947,-2.16240477561951,1.19534730911255,3.53919506072998,2.98889327049255,1.36251235008240
721,3316188432,0.148375,-0.663668,0.013417,-0.733042,9.73042774200439,-2.16150045394897,1.18919444084167,3.11549687385559,3.26124620437622,1.44342315196991
722,3316205099,0.148356,-0.663668,0.013512,-0.733044,9.78247737884521,-2.19638895988464,1.18442642688751,2.67207717895508,3.46046161651611,1.60748517513275
723,3316221766,0.148260,-0.663680,0.013650,-0.733050,9.80399990081787,-2.19956445693970,1.18488144874573,2.10367989540100,3.47032213211060,1.41131746768951
724,3316238433,0.148148,-0.663686,0.013789,-0.733065,9.78947925567627,-2.21506237983704,1.20106852054596,2.03149056434631,3.54240965843201,1.32724380493164
725,3316255100,0.148078,-0.663702,0.013856,-0.733063,9.76172828674316,-2.24004364013672,1.18880999088287,2.56757736206055,3.34441065788269,1.22853243350983
726,3316271767,0.148083,-0.663727,0.013832,-0.733040,9.73400020599365,-2.22889852523804,1.22317409515381,3.22634863853455,3.12589597702026,1.19562017917633
727,3316288434,0.148149,-0.663717,0.013735,-0.733037,9.73833370208740,-2.21493339538574,1.20512306690216,3.82778668403625,3.33302593231201,1.14206397533417
728,3316305101,0.148265,-0.663679,0.013581,-0.733051,9.74280643463135,-2.20405983924866,1.19408214092255,4.29322052001953,3.50584745407104,1.10698747634888
729,3316321768,0.148317,-0.663659,0.013499,-0.733060,9.75752353668213,-2.16016721725464,1.19310736656189,3.91814780235291,3.40825057029724,1.15179681777954
730,3316338435,0.148329,-0.663647,0.013497,-0.733069,9.78062152862549,-2.13322424888611,1.18372237682343,2.90410327911377,3.54919767379761,1.26875734329224
731,3316355102,0.148262,-0.663641,0.013598,-0.733086,9.80611801147461,-2.16635107994080,1.16704428195953,2.21930837631226,3.61913251876831,1.35006463527679
732,3316371769,0.148140,-0.663660,0.013733,-0.733090,9.76595497131348,-2.17581248283386,1.16465353965759,1.98832011222839,3.42592263221741,1.27053701877594
733,3316388436,0.148040,-0.663692,0.013819,-0.733080,9.77232551574707,-2.21189594268799,1.19888377189636,2.31682848930359,3.24605751037598,1.17354178428650
734,3316405103,0.148071,-0.663717,0.013781,-0.733052,9.76631832122803,-2.23544526100159,1.20629119873047,2.91343808174133,3.19987797737122,1.19862961769104
735,3316421770,0.148089,-0.663732,0.013755,-0.733035,9.76587486267090,-2.22256636619568,1.20496845245361,3.43400335311890,3.17220282554626,1.26551699638367
736,3316438437,0.148126,-0.663734,0.013688,-0.733028,9.79356002807617,-2.20675206184387,1.19889545440674,3.75436711311340,3.24088406562805,1.15894269943237
737,3316455104,0.148146,-0.663724,0.013633,-0.733033,9.79486942291260,-2.18810796737671,1.19578301906586,3.62488269805908,3.36739826202393,1.11951196193695
738,3316471771,0.148158,-0.663715,0.013609,-0.733039,9.78107452392578,-2.17388367652893,1.19533371925354,3.18074488639832,3.45537710189819,1.18536210060120
739,3316488438,0.148097,-0.663713,0.013657,-0.733053,9.74985027313232,-2.17122340202332,1.20279836654663,2.71479916572571,3.48201465606689,1.17386209964752
740,3316505105,0.148083,-0.663705,0.013675,-0.733062,9.74888992309570,-2.19474911689758,1.17947459220886,2.65431475639343,3.55784153938293,1.22175788879395
741,3316521772,0.148080,-0.663685,0.013685,-0.733081,9.76434040069580,-2.20688939094543,1.15132367610931,2.90001726150513,3.62182188034058,1.24597477912903
742,3316538439,0.148107,-0.663672,0.013653,-0.733088,9.78171539306641,-2.19709944725037,1.19274711608887,3.18817305564880,3.49377083778381,1.21544444561005
743,3316555106,0.148125,-0.663644,0.013604,-0.733110,9.78377819061279,-2.19682812690735,1.19942462444305,3.35153055191040,3.60192036628723,1.09069752693176
744,3316571773,0.148150,-0.663630,0.013523,-0.733119,9.76406097412109,-2.19435238838196,1.18853020668030,3.45860457420349,3.45167636871338,0.98624902963638
745,3316588440,0.148152,-0.663612,0.013443,-0.733137,9.75803375244141,-2.19210290908813,1.17057526111603,3.67542934417725,3.44599056243896,0.90226513147354
746,3316605107,0.148142,-0.663600,0.013378,-0.733151,9.77778053283691,-2.20180392265320,1.16218292713165,3.62810945510864,3.39244723320007,0.92083424329758
747,3316621774,0.148120,-0.663601,0.013329,-0.733155,9.79582405090332,-2.15104651451111,1.18922591209412,3.37933301925659,3.32297253608704,0.93303853273392
748,3316638441,0.148083,-0.663591,0.013316,-0.733172,9.79850292205811,-2.14564085006714,1.19138801097870,3.02564764022827,3.49663996696472,0.99607169628143
749,3316655108,0.148050,-0.663590,0.013347,-0.733179,9.79673576354980,-2.16679859161377,1.19139158725739,2.76146554946899,3.46633982658386,1.22376847267151
750,3316671775,0.148005,-0.663577,0.013397,-0.733200,9.78847026824951,-2.16925668716431,1.20113182067871,2.79942369461060,3.57183861732483,1.25148165225983
751,3316688442,0.148011,-0.663560,0.013445,-0.733212,9.77184867858887,-2.17203712463379,1.20454931259155,2.86748886108398,3.58235192298889,1.49152350425720
752,3316705109,0.148002,-0.663545,0.013482,-0.733227,9.77800941467285,-2.18110847473145,1.18594551086426,3.02975821495056,3.53665900230408,1.38289999961853
753,3316721776,0.148016,-0.663520,0.013484,-0.733247,9.77320194244385,-2.19145750999451,1.17612147331238,3.13740849494934,3.61872267723083,1.31033945083618
754,3316738443,0.148016,-0.663497,0.013492,-0.733268,9.77897644042969,-2.20319604873657,1.18922793865204,3.22668170928955,3.57424616813660,1.28854298591614
755,3316755110,0.148089,-0.663476,0.013441,-0.733273,9.79045581817627,-2.19635438919067,1.18701756000519,3.36379933357239,3.53137040138245,1.35075628757477
756,3316771777,0.148093,-0.663461,0.013442,-0.733285,9.78763484954834,-2.18114256858826,1.20776116847992,3.16186833381653,3.51226282119751,1.26750206947327
757,3316788444,0.148121,-0.663455,0.013435,-0.733286,9.77075672149658,-2.18469262123108,1.22031748294830,3.05777883529663,3.46153736114502,1.34573626518250
758,3316805111,0.148071,-0.663440,0.013492,-0.733308,9.78549861907959,-2.17322325706482,1.21835792064667,2.74094986915588,3.59500575065613,1.25381231307983
759,3316821778,0.147999,-0.663420,0.013555,-0.733340,9.77007293701172,-2.19850111007690,1.21946787834167,2.61278390884399,3.66786074638367,1.16968727111816
760,3316838445,0.147975,-0.663408,0.013592,-0.733355,9.74969291687012,-2.18944478034973,1.21180164813995,2.76779198646545,3.56608867645264,1.27983462810516
761,3316855112,0.147937,-0.663367,0.013625,-0.733399,9.72504901885986,-2.18590927124023,1.20290696620941,2.90154099464417,3.81451845169067,1.18527245521545
762,3316871779,0.147916,-0.663328,0.013667,-0.733438,9.66683864593506,-2.18288445472717,1.23311471939087,2.96038651466370,3.77822542190552,1.32632184028625
763,3316888446,0.147919,-0.663278,0.013699,-0.733482,9.78973484039307,-2.19399762153625,1.18700945377350,2.99849843978882,3.87263417243958,1.37245023250580
764,3316905113,0.147892,-0.663202,0.013713,-0.733555,9.86627578735352,-2.19552159309387,1.17025136947632,3.07751345634460,4.10130405426025,1.12558221817017
765,3316921780,0.147761,-0.663185,0.013784,-0.733596,9.82983207702637,-2.14064383506775,1.22559344768524,2.32296347618103,3.70301389694214,0.90355849266052
766,3316938447,0.147557,-0.663212,0.013901,-0.733611,9.76058387756348,-2.20193648338318,1.21395683288574,1.67228555679321,3.43326139450073,0.74960058927536
767,3316955114,0.147432,-0.663210,0.013946,-0.733637,9.72686386108398,-2.26012158393860,1.20128130912781,2.45773673057556,3.53930997848511,0.82429993152618
