sep=,
DeviceTag:,C
FirmwareVersion:,3.0.0
AppVersion:,2023.6.0
StartTime: ,2024-03-14_11:50:42_000 EDT
© Movella Technologies B. V. 2005-2024

PacketCounter,SampleTimeFine,Quat_W,Quat_X,Quat_Y,Quat_Z,Acc_X,Acc_Y,Acc_Z,Gyr_X,Gyr_Y,Gyr_Z
0,3304204859,0.630665,0.386928,-0.566249,0.363195,0.00000000000000,0.00000000000000,0.00000000000000,0.00000000000000,0.00000000000000,0.00000000000000
1,3304221526,0.630560,0.386942,-0.566347,0.363211,9.87071609497070,0.76464217901230,0.63708555698395,1.40285873413086,-0.85736584663391,0.87244534492493
2,3304238193,0.630494,0.386961,-0.566410,0.363205,9.89311981201172,0.79465818405151,0.62775969505310,1.03809547424316,-0.64171975851059,0.55861288309097
3,3304254860,0.630503,0.386898,-0.566484,0.363141,9.88357830047607,0.78817820549011,0.61854082345963,0.41893410682678,-0.33302271366119,0.47598639130592
4,3304271527,0.630544,0.386836,-0.566520,0.363079,9.87121582031250,0.79736906290054,0.60614210367203,0.44397053122520,-0.04260031878948,0.30339521169662
5,3304288194,0.630576,0.386805,-0.566518,0.363060,9.86277961730957,0.77104461193085,0.61063021421432,0.74070650339127,0.11085177212954,0.28213670849800
6,3304304861,0.630575,0.386771,-0.566550,0.363049,9.82462406158447,0.71522295475006,0.58830112218857,0.93167471885681,-0.11430306732655,0.51042264699936
7,3304321528,0.630559,0.386712,-0.566622,0.363026,9.84055519104004,0.71457767486572,0.58112323284149,0.81284463405609,-0.31869241595268,0.70131415128708
8,3304338195,0.630522,0.386661,-0.566711,0.363007,9.84682083129883,0.75500351190567,0.58172738552094,0.69742095470428,-0.48936262726784,0.78200685977936
9,3304354862,0.630469,0.386618,-0.566804,0.362999,9.85697650909424,0.76274061203003,0.57116734981537,0.79369908571243,-0.56412607431412,0.83943045139313
10,3304371529,0.630430,0.386630,-0.566866,0.362957,9.86373901367188,0.77297300100327,0.56655955314636,0.94996213912964,-0.60193043947220,0.36582615971565
11,3304388196,0.630377,0.386656,-0.566926,0.362929,9.86680316925049,0.75739842653275,0.57526677846909,1.10534167289734,-0.64625322818756,0.40153029561043
12,3304404863,0.630288,0.386730,-0.566974,0.362929,9.86036300659180,0.75292110443115,0.55627202987671,1.52177846431732,-0.78171879053116,0.39649736881256
13,3304421530,0.630177,0.386818,-0.567046,0.362916,9.87757396697998,0.74977415800095,0.59000563621521,1.55510067939758,-1.03305613994598,0.39939162135124
14,3304438197,0.630118,0.386841,-0.567105,0.362901,9.87764167785645,0.76650536060333,0.60403597354889,1.15980696678162,-0.62332981824875,0.48615461587906
15,3304454864,0.630102,0.386849,-0.567147,0.362856,9.87467575073242,0.76875734329224,0.58132427930832,0.94148439168930,-0.42207804322243,0.25834250450134
16,3304471531,0.630105,0.386848,-0.567171,0.362813,9.87385749816895,0.77386146783829,0.57202357053757,0.90193831920624,-0.24008704721928,0.20611819624901
17,3304488198,0.630099,0.386896,-0.567184,0.362751,9.83523750305176,0.72327524423599,0.52337139844894,1.09796524047852,-0.40069147944450,-0.07136337459087
18,3304504865,0.630040,0.386931,-0.567243,0.362725,9.87236690521240,0.73507839441299,0.57527530193329,1.15414667129517,-0.68888556957245,0.38556078076363
19,3304521532,0.629951,0.386998,-0.567276,0.362756,9.87747192382812,0.75500613451004,0.56582909822464,1.62787926197052,-0.61225247383118,0.51431584358215
20,3304538199,0.629907,0.387048,-0.567271,0.362786,9.89292144775391,0.76209467649460,0.60993593931198,1.60244572162628,-0.23405525088310,0.36271426081657
21,3304554866,0.629927,0.387049,-0.567253,0.362779,9.87889003753662,0.75280886888504,0.62199693918228,1.13510358333588,0.09690564125776,0.20442773401737
22,3304571533,0.629750,0.387337,-0.567162,0.362922,9.80379199981689,0.72155791521072,0.38286980986595,3.60398864746094,-0.67210924625397,0.02812274731696
23,3304588200,0.629677,0.387459,-0.567217,0.362833,9.93952751159668,0.79621595144272,0.80866539478302,1.32968342304230,-1.09948289394379,-0.20016966760159
24,3304604867,0.629809,0.387372,-0.567183,0.362750,9.80398178100586,0.69985318183899,0.43693017959595,0.07750403136015,0.61222040653229,-0.11119112372398
25,3304621534,0.629847,0.387176,-0.567351,0.362628,9.80066013336182,0.70932549238205,0.47824272513390,-0.75966632366180,-0.45696255564690,0.92112231254578
26,3304638201,0.629739,0.387116,-0.567561,0.362553,9.82559013366699,0.77336621284485,0.54074680805206,0.32757362723351,-1.41946220397949,1.07260870933533
27,3304654868,0.629551,0.387185,-0.567713,0.362567,9.88850498199463,0.72597116231918,0.57871139049530,1.53568625450134,-1.56790053844452,0.99340128898621
28,3304671535,0.629377,0.387323,-0.567757,0.362654,9.90274620056152,0.74031555652618,0.54778069257736,2.43489694595337,-1.02053165435791,0.72314894199371
29,3304688202,0.629210,0.387553,-0.567790,0.362646,9.86675930023193,0.74975907802582,0.58493775129318,2.42618870735168,-1.42868280410767,-0.09914035350084
30,3304704869,0.629114,0.387659,-0.567844,0.362615,9.90636253356934,0.76137298345566,0.60380101203918,1.63394904136658,-0.99205011129379,0.17207889258862
31,3304721536,0.629094,0.387659,-0.567900,0.362562,9.90514087677002,0.76735883951187,0.55871134996414,0.87284231185913,-0.49545845389366,0.30215299129486
32,3304738203,0.629057,0.387661,-0.567944,0.362556,9.88367080688477,0.75801116228104,0.51403808593750,1.10704493522644,-0.39629888534546,0.51213872432709
33,3304754870,0.629005,0.387736,-0.567937,0.362576,9.88638401031494,0.73865133523941,0.53608059883118,1.69074571132660,-0.34219208359718,0.23892807960510
34,3304771537,0.628949,0.387791,-0.567928,0.362627,9.84216594696045,0.74400657415390,0.53392195701599,1.72866535186768,-0.21841871738434,0.44836312532425
35,3304788204,0.628922,0.387825,-0.567934,0.362630,9.84838104248047,0.74909079074860,0.51240205764771,1.38631308078766,-0.24418506026268,0.30287015438080
36,3304804871,0.628902,0.387866,-0.567937,0.362615,9.83762264251709,0.76936697959900,0.51711738109589,1.28419506549835,-0.27436962723732,0.16420300304890
37,3304821538,0.628867,0.387923,-0.567968,0.362566,9.85769653320312,0.77757322788239,0.54058182239532,1.14655244350433,-0.57791858911514,0.06706684827805
38,3304838205,0.628830,0.387922,-0.568032,0.362532,9.88780117034912,0.77876782417297,0.58443939685822,0.99748647212982,-0.54719609022141,0.45175677537918
39,3304854872,0.628816,0.387924,-0.568042,0.362538,9.90973281860352,0.76326084136963,0.57959681749344,1.12676668167114,-0.12549583613873,0.41354262828827
40,3304871539,0.628818,0.387942,-0.567995,0.362589,9.89134883880615,0.74349069595337,0.48561257123947,1.61445796489716,0.27199402451515,0.35611897706985
41,3304888206,0.628825,0.387979,-0.567962,0.362587,9.82408142089844,0.74952083826065,0.56765317916870,1.39543116092682,0.03529429808259,0.07582639902830
42,3304904873,0.628825,0.388008,-0.567961,0.362560,9.80118656158447,0.77771288156509,0.44941884279251,1.10129475593567,-0.18055032193661,0.09826312214136
43,3304921540,0.628803,0.388007,-0.568018,0.362508,9.90491867065430,0.72902947664261,0.59611874818802,0.72924470901489,-0.51619189977646,0.31337139010429
44,3304938207,0.628748,0.388093,-0.567985,0.362564,9.83833217620850,0.75574588775635,0.49550274014473,1.99414050579071,-0.16508024930954,0.29125478863716
45,3304954874,0.628671,0.388203,-0.567984,0.362582,9.87357234954834,0.76150774955750,0.54976874589920,1.95035588741302,-0.55909317731857,0.17178437113762
46,3304971541,0.628639,0.388247,-0.567989,0.362584,9.86103820800781,0.78215438127518,0.54808616638184,1.46061551570892,-0.28457632660866,0.26826742291451
47,3304988208,0.628659,0.388206,-0.568011,0.362556,9.85392951965332,0.77046823501587,0.52851855754852,0.84535992145538,-0.02175158448517,0.38293543457985
48,3305004875,0.628688,0.388125,-0.568053,0.362528,9.87451267242432,0.77571529150009,0.55098581314087,0.53755939006805,0.02565111964941,0.57202124595642
49,3305021542,0.628715,0.388081,-0.568056,0.362523,9.88031864166260,0.76372653245926,0.57546031475067,0.97831553220749,0.15905487537384,0.42839804291725
50,3305038209,0.628737,0.388060,-0.568033,0.362542,9.88105964660645,0.74844628572464,0.55536490678787,1.11635518074036,0.25238752365112,0.37872219085693
51,3305054876,0.628770,0.388023,-0.568019,0.362547,9.83831882476807,0.72823268175125,0.54655438661575,0.86177772283554,0.25360411405563,0.37660917639732
52,3305071543,0.628780,0.387956,-0.568062,0.362533,9.85382175445557,0.74868941307068,0.51960760354996,0.66235727071762,-0.05777585133910,0.62512916326523
53,3305088210,0.628761,0.387921,-0.568107,0.362536,9.86252021789551,0.77795094251633,0.51633709669113,0.93047094345093,-0.21156728267670,0.64916658401489
54,3305104877,0.628743,0.387918,-0.568125,0.362541,9.84249877929688,0.75284850597382,0.52337968349457,1.10070586204529,-0.16615597903728,0.45675125718117
55,3305121544,0.628721,0.387908,-0.568150,0.362551,9.88615894317627,0.74601632356644,0.52891278266907,1.10211455821991,-0.18709437549114,0.53872472047806
56,3305138211,0.628702,0.387888,-0.568179,0.362560,9.83915042877197,0.74204117059708,0.51901763677597,1.22842335700989,-0.14686962962151,0.58297061920166
57,3305154878,0.628657,0.387921,-0.568192,0.362582,9.88113975524902,0.73352187871933,0.54296070337296,1.40506136417389,-0.29876574873924,0.44073051214218
58,3305171545,0.628621,0.387934,-0.568202,0.362615,9.87071800231934,0.73438012599945,0.51776427030563,1.36733400821686,-0.16767995059490,0.54594755172729
59,3305188212,0.628594,0.387918,-0.568244,0.362612,9.85791492462158,0.75194364786148,0.53149360418320,1.09464836120605,-0.28951954841614,0.56305676698685
60,3305204879,0.628572,0.387893,-0.568286,0.362611,9.88356590270996,0.76699382066727,0.56394040584564,1.01737499237061,-0.23858870565891,0.59272909164429
61,3305221546,0.628554,0.387891,-0.568311,0.362607,9.85516643524170,0.75198352336884,0.56260204315186,1.05858564376831,-0.22539816796780,0.43668368458748
62,3305238213,0.628530,0.387901,-0.568334,0.362602,9.86604213714600,0.74805122613907,0.53412461280823,1.17621207237244,-0.26639130711555,0.39246341586113
63,3305254880,0.628495,0.387914,-0.568353,0.362620,9.88514328002930,0.75965887308121,0.54280805587769,1.29929387569427,-0.24162381887436,0.50068992376328
64,3305271547,0.628481,0.387910,-0.568361,0.362633,9.87202644348145,0.73888784646988,0.52765375375748,1.17404770851135,-0.08263297379017,0.46054199337959
65,3305288214,0.628460,0.387896,-0.568375,0.362664,9.86195850372314,0.73359078168869,0.52431529760361,1.17669856548309,-0.06766234338284,0.60718744993210
66,3305304881,0.628428,0.387897,-0.568394,0.362688,9.86640930175781,0.73042476177216,0.52949762344360,1.22287833690643,-0.18599303066730,0.55872827768326
67,3305321548,0.628398,0.387892,-0.568415,0.362712,9.86016654968262,0.76113373041153,0.53254491090775,1.37057399749756,-0.15749888122082,0.59655815362930
68,3305338215,0.628384,0.387891,-0.568414,0.362739,9.86966800689697,0.75772136449814,0.52963691949844,1.31033289432526,-0.01642414182425,0.48664125800133
69,3305354882,0.628420,0.387863,-0.568390,0.362746,9.85947608947754,0.76949626207352,0.56428837776184,1.02977156639099,0.29901546239853,0.32047894597054
70,3305371549,0.628269,0.388076,-0.568321,0.362888,9.84361553192139,0.70645195245743,0.39491778612137,3.11678361892700,-0.48805636167526,0.30281889438629
71,3305388216,0.628183,0.388158,-0.568405,0.362816,9.91682338714600,0.81876003742218,0.81546205282211,1.23599219322205,-1.13042294979095,0.14026795327663
72,3305404883,0.628324,0.388042,-0.568380,0.362735,9.84126853942871,0.67462646961212,0.40110024809837,-0.02067584916949,0.69032627344131,0.01813379116356
73,3305421550,0.628371,0.387804,-0.568553,0.362637,9.82924365997314,0.74670940637589,0.48647516965866,-0.86501133441925,-0.27349880337715,1.18598330020905
74,3305438217,0.628319,0.387769,-0.568650,0.362612,9.81449222564697,0.75129848718643,0.47147917747498,0.79620915651321,-0.63445860147476,0.75096428394318
75,3305454884,0.628151,0.387819,-0.568778,0.362648,9.89079952239990,0.72908401489258,0.54794347286224,1.56640887260437,-1.28143548965454,1.04720103740692
76,3305471551,0.627998,0.387943,-0.568811,0.362730,9.90978145599365,0.73063367605209,0.49310588836670,2.28884053230286,-0.87243896722794,0.67582947015762
77,3305488218,0.627852,0.388121,-0.568842,0.362743,9.85870265960693,0.73174166679382,0.52770298719406,2.40217638015747,-1.14229428768158,0.14393058419228
78,3305504885,0.627735,0.388232,-0.568878,0.362771,9.89886760711670,0.74606132507324,0.57691162824631,1.94290256500244,-0.84966933727264,0.40680652856827
79,3305521552,0.627677,0.388280,-0.568903,0.362782,9.87748908996582,0.73297744989395,0.55285292863846,1.46257483959198,-0.46742534637451,0.39885374903679
80,3305538219,0.627614,0.388312,-0.568931,0.362811,9.87297916412354,0.72289699316025,0.50391465425491,1.51801359653473,-0.40299662947655,0.56913977861404
81,3305554886,0.627522,0.388428,-0.568915,0.362871,9.86160182952881,0.72367519140244,0.50499498844147,2.10805344581604,-0.45823040604591,0.32350122928619
82,3305571553,0.627448,0.388523,-0.568914,0.362899,9.83677291870117,0.71223407983780,0.50827288627625,1.85872602462769,-0.49343502521515,0.26542437076569
83,3305588220,0.627393,0.388521,-0.568975,0.362901,9.82773971557617,0.73023647069931,0.48435932397842,1.22310888767242,-0.49396014213562,0.64946126937866
84,3305604887,0.627362,0.388461,-0.569067,0.362874,9.87216472625732,0.74876558780670,0.48675301671028,0.59367674589157,-0.48213985562325,0.77574461698532
85,3305621554,0.627322,0.388444,-0.569124,0.362871,9.89432048797607,0.76227253675461,0.53154420852661,1.05382180213928,-0.40085792541504,0.64066326618195
86,3305638221,0.627309,0.388441,-0.569153,0.362852,9.89309310913086,0.76621258258820,0.53018224239349,0.98971319198608,-0.25818243622780,0.37078222632408
87,3305654888,0.627318,0.388422,-0.569168,0.362833,9.88250637054443,0.74777227640152,0.53075110912323,0.96156471967697,-0.07037729024887,0.34533601999283
88,3305671555,0.627344,0.388422,-0.569158,0.362805,9.88327598571777,0.73682028055191,0.51020824909210,0.94371271133423,0.02940338104963,0.12072547525167
89,3305688222,0.627301,0.388514,-0.569127,0.362830,9.85352230072021,0.71007764339447,0.46846544742584,1.87884509563446,-0.23167327046394,0.10412842780352
90,3305704889,0.627273,0.388560,-0.569123,0.362834,9.82802772521973,0.76751470565796,0.50439280271530,1.39105129241943,-0.23920342326164,0.23143634200096
91,3305721556,0.627288,0.388543,-0.569175,0.362745,9.87168025970459,0.69316911697388,0.54741364717484,0.54616516828537,-0.39836069941521,0.11865081638098
92,3305738223,0.627278,0.388509,-0.569214,0.362737,9.86456298828125,0.74691301584244,0.51242804527283,0.89022058248520,-0.18106256425381,0.55536013841629
93,3305754890,0.627222,0.388567,-0.569229,0.362748,9.85208129882812,0.74253541231155,0.51219916343689,1.49634504318237,-0.43848299980164,0.33194062113762
94,3305771557,0.627188,0.388605,-0.569242,0.362747,9.89416503906250,0.75034838914871,0.53679543733597,1.22680985927582,-0.33065354824066,0.29496866464615
95,3305788224,0.627181,0.388586,-0.569296,0.362694,9.88027000427246,0.75108766555786,0.51388090848923,0.74086010456085,-0.39669585227966,0.34160935878754
96,3305804891,0.627205,0.388517,-0.569361,0.362623,9.87213897705078,0.74962341785431,0.52525508403778,0.39831587672234,-0.23673176765442,0.41168573498726
97,3305821558,0.627228,0.388484,-0.569396,0.362564,9.87726593017578,0.75071388483047,0.51029616594315,0.56035465002060,-0.17879584431648,0.24087464809418
98,3305838225,0.627271,0.388457,-0.569392,0.362527,9.88863182067871,0.72236883640289,0.56188297271729,0.75876331329346,0.11566693335772,0.16472806036472
99,3305854892,0.627327,0.388394,-0.569387,0.362505,9.86738491058350,0.71390396356583,0.54468500614166,0.64774513244629,0.30527776479721,0.33156919479370
100,3305871559,0.627387,0.388318,-0.569404,0.362454,9.84410095214844,0.70913666486740,0.50224572420120,0.44681352376938,0.17602327466011,0.30817198753357
101,3305888226,0.627419,0.388257,-0.569442,0.362405,9.87185955047607,0.73065847158432,0.49403515458107,0.50229066610336,-0.05582928657532,0.38107857108116
102,3305904893,0.627415,0.388232,-0.569475,0.362387,9.84895706176758,0.74027687311172,0.48329722881317,0.94939863681793,-0.17501796782017,0.44940042495728
103,3305921560,0.627428,0.388222,-0.569488,0.362354,9.85775089263916,0.73415863513947,0.51828175783157,0.86837291717529,-0.10836092382669,0.23504769802094
104,3305938227,0.627460,0.388173,-0.569512,0.362315,9.88180065155029,0.73614078760147,0.51589292287827,0.65540337562561,0.00231794943102,0.33929142355919
105,3305954894,0.627461,0.388122,-0.569567,0.362281,9.86911964416504,0.74514210224152,0.50499266386032,0.58496838808060,-0.23829415440559,0.52822351455688
106,3305971561,0.627446,0.388100,-0.569611,0.362262,9.87249279022217,0.73932886123657,0.47469407320023,0.87827223539352,-0.28402560949326,0.49510627985001
107,3305988228,0.627404,0.388103,-0.569648,0.362272,9.86307239532471,0.75636315345764,0.50116324424744,1.25549614429474,-0.34167984127998,0.56769275665283
108,3306004895,0.627384,0.388106,-0.569675,0.362262,9.86611270904541,0.76049530506134,0.50846409797668,1.15198242664337,-0.26473927497864,0.40067225694656
109,3306021562,0.627374,0.388098,-0.569698,0.362251,9.87054443359375,0.74074727296829,0.52007251977921,1.01574826240540,-0.18938668072224,0.40086430311203
110,3306038229,0.627369,0.388111,-0.569707,0.362232,9.88825035095215,0.74788010120392,0.54066878557205,1.12274539470673,-0.17692610621452,0.23863349854946
111,3306054896,0.627363,0.388139,-0.569712,0.362204,9.88801097869873,0.73172426223755,0.51180112361908,1.23349487781525,-0.21708685159683,0.13100896775723
112,3306071563,0.627355,0.388175,-0.569687,0.362219,9.89016151428223,0.74184089899063,0.52067083120346,1.28238964080811,-0.02592645585537,0.20789830386639
113,3306088230,0.627358,0.388202,-0.569647,0.362249,9.87098789215088,0.73802679777145,0.51543277502060,1.44850063323975,0.16097581386566,0.24079781770706
114,3306104897,0.627359,0.388230,-0.569603,0.362285,9.83849430084229,0.73320037126541,0.51329451799393,1.55647099018097,0.18639642000198,0.25854739546776
115,3306121564,0.627346,0.388297,-0.569547,0.362324,9.86753654479980,0.73338365554810,0.55134105682373,1.75933647155762,0.09279481321573,0.12301780283451
116,3306138231,0.627325,0.388302,-0.569548,0.362353,9.86561393737793,0.77922284603119,0.55685883760452,1.33905768394470,-0.06324416399002,0.49075213074684
117,3306154898,0.627329,0.388254,-0.569555,0.362389,9.87875843048096,0.77085691690445,0.53248739242554,1.03144907951355,0.16137281060219,0.68481963872910
118,3306171565,0.627346,0.388195,-0.569544,0.362439,9.88868713378906,0.75965780019760,0.53369587659836,1.04467797279358,0.35358327627182,0.70888268947601
119,3306188232,0.627392,0.388136,-0.569505,0.362482,9.90369796752930,0.73740649223328,0.53309524059296,1.01766943931580,0.57462096214294,0.52721184492111
120,3306204899,0.627482,0.388108,-0.569431,0.362474,9.88315963745117,0.74528837203979,0.51696372032166,0.93933290243149,0.68585681915283,-0.01007219403982
121,3306221566,0.627587,0.388059,-0.569372,0.362437,9.86843490600586,0.73778319358826,0.48651012778282,0.61085003614426,0.64373672008514,-0.05412603542209
122,3306238233,0.627701,0.388033,-0.569324,0.362344,9.84745883941650,0.72353470325470,0.48545941710472,0.44986143708229,0.42803943157196,-0.37968903779984
123,3306254900,0.627797,0.387977,-0.569308,0.362261,9.86576557159424,0.69620889425278,0.53444629907608,0.39861047267914,0.32562708854675,-0.08452831953764
124,3306271567,0.627879,0.387934,-0.569296,0.362184,9.86788940429688,0.71723699569702,0.50573652982712,0.50665754079819,0.24764919281006,-0.06732937693596
125,3306288234,0.627997,0.387830,-0.569297,0.362090,9.86430263519287,0.75231242179871,0.52507662773132,0.04574428126216,0.42510676383972,0.04179992899299
126,3306304901,0.628175,0.387624,-0.569337,0.361938,9.85748958587646,0.72772729396820,0.54482460021973,-0.85084748268127,0.59762108325958,0.14959096908569
127,3306321568,0.628184,0.387561,-0.569400,0.361892,9.79226398468018,0.70852535963058,0.35304677486420,0.53173249959946,-0.23851186037064,0.53018295764923
128,3306338235,0.628170,0.387416,-0.569658,0.361664,9.87385940551758,0.80194544792175,0.76436233520508,-0.89397925138474,-1.45054328441620,0.63997173309326
129,3306354902,0.628356,0.387119,-0.569781,0.361465,9.80957794189453,0.69117987155914,0.41249069571495,-1.71601855754852,0.37156337499619,0.50094592571259
130,3306371569,0.628476,0.386670,-0.570118,0.361207,9.84384250640869,0.70733863115311,0.49525165557861,-3.02308583259583,-0.59943318367004,1.57479655742645
131,3306388236,0.628452,0.386399,-0.570411,0.361075,9.83263397216797,0.73532956838608,0.49004131555557,-1.23565280437469,-1.07690513134003,1.66307103633881
132,3306404903,0.628317,0.386248,-0.570678,0.361050,9.92470169067383,0.70175689458847,0.52404761314392,0.03835501894355,-1.41907799243927,1.86233794689178
133,3306421570,0.628181,0.386279,-0.570778,0.361094,9.93420219421387,0.71673488616943,0.47129973769188,1.42879176139832,-0.97168815135956,1.00073933601379
134,3306438237,0.628048,0.386409,-0.570787,0.361173,9.90863227844238,0.71450704336166,0.50538462400436,2.15204310417175,-0.72649782896042,0.51215153932571
135,3306454904,0.627979,0.386537,-0.570740,0.361232,9.90118980407715,0.76727467775345,0.52005910873413,2.05377984046936,-0.27658513188362,0.12614253163338
136,3306471571,0.627992,0.386594,-0.570670,0.361258,9.91102218627930,0.72664314508438,0.47723218798637,1.58645057678223,0.23741692304611,0.00112695887219
137,3306488238,0.628029,0.386658,-0.570591,0.361249,9.89534473419189,0.72267675399780,0.45532765984535,1.54746818542480,0.27262160181999,-0.25772139430046
138,3306504905,0.628063,0.386768,-0.570473,0.361258,9.87472248077393,0.71925109624863,0.48300141096115,1.92699706554413,0.36131832003593,-0.45529773831367
139,3306521572,0.628109,0.386857,-0.570345,0.361287,9.86205768585205,0.71033006906509,0.49004885554314,1.75417530536652,0.54429537057877,-0.34448438882828
140,3306538239,0.628198,0.386831,-0.570286,0.361252,9.83539485931396,0.72506743669510,0.42884725332260,0.71319848299026,0.53388392925262,-0.09656628966331
141,3306554906,0.628279,0.386770,-0.570272,0.361200,9.82838344573975,0.72834110260010,0.39199879765511,0.42104715108871,0.34534883499146,0.10553712397814
142,3306571573,0.628289,0.386789,-0.570272,0.361160,9.86439037322998,0.74404394626617,0.47995892167091,1.01765656471252,-0.15468148887157,0.05709070339799
143,3306588240,0.628292,0.386834,-0.570233,0.361169,9.90039348602295,0.74730890989304,0.55319565534592,1.42007052898407,0.05287742242217,0.08678863942623
144,3306604907,0.628347,0.386875,-0.570147,0.361165,9.90683269500732,0.73775911331177,0.58321273326874,1.28747344017029,0.43341809511185,-0.21238689124584
145,3306621574,0.628444,0.386881,-0.570017,0.361195,9.91670989990234,0.72700297832489,0.57582408189774,1.22577261924744,0.96004074811935,-0.14841920137405
146,3306638241,0.628517,0.386951,-0.569830,0.361289,9.86114883422852,0.70802938938141,0.49699449539185,1.98366522789001,1.12656176090240,-0.21936638653278
147,3306654908,0.628617,0.386967,-0.569643,0.361393,9.84957504272461,0.76007306575775,0.49645805358887,1.70631802082062,1.38723504543304,-0.03455793485045
148,3306671575,0.628696,0.386854,-0.569672,0.361330,9.83542442321777,0.70302873849869,0.54366934299469,0.22883668541908,0.27172517776489,0.38757139444351
149,3306688242,0.628756,0.386809,-0.569616,0.361361,9.90324497222900,0.72648835182190,0.58053427934647,1.10550808906555,0.63192939758301,0.34756433963776
150,3306704909,0.628802,0.386738,-0.569564,0.361440,9.91142368316650,0.79572367668152,0.58521288633347,1.18242299556732,0.75881463289261,0.70181357860565
151,3306721576,0.628903,0.386635,-0.569512,0.361457,9.84910774230957,0.76075661182404,0.54024064540863,0.60542011260986,0.88284409046173,0.42257112264633
152,3306738243,0.629011,0.386458,-0.569535,0.361422,9.84768486022949,0.74964249134064,0.50524502992630,-0.10148391872644,0.63233906030655,0.66668576002121
153,3306754910,0.629085,0.386316,-0.569585,0.361366,9.85079574584961,0.75268793106079,0.49345579743385,-0.03636362776160,0.23604664206505,0.59613555669785
154,3306771577,0.629179,0.386168,-0.569623,0.361300,9.80859947204590,0.74894720315933,0.50127696990967,-0.10042099654675,0.35746365785599,0.49426108598709
155,3306788244,0.629232,0.386048,-0.569704,0.361209,9.82241439819336,0.73793250322342,0.57698172330856,-0.09395379573107,-0.12380539625883,0.48925387859344
156,3306804911,0.629280,0.385952,-0.569800,0.361077,9.84659004211426,0.70999515056610,0.57943499088287,-0.12949140369892,-0.37318342924118,0.27488827705383
157,3306821578,0.629335,0.385801,-0.569940,0.360921,9.90269756317139,0.71229255199432,0.57331758737564,-0.68339157104492,-0.47650507092476,0.48619300127029
158,3306838245,0.629420,0.385622,-0.570064,0.360767,9.84695148468018,0.72794646024704,0.48146200180054,-0.74055916070938,-0.20079715549946,0.48685902357101
159,3306854912,0.629440,0.385566,-0.570164,0.360635,9.83300971984863,0.74933338165283,0.44730120897293,0.04283723980188,-0.60792380571365,0.19338870048523
160,3306871579,0.629408,0.385577,-0.570251,0.360541,9.82849788665771,0.75031572580338,0.52125400304794,0.65024238824844,-0.82218682765961,0.19463089108467
161,3306888246,0.629321,0.385638,-0.570367,0.360444,9.89973831176758,0.74410492181778,0.55359148979187,0.95992559194565,-1.28671157360077,0.19466933608055
162,3306904913,0.629237,0.385781,-0.570395,0.360392,9.91297054290771,0.72543168067932,0.52900153398514,1.68947756290436,-0.98104965686798,-0.16753906011581
163,3306921580,0.629166,0.385900,-0.570437,0.360323,9.87670230865479,0.70117151737213,0.50837731361389,1.42173516750336,-0.98288089036942,-0.14934124052525
164,3306938247,0.629108,0.386016,-0.570461,0.360262,9.88806152343750,0.69955456256866,0.47665199637413,1.47188520431519,-0.82018911838531,-0.17870621383190
165,3306954914,0.629041,0.386193,-0.570453,0.360204,9.89338302612305,0.69423097372055,0.48293998837471,1.79197955131531,-0.86398679018021,-0.47267594933510
166,3306971581,0.628970,0.386439,-0.570399,0.360149,9.89032554626465,0.72545051574707,0.49794957041740,2.22720336914062,-0.84248489141464,-0.83542859554291
167,3306988248,0.628878,0.386748,-0.570316,0.360109,9.85843467712402,0.70155310630798,0.50267958641052,2.70809507369995,-0.91567331552505,-1.04604196548462
168,3307004915,0.628776,0.387044,-0.570253,0.360067,9.86422443389893,0.69390165805817,0.54220992326736,2.65814971923828,-1.00905704498291,-0.92940157651901
169,3307021582,0.628704,0.387275,-0.570213,0.360010,9.84358787536621,0.71315497159958,0.50691837072372,2.13777685165405,-0.87298971414566,-0.74758994579315
170,3307038249,0.628634,0.387424,-0.570222,0.359956,9.85523319244385,0.77200555801392,0.54131901264191,1.67636382579803,-0.87319451570511,-0.29159417748451
171,3307054916,0.628601,0.387521,-0.570232,0.359894,9.88364696502686,0.81475847959518,0.51878088712692,1.32270395755768,-0.62083268165588,-0.20858342945576
172,3307071583,0.628585,0.387578,-0.570251,0.359831,9.87674140930176,0.82482367753983,0.52768969535828,1.15499198436737,-0.49064329266548,-0.06954488903284
173,3307088250,0.628556,0.387653,-0.570254,0.359795,9.88183021545410,0.82990849018097,0.54835420846939,1.32530355453491,-0.44477090239525,-0.04029517993331
174,3307104917,0.628550,0.387735,-0.570220,0.359771,9.89287948608398,0.81006473302841,0.55697423219681,1.39097440242767,-0.19226811826229,-0.17601686716080
175,3307121584,0.628587,0.387770,-0.570177,0.359738,9.88497257232666,0.79644024372101,0.55716806650162,1.21279966831207,0.12329952418804,-0.15083958208561
176,3307138251,0.628661,0.387767,-0.570136,0.359677,9.89428234100342,0.79539144039154,0.54593306779861,0.73635232448578,0.27186596393585,-0.21070924401283
177,3307154918,0.628784,0.387709,-0.570098,0.359584,9.86158466339111,0.77642679214478,0.48908925056458,0.29881054162979,0.49796208739281,-0.24733543395996
178,3307171585,0.628900,0.387616,-0.570089,0.359495,9.84184741973877,0.76845186948776,0.44159007072449,0.11649937927723,0.44680076837540,0.00089644454420
179,3307188252,0.628934,0.387544,-0.570136,0.359438,9.83640480041504,0.77068340778351,0.47632578015327,0.28190615773201,-0.08837021887302,0.40918847918510
180,3307204919,0.628903,0.387503,-0.570184,0.359460,9.86476993560791,0.79976534843445,0.49437129497528,0.98192691802979,-0.20679053664207,0.79241847991943
181,3307221586,0.628888,0.387491,-0.570181,0.359506,9.87948417663574,0.78224778175354,0.50168150663376,1.28541183471680,0.06643935292959,0.60639351606369
182,3307238253,0.628939,0.387422,-0.570158,0.359528,9.84276962280273,0.76292276382446,0.49300688505173,0.95233148336411,0.49684792757034,0.51284307241440
183,3307254920,0.628832,0.387508,-0.570102,0.359710,9.90981960296631,0.78541338443756,0.43070477247238,2.67327427864075,0.05607900768518,0.90193843841553
184,3307271587,0.628752,0.387672,-0.570067,0.359729,9.82222461700439,0.83384096622467,0.58461403846741,2.18704271316528,-0.55334323644638,-0.12704540789127
185,3307288254,0.628949,0.387562,-0.569979,0.359643,9.86156463623047,0.73861640691757,0.45135596394539,0.06359633803368,1.15596520900726,-0.32522371411324
186,3307304921,0.629081,0.387196,-0.570260,0.359360,9.78878116607666,0.70640885829926,0.41442695260048,-2.62223458290100,-0.58838129043579,0.96722513437271
187,3307321588,0.629011,0.387039,-0.570489,0.359288,9.81129455566406,0.77600544691086,0.47942331433296,-0.29894497990608,-1.11255788803101,1.41438424587250
188,3307338255,0.628811,0.386968,-0.570747,0.359307,9.92357635498047,0.76223111152649,0.52089285850525,0.81922221183777,-1.71266365051270,1.87532365322113
189,3307354922,0.628605,0.387104,-0.570779,0.359468,9.94232082366943,0.76452946662903,0.50519776344299,2.81419563293457,-0.88903617858887,1.08823251724243
190,3307371589,0.628449,0.387355,-0.570705,0.359589,9.86523056030273,0.78045320510864,0.48165291547775,3.28176784515381,-0.63077026605606,0.05714192241430
191,3307388256,0.628351,0.387533,-0.570691,0.359589,9.88161182403564,0.75340938568115,0.52337455749512,2.07282280921936,-0.81536114215851,-0.16249337792397
192,3307404923,0.628321,0.387587,-0.570698,0.359574,9.88578319549561,0.75572919845581,0.50725913047791,1.33449852466583,-0.35928854346275,0.14869453012943
193,3307421590,0.628281,0.387622,-0.570711,0.359585,9.86875820159912,0.74972480535507,0.47484898567200,1.28128814697266,-0.31720688939095,0.36545479297638
194,3307438257,0.628205,0.387634,-0.570771,0.359610,9.84666442871094,0.74160063266754,0.48021999001503,1.30027997493744,-0.56388282775879,0.74658459424973
195,3307454924,0.628125,0.387641,-0.570833,0.359644,9.84409332275391,0.72793614864349,0.46543416380882,1.40768682956696,-0.54495501518250,0.81657129526138
196,3307471591,0.628051,0.387651,-0.570890,0.359672,9.85711765289307,0.75064629316330,0.46234130859375,1.29054713249207,-0.52843481302261,0.74357509613037
197,3307488258,0.628009,0.387635,-0.570949,0.359668,9.88181400299072,0.74283432960510,0.47062823176384,0.95996391773224,-0.43060708045959,0.63766652345657
198,3307504925,0.627981,0.387617,-0.571001,0.359654,9.89720344543457,0.74898141622543,0.47697353363037,0.93647712469101,-0.36824014782906,0.55299097299576
199,3307521592,0.627972,0.387593,-0.571031,0.359648,9.87502193450928,0.74866825342178,0.48432680964470,0.90804696083069,-0.16283912956715,0.50322550535202
200,3307538259,0.627986,0.387495,-0.571102,0.359617,9.88135242462158,0.73443484306335,0.49076494574547,0.41013613343239,-0.12659716606140,0.73627537488937
201,3307554926,0.628024,0.387346,-0.571150,0.359635,9.90615940093994,0.73668724298477,0.49912551045418,0.32692044973373,0.31869879364967,1.02644169330597
202,3307571593,0.628070,0.387291,-0.571127,0.359649,9.83230972290039,0.74997013807297,0.39828160405159,0.89962035417557,0.41556599736214,0.43590250611305
203,3307588260,0.628214,0.387123,-0.571147,0.359547,9.81781578063965,0.76106339693069,0.53522235155106,-0.42383247613907,0.58142101764679,0.24627888202667
204,3307604927,0.628315,0.386931,-0.571223,0.359458,9.81912422180176,0.68078112602234,0.38633051514626,-0.44141569733620,0.27081587910652,0.65653032064438
205,3307621594,0.628292,0.386876,-0.571294,0.359444,9.83628654479980,0.73379385471344,0.47497865557671,0.59032148122787,-0.34822383522987,0.73248475790024
206,3307638261,0.628273,0.386809,-0.571375,0.359421,9.86734294891357,0.75610971450806,0.50559520721436,0.59603315591812,-0.35640710592270,0.75667595863342
207,3307654928,0.628299,0.386622,-0.571497,0.359381,9.88915824890137,0.76776820421219,0.50811284780502,-0.23958756029606,-0.10667048394680,1.15584981441498
208,3307671595,0.628406,0.386415,-0.571575,0.359293,9.86065006256104,0.75585448741913,0.49962800741196,-0.64479327201843,0.31210350990295,0.70603972673416
209,3307688262,0.628512,0.386223,-0.571635,0.359218,9.87105846405029,0.75829052925110,0.49358555674553,-0.54546725749969,0.38694381713867,0.65380251407623
210,3307704929,0.628653,0.386055,-0.571629,0.359162,9.84363174438477,0.76314741373062,0.53457605838776,-0.24325022101402,0.80513525009155,0.38676458597183
211,3307721596,0.628792,0.385898,-0.571592,0.359146,9.82611846923828,0.73039835691452,0.50465488433838,0.04858729243279,1.00880742073059,0.43626111745834
212,3307738263,0.628899,0.385746,-0.571570,0.359157,9.82121753692627,0.71383076906204,0.49534809589386,0.21410936117172,0.87113910913467,0.65286767482758
213,3307754930,0.629006,0.385592,-0.571529,0.359201,9.81575679779053,0.70678222179413,0.48743402957916,0.35883387923241,1.05515348911285,0.75250107049942
214,3307771597,0.629085,0.385482,-0.571453,0.359301,9.84390544891357,0.71375578641891,0.47730815410614,0.93106001615524,1.13147926330566,0.79969251155853
215,3307788264,0.629143,0.385432,-0.571350,0.359417,9.85396862030029,0.73796993494034,0.46911638975143,1.41644608974457,1.05711281299591,0.61113172769547
216,3307804931,0.629183,0.385417,-0.571255,0.359514,9.85827064514160,0.71807914972305,0.45688417553902,1.53412401676178,0.82210361957550,0.45985043048859
217,3307821598,0.629161,0.385471,-0.571153,0.359659,9.87852859497070,0.72165507078171,0.49232202768326,2.05361366271973,0.55420762300491,0.52521401643753
218,3307838265,0.629105,0.385549,-0.571058,0.359822,9.88014411926270,0.72977524995804,0.48337200284004,2.42404985427856,0.38557353615761,0.61129820346832
219,3307854932,0.629019,0.385643,-0.571009,0.359949,9.88100624084473,0.75085508823395,0.52895009517670,2.35636854171753,-0.06335941702127,0.59756988286972
220,3307871599,0.628956,0.385730,-0.570954,0.360053,9.90053749084473,0.76790958642960,0.54486060142517,2.21546030044556,0.01448398362845,0.45001512765884
221,3307888266,0.628898,0.385831,-0.570891,0.360147,9.90186500549316,0.75564759969711,0.53585857152939,2.17138075828552,-0.00411724206060,0.31679069995880
222,3307904933,0.628874,0.385923,-0.570820,0.360202,9.86671066284180,0.75375032424927,0.53566104173660,1.95661807060242,0.09655987471342,0.07888711988926
223,3307921600,0.628884,0.385996,-0.570748,0.360220,9.87750720977783,0.72937899827957,0.51833188533783,1.60605704784393,0.16937677562237,-0.08962524682283
224,3307938267,0.628902,0.386012,-0.570699,0.360249,9.86736869812012,0.71761763095856,0.50857651233673,1.38265049457550,0.28129148483276,0.21752867102623
225,3307954934,0.628898,0.385983,-0.570715,0.360263,9.86852169036865,0.71743655204773,0.46731930971146,0.99994534254074,-0.01183946989477,0.55804944038391
226,3307971601,0.628863,0.385956,-0.570775,0.360258,9.86101055145264,0.71497422456741,0.46491935849190,0.88320267200470,-0.39209842681885,0.66365075111389
227,3307988268,0.628795,0.385945,-0.570860,0.360253,9.88205051422119,0.72853785753250,0.48836511373520,1.00276279449463,-0.66041707992554,0.74335747957230
228,3308004935,0.628710,0.385978,-0.570928,0.360259,9.88655662536621,0.74429100751877,0.51603311300278,1.38571119308472,-0.73194044828415,0.62514191865921
229,3308021602,0.628650,0.386016,-0.570975,0.360249,9.87458801269531,0.72255390882492,0.51791954040527,1.26346158981323,-0.59740978479385,0.40761327743530
230,3308038269,0.628603,0.386017,-0.571020,0.360257,9.87145709991455,0.70969337224960,0.53236448764801,1.08115041255951,-0.40245872735977,0.59655815362930
231,3308054936,0.628374,0.386231,-0.571028,0.360414,9.85622787475586,0.71476024389267,0.37683606147766,3.20198440551758,-1.09228551387787,0.76041543483734
232,3308071603,0.628171,0.386427,-0.571168,0.360336,9.90971660614014,0.78773772716522,0.69431954622269,1.73246872425079,-2.14510822296143,0.09790454804897
233,3308088270,0.628265,0.386378,-0.571135,0.360279,9.86815071105957,0.70906537771225,0.47262796759605,0.35176476836205,0.43572321534157,-0.04728744551539
234,3308104937,0.628268,0.386202,-0.571362,0.360101,9.81592845916748,0.64505577087402,0.36743542551994,-1.02373313903809,-1.05334138870239,0.84363102912903
235,3308121604,0.628125,0.386188,-0.571581,0.360018,9.80723476409912,0.74331617355347,0.46077737212181,0.56958800554276,-1.73284637928009,0.96603411436081
236,3308138271,0.627877,0.386232,-0.571839,0.359994,9.88414478302002,0.72324103116989,0.47047808766365,1.20274674892426,-2.30430388450623,1.35145401954651
237,3308154938,0.627588,0.386379,-0.572010,0.360068,9.94011211395264,0.70806986093521,0.47018399834633,2.33382940292358,-2.08496999740601,1.24391913414001
238,3308171605,0.627341,0.386621,-0.572087,0.360116,9.89364337921143,0.73281139135361,0.50330132246017,2.90102243423462,-1.81055533885956,0.39884096384048
239,3308188272,0.627153,0.386847,-0.572145,0.360110,9.90830039978027,0.73800098896027,0.51735830307007,2.37218403816223,-1.60979008674622,0.04194079712033
240,3308204939,0.627039,0.386978,-0.572218,0.360051,9.91503238677979,0.72838282585144,0.53115594387054,1.55376875400543,-1.27965521812439,0.03693351149559
241,3308221606,0.626929,0.387107,-0.572262,0.360032,9.87165355682373,0.73234295845032,0.44878762960434,1.73496568202972,-1.03829395771027,0.12983076274395
242,3308238273,0.626810,0.387263,-0.572306,0.360003,9.86699485778809,0.72808420658112,0.42796230316162,1.79268407821655,-1.16774058341980,-0.00065952696605
243,3308254940,0.626662,0.387386,-0.572376,0.360019,9.85958003997803,0.71571427583694,0.43729004263878,1.87372279167175,-1.19051027297974,0.46808493137360
244,3308271607,0.626524,0.387452,-0.572460,0.360054,9.86190223693848,0.73417246341705,0.44785743951797,1.75197279453278,-1.01237404346466,0.79136848449707
245,3308288274,0.626443,0.387493,-0.572524,0.360048,9.87515830993652,0.73427033424377,0.46149191260338,1.26433241367340,-0.75020235776901,0.51380360126495
246,3308304941,0.626374,0.387537,-0.572592,0.360012,9.89224147796631,0.74457770586014,0.44682177901268,1.16681218147278,-0.81502819061279,0.35186728835106
247,3308321608,0.626320,0.387578,-0.572644,0.359979,9.87919712066650,0.72733563184738,0.43352967500687,1.14230072498322,-0.66605174541473,0.30078271031380
248,3308338275,0.626245,0.387626,-0.572691,0.359985,9.90290260314941,0.72985655069351,0.46162876486778,1.22700202465057,-0.65665203332901,0.47730547189713
249,3308354942,0.626208,0.387637,-0.572709,0.360007,9.90514659881592,0.73972600698471,0.45514070987701,1.36026489734650,-0.22383578121662,0.52310097217560
250,3308371609,0.626119,0.387751,-0.572696,0.360062,9.85595989227295,0.70155662298203,0.44503128528595,1.99008107185364,-0.47922000288963,0.30147424340248
251,3308388276,0.626120,0.387739,-0.572686,0.360087,9.86346340179443,0.76579999923706,0.46627148985863,1.09883606433868,0.09932605922222,0.45707145333290
252,3308404943,0.626108,0.387748,-0.572741,0.360010,9.82674980163574,0.67981767654419,0.38756406307220,0.80453330278397,-0.54752904176712,0.14239379763603
253,3308421610,0.626067,0.387769,-0.572773,0.360009,9.87754821777344,0.68314802646637,0.43241453170776,1.20594835281372,-0.39800217747688,0.42773211002350
254,3308438277,0.625942,0.387852,-0.572804,0.360089,9.83870601654053,0.73635047674179,0.40515944361687,1.99917376041412,-0.65925163030624,0.74458676576614
255,3308454944,0.625832,0.387931,-0.572833,0.360147,9.87844276428223,0.72887581586838,0.41010263562202,1.86574411392212,-0.64449870586395,0.61489683389664
256,3308471611,0.625777,0.387940,-0.572890,0.360142,9.88986206054688,0.76316571235657,0.44410058856010,1.10541844367981,-0.53406959772110,0.56589978933334
257,3308488278,0.625768,0.387898,-0.572930,0.360139,9.89796829223633,0.73043161630630,0.44795048236847,0.73751765489578,-0.16099502146244,0.60588115453720
258,3308504945,0.625782,0.387859,-0.572959,0.360111,9.88494110107422,0.77403074502945,0.48702222108841,0.64650297164917,-0.09446604549885,0.40891960263252
259,3308521612,0.625823,0.387823,-0.572938,0.360113,9.89229393005371,0.74479782581329,0.47933372855186,0.83400070667267,0.30375376343727,0.32241263985634
260,3308538279,0.625856,0.387790,-0.572921,0.360117,9.85389232635498,0.69505190849304,0.45134574174881,0.88854295015335,0.24515195190907,0.35208493471146
261,3308554946,0.625842,0.387746,-0.572946,0.360149,9.87836074829102,0.70376992225647,0.42773100733757,0.90251475572586,-0.01077654492110,0.73525100946426
262,3308571613,0.625794,0.387721,-0.572988,0.360194,9.88541984558105,0.72182732820511,0.44124001264572,1.05065846443176,-0.24301968514919,0.85189116001129
263,3308588280,0.625802,0.387677,-0.573021,0.360173,9.87493133544922,0.73134958744049,0.41138774156570,0.72924470901489,-0.09712974727154,0.48336279392242
264,3308604947,0.625810,0.387659,-0.573036,0.360156,9.87245273590088,0.70441627502441,0.42653423547745,0.75945490598679,-0.08260735869408,0.34718015789986
265,3308621614,0.625786,0.387674,-0.573056,0.360149,9.87139701843262,0.70394736528397,0.41747125983238,1.11141192913055,-0.28347498178482,0.35587570071220
266,3308638281,0.625715,0.387734,-0.573071,0.360184,9.87549018859863,0.70396274328232,0.42786997556686,1.52978253364563,-0.44881770014763,0.45721226930618
267,3308654948,0.625648,0.387766,-0.573083,0.360247,9.87510871887207,0.69970005750656,0.44667690992355,1.52519774436951,-0.26614794135094,0.67287117242813
268,3308671615,0.625614,0.387729,-0.573122,0.360284,9.88192653656006,0.71451359987259,0.44005641341209,1.01030576229095,-0.16125114262104,0.82312816381454
269,3308688282,0.625602,0.387687,-0.573151,0.360304,9.87229347229004,0.72766268253326,0.41621416807175,0.89467716217041,-0.06186107173562,0.68680453300476
270,3308704949,0.625567,0.387673,-0.573195,0.360310,9.88008117675781,0.71914565563202,0.41602388024330,0.96881324052811,-0.32272642850876,0.61270701885223
271,3308721616,0.625518,0.387682,-0.573224,0.360339,9.86413764953613,0.71533602476120,0.40945872664452,1.26538264751434,-0.30464389920235,0.62168425321579
272,3308738283,0.625450,0.387721,-0.573257,0.360362,9.88400936126709,0.70354950428009,0.42785456776619,1.37827062606812,-0.49097624421120,0.52874857187271
273,3308754950,0.625398,0.387749,-0.573256,0.360423,9.89214897155762,0.70349466800690,0.47029829025269,1.54470181465149,-0.15328560769558,0.60711061954498
274,3308771617,0.625368,0.387751,-0.573260,0.360469,9.88453865051270,0.68614196777344,0.43992033600807,1.44239199161530,-0.05322959646583,0.60767412185669
275,3308788284,0.625352,0.387711,-0.573274,0.360516,9.87685489654541,0.70319932699203,0.43145334720612,1.11381947994232,0.05847379192710,0.77089101076126
276,3308804951,0.625325,0.387700,-0.573292,0.360546,9.86706829071045,0.71396261453629,0.39357003569603,1.14274907112122,-0.11984822154045,0.61031228303909
277,3308821618,0.625286,0.387704,-0.573324,0.360560,9.85539054870605,0.69686180353165,0.39654600620270,1.23547983169556,-0.30492562055588,0.56168651580811
278,3308838285,0.625232,0.387715,-0.573365,0.360576,9.87189102172852,0.69510060548782,0.42742502689362,1.23412227630615,-0.41484245657921,0.60296130180359
279,3308854952,0.625186,0.387738,-0.573368,0.360626,9.88558769226074,0.71294486522675,0.41929981112480,1.50180065631866,-0.15871550142765,0.57312262058258
280,3308871619,0.625141,0.387808,-0.573342,0.360669,9.87149047851562,0.71812450885773,0.41582170128822,1.73989629745483,-0.16568213701248,0.28054869174957
281,3308888286,0.625134,0.387853,-0.573316,0.360674,9.85927963256836,0.71914374828339,0.44269955158234,1.36917817592621,-0.06031149998307,0.12797383964062
282,3308904953,0.625001,0.388018,-0.573287,0.360774,9.84742832183838,0.66755384206772,0.26157608628273,2.59236383438110,-0.58485960960388,0.35364735126495
283,3308921620,0.624820,0.388201,-0.573384,0.360737,9.90712833404541,0.76061081886292,0.59351772069931,1.98320412635803,-1.72068023681641,0.16404932737350
284,3308938287,0.624895,0.388153,-0.573361,0.360694,9.94142341613770,0.65882319211960,0.38676682114601,0.59522628784180,0.35682332515717,0.09073298424482
285,3308954954,0.624957,0.387997,-0.573443,0.360625,9.84228420257568,0.66926217079163,0.34900206327438,-0.25038331747055,0.04842080175877,0.71064990758896
286,3308971621,0.624961,0.387948,-0.573488,0.360598,9.83482360839844,0.67970466613770,0.36807397007942,0.63169884681702,-0.17213654518127,0.51600623130798
287,3308988288,0.624834,0.387948,-0.573648,0.360564,9.87549400329590,0.67542243003845,0.45497763156891,0.90948134660721,-1.31359207630157,0.92621922492981
288,3309004955,0.624681,0.388023,-0.573718,0.360638,9.90317821502686,0.69776397943497,0.41883292794228,1.96727299690247,-0.93403756618500,0.92183947563171
289,3309021622,0.624519,0.388210,-0.573739,0.360683,9.89208126068115,0.70430356264114,0.38891330361366,2.46410822868347,-1.11850011348724,0.24188631772995
290,3309038289,0.624383,0.388335,-0.573796,0.360694,9.88137340545654,0.72010564804077,0.42873981595039,1.91531777381897,-1.10100674629211,0.37781295180321
291,3309054956,0.624316,0.388392,-0.573828,0.360697,9.88817024230957,0.70925980806351,0.44346222281456,1.45777237415314,-0.57895588874817,0.36704277992249
292,3309071623,0.624283,0.388421,-0.573841,0.360702,9.87592124938965,0.72828191518784,0.39136445522308,1.27265655994415,-0.28519099950790,0.35605490207672
293,3309088290,0.624230,0.388509,-0.573836,0.360707,9.85621833801270,0.72169339656830,0.37790837883949,1.62591993808746,-0.43596020340919,0.12250555306673
294,3309104957,0.624141,0.388656,-0.573810,0.360746,9.85832977294922,0.67128503322601,0.38782525062561,2.16532325744629,-0.54378962516785,0.06846275180578
295,3309121624,0.624058,0.388738,-0.573822,0.360781,9.83857440948486,0.66937631368637,0.38681912422180,1.85963535308838,-0.52528440952301,0.39565214514732
296,3309138291,0.624013,0.388748,-0.573869,0.360772,9.88410472869873,0.70570558309555,0.37902536988258,1.18091201782227,-0.46590140461922,0.49628442525864
297,3309154958,0.623956,0.388754,-0.573947,0.360741,9.88314437866211,0.70233541727066,0.37496322393417,0.87297046184540,-0.70028322935104,0.51932317018509
298,3309171625,0.623906,0.388749,-0.574022,0.360712,9.88939666748047,0.71185970306396,0.41016158461571,0.92191630601883,-0.62783765792847,0.55057060718536
299,3309188292,0.623861,0.388751,-0.574067,0.360719,9.89868736267090,0.71097308397293,0.41234436631203,1.12800884246826,-0.39723375439644,0.58740162849426
300,3309204959,0.623830,0.388764,-0.574066,0.360759,9.88779544830322,0.69217890501022,0.44616517424583,1.42014729976654,-0.08251771330833,0.52435600757599
301,3309221626,0.623798,0.388814,-0.574023,0.360830,9.88790702819824,0.67982828617096,0.32515639066696,1.82417476177216,0.08260095864534,0.40401470661163
302,3309238293,0.623761,0.388858,-0.573985,0.360905,9.83652877807617,0.73320746421814,0.41788011789322,1.76594436168671,0.06658020615578,0.47033873200417
303,3309254960,0.623714,0.388873,-0.574053,0.360863,9.84058856964111,0.70471972227097,0.42177134752274,0.92705166339874,-0.67032915353775,0.38673898577690
304,3309271627,0.623667,0.388848,-0.574114,0.360874,9.88856220245361,0.69569283723831,0.42682242393494,0.94813102483749,-0.39999994635582,0.75520330667496
305,3309288294,0.623596,0.388895,-0.574123,0.360932,9.87966156005859,0.72424846887589,0.39483508467674,1.66148293018341,-0.32097190618515,0.59294670820236
306,3309304961,0.623555,0.388975,-0.574104,0.360946,9.88332080841064,0.71376401185989,0.42339092493057,1.72812736034393,-0.28330847620964,0.12628343701363
307,3309321628,0.623548,0.388991,-0.574101,0.360945,9.88909816741943,0.71233248710632,0.42676296830177,1.10602033138275,-0.10066431015730,0.27514439821243
308,3309338295,0.623558,0.388937,-0.574128,0.360943,9.89161586761475,0.71759867668152,0.39115428924561,0.84673017263412,0.01260144729167,0.58399516344070
309,3309354962,0.623553,0.388934,-0.574140,0.360936,9.87188911437988,0.72753423452377,0.40032276511192,0.93390297889709,-0.12892793118954,0.35241791605949
310,3309371629,0.623543,0.388932,-0.574154,0.360933,9.87804603576660,0.71026957035065,0.40451303124428,1.08456969261169,-0.14266912639141,0.38784027099609
311,3309388296,0.623540,0.388940,-0.574150,0.360938,9.88626670837402,0.69203490018845,0.39583730697632,1.19265532493591,-0.04212648421526,0.31740534305573
312,3309404963,0.623542,0.388927,-0.574170,0.360916,9.87534618377686,0.66897821426392,0.39499831199646,0.90192550420761,-0.14899547398090,0.33716556429863
313,3309421630,0.623545,0.388910,-0.574185,0.360904,9.88190555572510,0.68849647045135,0.39084300398827,0.85880661010742,-0.08513020724058,0.38048943877220
314,3309438297,0.623540,0.388908,-0.574197,0.360896,9.86689662933350,0.72990483045578,0.36334556341171,1.04065668582916,-0.13287226855755,0.34655261039734
315,3309454964,0.623513,0.388953,-0.574174,0.360931,9.88446140289307,0.73842531442642,0.38744559884071,1.31963026523590,-0.08099375665188,0.30587965250015
316,3309471631,0.623512,0.388950,-0.574181,0.360925,9.89558029174805,0.70660448074341,0.38968661427498,1.03719902038574,-0.08124989271164,0.33884316682816
317,3309488298,0.623491,0.388969,-0.574189,0.360928,9.89204025268555,0.69502002000809,0.37600928544998,1.19000434875488,-0.20169359445572,0.33430975675583
318,3309504965,0.623445,0.389020,-0.574188,0.360955,9.89622116088867,0.68656390905380,0.38343057036400,1.53427755832672,-0.27493312954903,0.36195868253708
319,3309521632,0.623402,0.389081,-0.574173,0.360987,9.89696788787842,0.68514800071716,0.38844260573387,1.59381425380707,-0.21575497090816,0.29341906309128
320,3309538299,0.623382,0.389103,-0.574175,0.360995,9.87107753753662,0.69746339321136,0.36995911598206,1.29429936408997,-0.15802395343781,0.33430978655815
321,3309554966,0.623390,0.389077,-0.574187,0.360989,9.87482547760010,0.70732450485229,0.39870324730873,0.97489619255066,-0.01232611201704,0.41916462779045
322,3309571633,0.623395,0.389074,-0.574211,0.360947,9.84976577758789,0.69622665643692,0.38198053836823,0.89378064870834,-0.22853571176529,0.21609434485435
323,3309588300,0.623383,0.389082,-0.574229,0.360928,9.87143707275391,0.69500690698624,0.41037255525589,0.99856227636337,-0.23871673643589,0.29361116886139
324,3309604967,0.623372,0.389094,-0.574235,0.360924,9.88033580780029,0.69051289558411,0.39765509963036,1.07669389247894,-0.15606456995010,0.30942699313164
325,3309621634,0.623383,0.389082,-0.574251,0.360896,9.87356281280518,0.68929952383041,0.41307505965233,0.92036670446396,-0.10660645365715,0.27470898628235
326,3309638301,0.623391,0.389042,-0.574277,0.360881,9.87648868560791,0.67871671915054,0.39288711547852,0.80574989318848,-0.06396131217480,0.47843238711357
327,3309654968,0.623407,0.389012,-0.574285,0.360874,9.88291358947754,0.68907833099365,0.40787872672081,0.81289583444595,0.04140292480588,0.39467889070511
328,3309671635,0.623433,0.388992,-0.574274,0.360868,9.86362266540527,0.68211323022842,0.37711697816849,0.82317942380905,0.13094495236874,0.29158779978752
329,3309688302,0.623455,0.388989,-0.574256,0.360863,9.87155532836914,0.70469701290131,0.39086279273033,1.08415985107422,0.12187802791595,0.21683709323406
330,3309704969,0.623490,0.388988,-0.574248,0.360815,9.84928607940674,0.67014908790588,0.38012579083443,0.82069486379623,0.00344490795396,0.02083593048155
331,3309721636,0.623505,0.388953,-0.574278,0.360779,9.87610054016113,0.68521183729172,0.41023054718971,0.63563036918640,-0.12515006959438,0.35666966438293
332,3309738303,0.623545,0.388919,-0.574284,0.360738,9.89554691314697,0.70181882381439,0.40068039298058,0.81441974639893,0.07361089438200,0.21212437748909
333,3309754970,0.623587,0.388915,-0.574266,0.360698,9.87861824035645,0.70316457748413,0.38425990939140,0.79522305727005,0.09657268971205,0.02189885824919
334,3309771637,0.623673,0.388843,-0.574271,0.360618,9.87253189086914,0.73167771100998,0.42528614401817,0.27013713121414,0.24602277576923,0.07089594751596
335,3309788304,0.623625,0.388934,-0.574234,0.360662,9.87014865875244,0.67888671159744,0.24444274604321,1.80691182613373,-0.18943791091442,0.17658673226833
336,3309804971,0.623585,0.388986,-0.574301,0.360567,9.89895439147949,0.78012001514435,0.61636316776276,0.90204077959061,-0.86485755443573,-0.00090284761973
337,3309821638,0.623748,0.388925,-0.574211,0.360497,9.92426109313965,0.65771657228470,0.34213867783546,0.31169375777245,0.94559520483017,-0.37428477406502
338,3309838305,0.623926,0.388677,-0.574293,0.360326,9.85455894470215,0.72705811262131,0.37388846278191,-1.34696555137634,0.46543401479721,0.35308387875557
339,3309854972,0.624064,0.388488,-0.574330,0.360232,9.82964420318604,0.69618725776672,0.34506937861443,-0.56042510271072,0.56175059080124,0.43556961417198
340,3309871639,0.624079,0.388315,-0.574461,0.360183,9.87471485137939,0.70217227935791,0.35455191135406,-0.14706172049046,-0.24697683751583,1.11389625072479
341,3309888306,0.624033,0.388317,-0.574484,0.360223,9.89733028411865,0.73905432224274,0.34010353684425,1.31268930435181,-0.21902060508728,0.66705709695816
342,3309904973,0.623972,0.388417,-0.574481,0.360226,9.89425659179688,0.67810821533203,0.38977739214897,1.67382824420929,-0.50840568542480,0.09712334722281
343,3309921640,0.623963,0.388428,-0.574496,0.360207,9.91561889648438,0.72114360332489,0.44034761190414,1.05544817447662,-0.22162027657032,0.26532194018364
344,3309938307,0.624028,0.388357,-0.574496,0.360170,9.93200778961182,0.70613998174667,0.43325394392014,0.31235966086388,0.28277698159218,0.28576087951660
345,3309954974,0.624117,0.388241,-0.574487,0.360155,9.90209960937500,0.72220790386200,0.37514773011208,0.32407748699188,0.59803086519241,0.48588567972183
346,3309971641,0.624190,0.388222,-0.574421,0.360155,9.86980438232422,0.71974235773087,0.41532206535339,1.01732361316681,0.57814264297485,0.04870254546404
347,3309988308,0.624238,0.388250,-0.574322,0.360198,9.85322952270508,0.68756347894669,0.39334738254547,1.56920051574707,0.62213253974915,0.02348684892058
348,3310004975,0.624313,0.388217,-0.574262,0.360200,9.83009719848633,0.69958752393723,0.36547195911407,0.97864848375320,0.59663498401642,0.12190364301205
349,3310021642,0.624407,0.388120,-0.574264,0.360139,9.84090805053711,0.71477276086807,0.36773055791855,0.09337110072374,0.39816224575043,0.22126813232899
350,3310038309,0.624503,0.388003,-0.574300,0.360041,9.87691974639893,0.72658878564835,0.38159203529358,-0.12961947917938,0.21060043573380,0.23512457311153
351,3310054976,0.624575,0.387872,-0.574344,0.359986,9.86970520019531,0.71527355909348,0.38943114876747,0.01873569004238,0.23489405214787,0.54660058021545
352,3310071643,0.624637,0.387765,-0.574368,0.359956,9.87978076934814,0.70791023969650,0.41101351380348,0.26719167828560,0.28066396713257,0.52999079227448
353,3310088310,0.624729,0.387696,-0.574324,0.359942,9.89658164978027,0.70342820882797,0.41823107004166,0.56601500511169,0.64284026622772,0.20639993250370
354,3310104977,0.624783,0.387717,-0.574222,0.359987,9.87184906005859,0.66895699501038,0.34747400879860,1.40748190879822,0.66779994964600,0.03077366203070
355,3310121644,0.624878,0.387672,-0.574122,0.360030,9.85304737091064,0.74453908205032,0.42129498720169,1.04056704044342,0.98818910121918,0.19206964969635
356,3310138311,0.624974,0.387576,-0.574137,0.359943,9.85814189910889,0.69308674335480,0.40509480237961,0.04839519411325,0.27916559576988,0.13687427341938
357,3310154978,0.625048,0.387519,-0.574102,0.359932,9.89216899871826,0.67178922891617,0.39544960856438,0.67124485969543,0.51347070932388,0.22888791561127
358,3310171645,0.625033,0.387538,-0.574084,0.359967,9.83158874511719,0.70715916156769,0.35467842221260,1.39394557476044,0.01915830001235,0.39726576209068
359,3310188312,0.624991,0.387585,-0.574068,0.360014,9.86248779296875,0.71633857488632,0.41808903217316,1.64831829071045,-0.12518848478794,0.40923973917961
360,3310204979,0.625004,0.387564,-0.574056,0.360034,9.89471817016602,0.72751402854919,0.43546438217163,1.10471415519714,0.16525316238403,0.43779790401459
361,3310221646,0.625086,0.387497,-0.574016,0.360026,9.87395668029785,0.70801889896393,0.41629773378372,0.65892511606216,0.59877371788025,0.25096601247787
362,3310238313,0.625191,0.387420,-0.573974,0.359996,9.89011669158936,0.69624704122543,0.42283698916435,0.55603891611099,0.67096310853958,0.13663095235825
363,3310254980,0.625294,0.387358,-0.573901,0.359998,9.88609218597412,0.70991140604019,0.44638612866402,0.63985651731491,0.82740545272827,0.13374952971935
364,3310271647,0.625417,0.387276,-0.573818,0.360005,9.87445831298828,0.69752711057663,0.43490892648697,0.60773819684982,1.01770794391632,0.15662166476250
365,3310288314,0.625527,0.387136,-0.573784,0.360019,9.87455081939697,0.68865644931793,0.41999116539955,0.22836284339428,0.91304153203964,0.57468497753143
366,3310304981,0.625601,0.387018,-0.573776,0.360030,9.86796951293945,0.70574903488159,0.40403312444687,0.42404383420944,0.60716181993484,0.63835805654526
367,3310321648,0.625649,0.386950,-0.573764,0.360039,9.85448265075684,0.69253152608871,0.40837574005127,0.64136755466461,0.38234636187553,0.48433613777161
368,3310338315,0.625691,0.386908,-0.573759,0.360020,9.83981323242188,0.69402742385864,0.41187894344330,0.66298472881317,0.19988147914410,0.29801654815674
369,3310354982,0.625725,0.386869,-0.573774,0.359978,9.86170673370361,0.68124967813492,0.43750941753387,0.66754376888275,0.01628967374563,0.26080131530762
370,3310371649,0.625737,0.386857,-0.573780,0.359961,9.87429141998291,0.68463593721390,0.43437692523003,0.89828854799271,-0.04356079548597,0.29266348481178
371,3310388316,0.625733,0.386835,-0.573789,0.359976,9.90871810913086,0.69598698616028,0.46053409576416,1.06760132312775,0.00133186031599,0.51500731706619
372,3310404983,0.625764,0.386822,-0.573746,0.360004,9.87324714660645,0.71401107311249,0.45227760076523,1.15287888050079,0.37271600961685,0.31323054432869
373,3310421650,0.625820,0.386762,-0.573715,0.360021,9.88058090209961,0.70796525478363,0.46905204653740,0.79845035076141,0.50524896383286,0.41545081138611
374,3310438317,0.625894,0.386695,-0.573662,0.360048,9.89864730834961,0.71818518638611,0.47354897856712,0.85844802856445,0.71444058418274,0.38835251331329
375,3310454984,0.625976,0.386652,-0.573603,0.360047,9.86554145812988,0.72373199462891,0.46009480953217,0.84287548065186,0.63687258958817,0.13736088573933
376,3310471651,0.626039,0.386634,-0.573531,0.360071,9.89236259460449,0.72439289093018,0.48473024368286,0.97690671682358,0.61533236503601,0.15564836561680
377,3310488318,0.626124,0.386595,-0.573478,0.360050,9.86972618103027,0.68924444913864,0.46065703034401,0.77204352617264,0.56200665235519,0.03689508885145
378,3310504985,0.626209,0.386561,-0.573423,0.360026,9.86425781250000,0.69904214143753,0.43873441219330,0.81865870952606,0.55258113145828,0.01199954934418
379,3310521652,0.626282,0.386549,-0.573361,0.360012,9.86230945587158,0.69426906108856,0.45266211032867,0.98840683698654,0.50979512929916,-0.02380060032010
380,3310538319,0.626332,0.386553,-0.573305,0.360009,9.86140155792236,0.71437120437622,0.44233590364456,1.10591793060303,0.37625053524971,0.02627862803638
381,3310554986,0.626390,0.386575,-0.573238,0.359990,9.86024284362793,0.71450728178024,0.46397253870964,1.00978064537048,0.36276546120644,-0.16675786674023
382,3310571653,0.626479,0.386539,-0.573190,0.359951,9.88416385650635,0.70544087886810,0.45209339261055,0.67871087789536,0.49983179569244,-0.04000062867999
383,3310588320,0.626561,0.386501,-0.573141,0.359928,9.87812805175781,0.70204734802246,0.46447890996933,0.72340506315231,0.52786493301392,0.04757558926940
384,3310604987,0.626651,0.386458,-0.573100,0.359882,9.87616825103760,0.68693900108337,0.42153126001358,0.54227203130722,0.47077420353889,-0.03148441016674
385,3310621654,0.626736,0.386381,-0.573109,0.359803,9.86928749084473,0.68589484691620,0.43647596240044,0.20582365989685,0.23226875066757,0.11072369664907
386,3310638321,0.626777,0.386334,-0.573109,0.359782,9.87529563903809,0.70397984981537,0.44330281019211,0.67416471242905,0.18003167212009,0.32061976194382
387,3310654988,0.626785,0.386355,-0.573089,0.359777,9.90719985961914,0.74140602350235,0.47134318947792,1.18326842784882,0.01012982334942,0.15342007577419
388,3310671655,0.626843,0.386395,-0.573013,0.359755,9.90698337554932,0.70780801773071,0.48778644204140,1.21406757831573,0.35342964529991,-0.26486733555794
389,3310688322,0.626884,0.386422,-0.572947,0.359759,9.89214420318604,0.72825306653976,0.50425469875336,1.27136313915253,0.34709045290947,-0.03756742551923
390,3310704989,0.626770,0.386715,-0.572809,0.359861,9.84080600738525,0.72700816392899,0.29707801342010,3.37488317489624,-0.35004240274429,-0.47089591622353
391,3310721656,0.626854,0.386722,-0.572793,0.359734,9.96309852600098,0.69570463895798,0.65228950977325,0.47001868486404,-0.00033936827094,-0.48992615938187
392,3310738323,0.627041,0.386605,-0.572725,0.359641,9.75856304168701,0.71192300319672,0.26485222578049,-0.13343574106693,1.03317785263062,-0.25235551595688
393,3310754990,0.627125,0.386434,-0.572874,0.359442,9.81763648986816,0.66376775503159,0.40664428472519,-1.02299046516418,-0.46259734034538,0.32825234532356
394,3310771657,0.627073,0.386298,-0.573103,0.359314,9.85575485229492,0.72922283411026,0.45405629277229,-0.43866235017776,-1.23946905136108,1.05661356449127
395,3310788324,0.626914,0.386378,-0.573171,0.359398,9.96174430847168,0.70946806669235,0.47547522187233,1.96569788455963,-0.94307881593704,0.94617152214050
396,3310804991,0.626770,0.386620,-0.573095,0.359509,9.90158367156982,0.73705691099167,0.42598664760590,3.06051301956177,-0.58958512544632,0.01170500461012
397,3310821658,0.626660,0.386867,-0.573020,0.359555,9.89511966705322,0.72555375099182,0.46966698765755,2.80644750595093,-0.64154052734375,-0.37333714962006
398,3310838325,0.626615,0.387035,-0.572946,0.359570,9.89739131927490,0.74199783802032,0.49885895848274,2.07498741149902,-0.28547275066376,-0.35933980345726
399,3310854992,0.626610,0.387183,-0.572847,0.359576,9.86888694763184,0.71296381950378,0.44907251000404,1.99416613578796,0.01821062900126,-0.47715812921524
400,3310871659,0.626601,0.387348,-0.572744,0.359578,9.86497116088867,0.71837013959885,0.44382366538048,2.10127878189087,-0.03810529410839,-0.56068122386932
401,3310888326,0.626587,0.387495,-0.572650,0.359595,9.84354019165039,0.72591352462769,0.45220416784286,2.07581973075867,-0.00786950252950,-0.38737291097641
402,3310904993,0.626554,0.387600,-0.572588,0.359638,9.84735393524170,0.71813613176346,0.42369917035103,1.92284762859344,-0.05384429544210,0.01628967560828
403,3310921660,0.626540,0.387636,-0.572583,0.359631,9.84950160980225,0.75206029415131,0.44745388627052,1.28810107707977,-0.18408487737179,0.18243925273418
404,3310938327,0.626563,0.387655,-0.572567,0.359596,9.88249778747559,0.75088870525360,0.43990966677666,1.09266352653503,-0.02009956538677,0.00459747994319
405,3310954994,0.626571,0.387733,-0.572522,0.359569,9.90166378021240,0.75598132610321,0.46282926201820,1.42656350135803,-0.07544860988855,-0.22813872992992
406,3310971661,0.626616,0.387796,-0.572441,0.359553,9.90174007415771,0.74258327484131,0.45578140020370,1.35279881954193,0.27922967076302,-0.31438949704170
407,3310988328,0.626695,0.387796,-0.572389,0.359498,9.90604972839355,0.74400502443314,0.46905109286308,0.90292441844940,0.34960049390793,-0.23956197500229
408,3311004995,0.626815,0.387782,-0.572280,0.359478,9.90213489532471,0.74789470434189,0.40411481261253,0.87695318460464,0.88453465700150,-0.28849506378174
409,3311021662,0.626979,0.387754,-0.572178,0.359383,9.80243778228760,0.75305438041687,0.49155685305595,0.39671510457993,0.85458058118820,-0.64483171701431
410,3311038329,0.627145,0.387668,-0.572114,0.359289,9.81818103790283,0.70727545022964,0.38181561231613,0.09634217619896,0.84835666418076,-0.31500419974327
411,3311054996,0.627214,0.387594,-0.572149,0.359193,9.84333515167236,0.69776451587677,0.46339780092239,0.18498772382736,0.00738926418126,0.13006128370762
412,3311071663,0.627251,0.387681,-0.572015,0.359248,9.82819461822510,0.74649912118912,0.39803639054298,1.97827363014221,0.61902046203613,-0.21937917172909
413,3311088330,0.627243,0.387692,-0.572031,0.359223,9.90039253234863,0.76961869001389,0.47405290603638,1.02007687091827,-0.23486202955246,0.23935066163540
414,3311104997,0.627320,0.387632,-0.572021,0.359170,9.88341426849365,0.77405220270157,0.48841336369514,0.54817581176758,0.31462642550468,0.12610413134098
415,3311121664,0.627438,0.387521,-0.572017,0.359089,9.88372135162354,0.76464676856995,0.45910990238190,-0.00704989489168,0.49837189912796,0.11465524137020
416,3311138331,0.627578,0.387405,-0.571987,0.359019,9.87829685211182,0.77822196483612,0.47374379634857,0.06153450906277,0.74614912271500,0.06150889396667
417,3311154998,0.627697,0.387319,-0.571935,0.358987,9.85649108886719,0.75554966926575,0.46681642532349,0.46410211920738,0.77804976701736,0.09833995997906
418,3311171665,0.627798,0.387240,-0.571881,0.358980,9.83662986755371,0.73371088504791,0.45956149697304,0.60813510417938,0.76776629686356,0.21866844594479
419,3311188332,0.627868,0.387135,-0.571879,0.358976,9.82058811187744,0.70747226476669,0.45343232154846,0.43425050377846,0.48666688799858,0.54944360256195
420,3311204999,0.627917,0.387034,-0.571911,0.358946,9.83151626586914,0.73100894689560,0.44660750031471,0.35138064622879,0.18064637482166,0.56417089700699
421,3311221666,0.627938,0.386976,-0.571947,0.358914,9.85993289947510,0.76275855302811,0.45456096529961,0.67484343051910,-0.04796618223190,0.46580535173416
422,3311238333,0.627955,0.386948,-0.571966,0.358885,9.85572433471680,0.75805586576462,0.45776709914207,0.77748638391495,-0.06380764394999,0.32771453261375
423,3311255000,0.627944,0.386944,-0.571986,0.358875,9.87259006500244,0.75883942842484,0.45762512087822,0.96297341585159,-0.19329263269901,0.38223111629486
424,3311271667,0.627928,0.386953,-0.571996,0.358878,9.88139629364014,0.74418330192566,0.43677452206612,1.09189510345459,-0.16844832897186,0.36983460187912
425,3311288334,0.627873,0.386971,-0.572043,0.358882,9.87681007385254,0.76050561666489,0.47033038735390,1.12023544311523,-0.49785330891609,0.53772586584091
426,3311305001,0.627817,0.386976,-0.572101,0.358883,9.88785648345947,0.77881669998169,0.49649408459663,1.07330024242401,-0.52995878458023,0.60579156875610
427,3311321668,0.627791,0.386979,-0.572148,0.358848,9.87028789520264,0.75511068105698,0.48385435342789,0.90408986806870,-0.45036730170250,0.35816797614098
428,3311338335,0.627762,0.386972,-0.572210,0.358807,9.87206840515137,0.76105666160583,0.48406928777695,0.83529412746429,-0.51434785127640,0.41916459798813
429,3311355002,0.627748,0.386968,-0.572250,0.358772,9.86740684509277,0.75621539354324,0.45187225937843,0.89421612024307,-0.35013195872307,0.33483478426933
430,3311371669,0.627716,0.386982,-0.572281,0.358765,9.85302066802979,0.74239146709442,0.46139034628868,1.22012507915497,-0.35369214415550,0.40757489204407
431,3311388336,0.627669,0.387020,-0.572311,0.358758,9.85879707336426,0.73863536119461,0.46170383691788,1.24572479724884,-0.46723324060440,0.34400418400764
432,3311405003,0.627637,0.387026,-0.572362,0.358726,9.83654880523682,0.71874374151230,0.43795350193977,0.90857213735580,-0.49168062210083,0.39033755660057
433,3311421670,0.627572,0.387003,-0.572471,0.358691,9.85697650909424,0.72234332561493,0.43873879313469,0.73065352439880,-0.80489832162857,0.71120065450668
434,3311438337,0.627473,0.387009,-0.572572,0.358697,9.88917446136475,0.75875627994537,0.45309588313103,1.14347887039185,-0.86734211444855,0.85127651691437
435,3311455004,0.627384,0.387043,-0.572641,0.358705,9.87001800537109,0.74988776445389,0.46561053395271,1.37167537212372,-0.75746363401413,0.63288986682892
436,3311471671,0.627348,0.387050,-0.572698,0.358671,9.88312911987305,0.74266177415848,0.42815434932709,0.91534674167633,-0.53541433811188,0.39657422900200
437,3311488338,0.627248,0.387083,-0.572766,0.358700,9.87448501586914,0.76833564043045,0.47176477313042,1.41361618041992,-0.73465549945831,0.75588202476501
438,3311505005,0.626981,0.387413,-0.572781,0.358787,9.81147193908691,0.74119544029236,0.33060866594315,3.54878115653992,-1.73939073085785,0.09878820180893
439,3311521672,0.626942,0.387448,-0.572873,0.358670,9.97093963623047,0.74187731742859,0.62031936645508,0.69080013036728,-0.99139714241028,0.03546078503132
440,3311538339,0.627035,0.387247,-0.573021,0.358488,9.77110290527344,0.71815603971481,0.32135841250420,-1.09794604778290,-0.30447736382484,0.50063860416412
441,3311555006,0.626987,0.387129,-0.573220,0.358381,9.82671546936035,0.70614171028137,0.38483774662018,-0.18010209500790,-1.08314192295074,0.98789465427399
442,3311571673,0.626812,0.387086,-0.573497,0.358292,9.85147190093994,0.75477540493011,0.42599269747734,0.32384699583054,-2.05638623237610,1.28411841392517
443,3311588340,0.626569,0.387161,-0.573703,0.358305,9.94288349151611,0.71699482202530,0.45539495348930,1.62180900573730,-2.03968667984009,1.23759281635284
444,3311605007,0.626344,0.387315,-0.573796,0.358382,9.89954566955566,0.71665555238724,0.42929199337959,2.43699669837952,-1.50115370750427,0.85506713390350
445,3311621674,0.626146,0.387469,-0.573901,0.358393,9.91487407684326,0.73757189512253,0.47101268172264,2.11096024513245,-1.62216103076935,0.54175978899002
446,3311638341,0.626018,0.387566,-0.573973,0.358397,9.91621780395508,0.72555667161942,0.46521985530853,1.59235429763794,-1.09411668777466,0.46580535173416
447,3311655008,0.625957,0.387591,-0.574056,0.358345,9.89419269561768,0.73821187019348,0.42174234986305,0.95055133104324,-0.84298443794250,0.38499730825424
448,3311671675,0.625869,0.387682,-0.574084,0.358354,9.88319110870361,0.73243248462677,0.40436434745789,1.64136433601379,-0.71291029453278,0.29688963294029
449,3311688342,0.625744,0.387818,-0.574102,0.358397,9.85398864746094,0.72314220666885,0.38531175255775,2.09159708023071,-0.83559519052505,0.33420732617378
450,3311705009,0.625623,0.387898,-0.574150,0.358444,9.84164810180664,0.70989280939102,0.36923822760582,1.83422791957855,-0.79859763383865,0.64526081085205
451,3311721676,0.625525,0.387926,-0.574215,0.358482,9.86599445343018,0.72492933273315,0.37223255634308,1.47425425052643,-0.67509311437607,0.79821979999542
452,3311738343,0.625449,0.387942,-0.574294,0.358470,9.88919544219971,0.74074089527130,0.41866084933281,1.08848845958710,-0.75211054086685,0.61179769039154
453,3311755010,0.625386,0.387963,-0.574354,0.358461,9.89315700531006,0.76613849401474,0.42676582932472,1.09331655502319,-0.63285779953003,0.52563661336899
454,3311771677,0.625345,0.387970,-0.574408,0.358439,9.91846847534180,0.75810229778290,0.40476176142693,1.07981860637665,-0.51299035549164,0.45230746269226
455,3311788344,0.625316,0.387982,-0.574431,0.358440,9.90086174011230,0.72690570354462,0.40548676252365,1.16450691223145,-0.28261694312096,0.42134168744087
456,3311805011,0.625263,0.388074,-0.574386,0.358504,9.88402462005615,0.72078710794449,0.29731026291847,1.85934102535248,-0.12114166468382,0.25216981768608
457,3311821678,0.625287,0.388057,-0.574393,0.358471,9.85629081726074,0.78613030910492,0.48665997385979,0.82810986042023,-0.01726936548948,0.21259823441505
458,3311838345,0.625325,0.388025,-0.574408,0.358415,9.84322071075439,0.70252448320389,0.27658030390739,0.59975981712341,-0.02939697355032,0.16673865914345
459,3311855012,0.625286,0.388028,-0.574494,0.358342,9.87964153289795,0.69342344999313,0.46890300512314,0.68312907218933,-0.76861786842346,0.32867494225502
460,3311871679,0.625203,0.388169,-0.574436,0.358425,9.85486793518066,0.70071619749069,0.40110355615616,2.40160036087036,-0.24450522661209,0.17726549506187
461,3311888346,0.625106,0.388274,-0.574454,0.358452,9.89086532592773,0.70997232198715,0.40848448872566,1.81626045703888,-0.69754260778427,0.31855797767639
462,3311905013,0.625054,0.388263,-0.574515,0.358456,9.89609146118164,0.75230956077576,0.37933617830276,1.06251716613770,-0.47222769260406,0.68017083406448
463,3311921680,0.625062,0.388214,-0.574553,0.358435,9.89339637756348,0.76360070705414,0.41933956742287,0.66043621301651,-0.10910368710756,0.51713323593140
464,3311938347,0.625085,0.388152,-0.574590,0.358403,9.90969562530518,0.77510386705399,0.43758434057236,0.57372444868088,-0.03884806111455,0.47908553481102
465,3311955014,0.625117,0.388158,-0.574545,0.358412,9.87819480895996,0.74438965320587,0.42733380198479,1.07058525085449,0.27776971459389,0.14847680926323
466,3311971681,0.625140,0.388207,-0.574480,0.358425,9.86284828186035,0.72419536113739,0.43195039033890,1.44792437553406,0.23881281912327,-0.03713201358914
467,3311988348,0.625165,0.388197,-0.574449,0.358442,9.86712646484375,0.70875281095505,0.42773652076721,1.06839537620544,0.25606295466423,0.29951491951942
468,3312005015,0.625173,0.388130,-0.574491,0.358433,9.86653995513916,0.72873121500015,0.36283668875694,0.64486366510391,-0.05054025724530,0.64520949125290
469,3312021682,0.625189,0.388075,-0.574517,0.358423,9.86029052734375,0.74429881572723,0.37633377313614,0.69744658470154,0.01926074922085,0.53625303506851
470,3312038349,0.625224,0.388005,-0.574549,0.358387,9.86885833740234,0.73163855075836,0.38868337869644,0.49554175138474,0.03587058186531,0.45239710807800
471,3312055016,0.625225,0.387979,-0.574570,0.358379,9.86823272705078,0.71591621637344,0.36689412593842,0.89868569374084,-0.08577052503824,0.44954133033752
472,3312071683,0.625177,0.388047,-0.574553,0.358416,9.89800930023193,0.72992098331451,0.40023329854012,1.67591583728790,-0.22854854166508,0.29720979928970
473,3312088350,0.625130,0.388134,-0.574531,0.358440,9.87060356140137,0.72133797407150,0.38882374763489,1.75193417072296,-0.28670212626457,0.14847679436207
474,3312105017,0.625089,0.388143,-0.574557,0.358459,9.87790679931641,0.72558438777924,0.41819995641708,1.21764051914215,-0.29092827439308,0.54567861557007
475,3312121684,0.625076,0.388121,-0.574587,0.358459,9.87260055541992,0.75794917345047,0.38558474183083,0.96766054630280,-0.16614317893982,0.52687883377075
476,3312138351,0.625072,0.388137,-0.574584,0.358452,9.85335540771484,0.73646140098572,0.37404525279999,1.21041786670685,-0.10020329058170,0.23976050317287
477,3312155018,0.625050,0.388189,-0.574580,0.358441,9.86364650726318,0.72477710247040,0.37367936968803,1.35607719421387,-0.27060458064079,0.12137857079506
478,3312171685,0.625013,0.388237,-0.574586,0.358442,9.85739231109619,0.72260934114456,0.41297411918640,1.39352297782898,-0.32699093222618,0.25216981768608
479,3312188352,0.624979,0.388257,-0.574607,0.358446,9.88545894622803,0.72037708759308,0.41020348668098,1.27740776538849,-0.30269727110863,0.41022583842278
480,3312205019,0.624951,0.388253,-0.574615,0.358488,9.87171173095703,0.72560787200928,0.40546306967735,1.26446056365967,-0.06534440070391,0.61772710084915
481,3312221686,0.624928,0.388223,-0.574650,0.358503,9.87592983245850,0.72321254014969,0.38793978095055,1.03334450721741,-0.16997228562832,0.66751819849014
482,3312238353,0.624907,0.388210,-0.574676,0.358512,9.89623928070068,0.73057246208191,0.39669877290726,1.06224834918976,-0.17955143749714,0.53937786817551
483,3312255020,0.624889,0.388225,-0.574674,0.358531,9.88667488098145,0.73821270465851,0.39412680268288,1.20110762119293,-0.10029293596745,0.39303970336914
484,3312271687,0.624876,0.388245,-0.574660,0.358554,9.88307952880859,0.72085148096085,0.41332438588142,1.36770534515381,-0.01547647546977,0.34263390302658
485,3312288354,0.624869,0.388292,-0.574624,0.358573,9.84752082824707,0.70793074369431,0.37824228405952,1.49818921089172,0.01789046823978,0.15252362191677
486,3312305021,0.624865,0.388284,-0.574628,0.358584,9.86351871490479,0.73294866085052,0.35871291160583,1.11714911460876,-0.02253277413547,0.43033179640770
487,3312321688,0.624874,0.388274,-0.574642,0.358556,9.85331821441650,0.72090649604797,0.33990269899368,0.87339299917221,-0.11792727559805,0.26212039589882
488,3312338355,0.624855,0.388252,-0.574688,0.358539,9.87198257446289,0.72086769342422,0.39529296755791,0.84317004680634,-0.30838328599930,0.51712042093277
489,3312355022,0.624835,0.388246,-0.574704,0.358554,9.88766479492188,0.73340815305710,0.38937568664551,1.23702931404114,-0.13341014087200,0.51284307241440
490,3312371689,0.624810,0.388293,-0.574689,0.358571,9.88084983825684,0.71731477975845,0.38194262981415,1.50721776485443,-0.14329664409161,0.23296032845974
491,3312388356,0.624818,0.388294,-0.574687,0.358559,9.88313484191895,0.73594075441360,0.40886476635933,0.99694871902466,-0.04151178523898,0.25469267368317
492,3312405023,0.624687,0.388457,-0.574658,0.358658,9.84316444396973,0.70154982805252,0.20234589278698,2.57959604263306,-0.57545977830887,0.36230444908142
493,3312421690,0.624586,0.388539,-0.574777,0.358554,9.92494106292725,0.77263617515564,0.62826693058014,0.99094271659851,-1.43150019645691,0.12117369472980
494,3312438357,0.624675,0.388484,-0.574734,0.358529,9.85715293884277,0.67237341403961,0.29080417752266,0.63008522987366,0.55956071615219,0.10658726096153
495,3312455024,0.624721,0.388338,-0.574845,0.358428,9.85541915893555,0.71370011568069,0.34177097678185,-0.27995321154594,-0.24428750574589,0.66098690032959
496,3312471691,0.624682,0.388303,-0.574946,0.358371,9.83806800842285,0.70989030599594,0.34453055262566,0.56309515237808,-0.69344455003738,0.58920735120773
497,3312488358,0.624536,0.388307,-0.575086,0.358396,9.90053462982178,0.68902468681335,0.43400317430496,1.25654613971710,-1.16617822647095,1.15444111824036
498,3312505025,0.624367,0.388451,-0.575109,0.358500,9.89164543151855,0.72813934087753,0.36950337886810,2.49129605293274,-0.88970202207565,0.68475550413132
499,3312521692,0.624207,0.388634,-0.575145,0.358522,9.87618350982666,0.71734923124313,0.37726986408234,2.30226159095764,-1.22225713729858,0.18844544887543
500,3312538359,0.624109,0.388705,-0.575187,0.358547,9.89867401123047,0.74247324466705,0.41819536685944,1.60850286483765,-0.71927487850189,0.51439261436462
501,3312555026,0.624034,0.388780,-0.575209,0.358562,9.86749649047852,0.71564769744873,0.36362394690514,1.67343127727509,-0.57458889484406,0.34137886762619
502,3312571693,0.623955,0.388867,-0.575219,0.358590,9.86783313751221,0.73590326309204,0.37211981415749,1.72602689266205,-0.54300844669342,0.32644665241241
503,3312588360,0.623859,0.389013,-0.575202,0.358624,9.85232162475586,0.71716076135635,0.35289835929871,2.15997004508972,-0.61608147621155,0.09394738823175
504,3312605027,0.623773,0.389137,-0.575192,0.358656,9.87264728546143,0.70823836326599,0.37370952963829,1.97760760784149,-0.56316560506821,0.16609834134579
505,3312621694,0.623723,0.389181,-0.575202,0.358678,9.86960792541504,0.71141976118088,0.33860626816750,1.47996568679810,-0.32988515496254,0.39763712882996
506,3312638361,0.623702,0.389183,-0.575241,0.358650,9.87647342681885,0.71844762563705,0.34953632950783,0.96237152814865,-0.37041726708412,0.35445415973663
507,3312655028,0.623670,0.389205,-0.575281,0.358619,9.90156555175781,0.73744273185730,0.36903461813927,1.01749014854431,-0.48261371254921,0.29863128066063
508,3312671695,0.623624,0.389251,-0.575291,0.358633,9.90048217773438,0.73809534311295,0.39130991697311,1.39708292484283,-0.34497100114822,0.34573298692703
509,3312688362,0.623611,0.389280,-0.575284,0.358634,9.88408470153809,0.73146986961365,0.37623852491379,1.27827870845795,-0.13476762175560,0.23920981585979
510,3312705029,0.623628,0.389293,-0.575260,0.358629,9.88532924652100,0.72198373079300,0.38633531332016,1.21468245983124,0.08695512264967,0.15028251707554
511,3312721696,0.623614,0.389375,-0.575208,0.358648,9.84834861755371,0.68563365936279,0.29175055027008,1.75861930847168,-0.02011237293482,-0.01885735057294
512,3312738363,0.623617,0.389387,-0.575167,0.358695,9.84401893615723,0.75292760133743,0.37116882205009,1.46412444114685,0.24360238015652,0.37050053477287
513,3312755030,0.623627,0.389351,-0.575231,0.358615,9.85629272460938,0.71982234716415,0.39954832196236,0.52582871913910,-0.40243318676949,0.27838444709778
514,3312771697,0.623605,0.389356,-0.575236,0.358639,9.89970874786377,0.70517945289612,0.36456644535065,1.17963147163391,-0.09947332739830,0.47948259115219
515,3312788364,0.623540,0.389460,-0.575216,0.358671,9.86144733428955,0.74170303344727,0.35206180810928,1.92227113246918,-0.38118734955788,0.16621357202530
516,3312805031,0.623491,0.389531,-0.575216,0.358679,9.88559818267822,0.73338180780411,0.37474453449249,1.64149248600006,-0.39001101255417,0.20372343063354
517,3312821698,0.623468,0.389536,-0.575255,0.358652,9.88570594787598,0.75580024719238,0.34753555059433,1.00556743144989,-0.37769126892090,0.35542744398117
518,3312838365,0.623475,0.389510,-0.575288,0.358615,9.88278102874756,0.73055142164230,0.36542731523514,0.64541435241699,-0.20325596630573,0.34396570920944
519,3312855032,0.623484,0.389486,-0.575307,0.358595,9.87849140167236,0.74044185876846,0.35966703295708,0.84952199459076,-0.07699817419052,0.37281847000122
520,3312871699,0.623511,0.389480,-0.575291,0.358580,9.87131404876709,0.73456460237503,0.37380644679070,1.07094383239746,0.11115910857916,0.17907117307186
521,3312888366,0.623536,0.389451,-0.575272,0.358599,9.87252426147461,0.69561880826950,0.36618143320084,0.95658302307129,0.25649836659431,0.41455435752869
522,3312905033,0.623559,0.389395,-0.575300,0.358574,9.86142730712891,0.68381023406982,0.37178927659988,0.64761710166931,-0.00172245397698,0.46392273902893
523,3312921700,0.623559,0.389344,-0.575344,0.358560,9.88595581054688,0.68854677677155,0.34654274582863,0.67449754476547,-0.14296367764473,0.58975797891617
524,3312938367,0.623559,0.389273,-0.575403,0.358541,9.88609027862549,0.73426228761673,0.35208436846733,0.62249106168747,-0.16744941473007,0.68825167417526
525,3312955034,0.623574,0.389245,-0.575424,0.358513,9.88321781158447,0.74290639162064,0.35663360357285,0.84217113256454,-0.07893193513155,0.33848461508751
526,3312971701,0.623585,0.389214,-0.575447,0.358488,9.88429164886475,0.74207258224487,0.36642220616341,0.84911215305328,-0.08328609168530,0.38685420155525
527,3312988368,0.623580,0.389209,-0.575452,0.358497,9.87422180175781,0.72661101818085,0.34122517704964,1.08264875411987,-0.04776128008962,0.41236442327499
528,3313005035,0.623551,0.389253,-0.575468,0.358472,9.87751102447510,0.70270824432373,0.35922744870186,1.24692869186401,-0.39934679865837,0.16101422905922
529,3313021702,0.623530,0.389258,-0.575485,0.358477,9.87109756469727,0.72578519582748,0.36221221089363,1.16060113906860,-0.19846642017365,0.43089526891708
530,3313038369,0.623541,0.389238,-0.575514,0.358433,9.86614799499512,0.72885984182358,0.36886844038963,0.80863130092621,-0.18536549806595,0.27144336700439
531,3313055036,0.623546,0.389202,-0.575549,0.358406,9.86575126647949,0.74971652030945,0.35380601882935,0.70053303241730,-0.15863867104053,0.44105070829391
532,3313071703,0.623555,0.389199,-0.575549,0.358394,9.88502216339111,0.72096866369247,0.38224902749062,1.00692486763000,-0.03075444698334,0.26829302310944
533,3313088370,0.623557,0.389228,-0.575530,0.358390,9.87436103820801,0.71138870716095,0.37828761339188,1.20945715904236,-0.03880963847041,0.14168944954872
534,3313105037,0.623559,0.389248,-0.575521,0.358379,9.87510967254639,0.70798635482788,0.34951716661453,1.12119579315186,-0.07985398918390,0.17858454585075
535,3313121704,0.623565,0.389234,-0.575528,0.358372,9.87086296081543,0.71919417381287,0.35437378287315,0.97296237945557,-0.03376394510269,0.36022982001305
536,3313138371,0.623551,0.389210,-0.575553,0.358382,9.87551307678223,0.72699272632599,0.35388869047165,0.99343973398209,-0.11970735341311,0.56578451395035
537,3313155038,0.623544,0.389198,-0.575566,0.358389,9.88596153259277,0.73028802871704,0.38722300529480,1.07296717166901,-0.07419358193874,0.46195062994957
538,3313171705,0.623557,0.389166,-0.575576,0.358385,9.86744880676270,0.73690551519394,0.39002051949501,0.89144992828369,0.03324528411031,0.43156117200851
539,3313188372,0.623576,0.389155,-0.575576,0.358363,9.86845397949219,0.73761546611786,0.35699075460434,0.96954321861267,0.00535305449739,0.23520143330097
540,3313205039,0.623611,0.389137,-0.575579,0.358317,9.87917613983154,0.72353470325470,0.35587185621262,0.73158830404282,0.00495605729520,0.12957464158535
541,3313221706,0.623662,0.389115,-0.575583,0.358246,9.87119007110596,0.70536756515503,0.35524260997772,0.45634144544601,-0.00356656825170,-0.00770301930606
542,3313238373,0.623714,0.389030,-0.575627,0.358176,9.87868213653564,0.70655125379562,0.37825188040733,0.14158697426319,-0.00781827606261,0.35430043935776
543,3313255040,0.623764,0.388950,-0.575669,0.358110,9.89168262481689,0.73648059368134,0.37791514396667,0.28220072388649,-0.00031375556136,0.35990965366364
544,3313271707,0.623804,0.388913,-0.575666,0.358083,9.90469932556152,0.73030084371567,0.35331854224205,0.76752299070358,0.15056425333023,0.25348886847496
545,3313288374,0.623878,0.388866,-0.575636,0.358053,9.88648986816406,0.73246091604233,0.37695011496544,0.60243630409241,0.40817680954933,0.12463138252497
546,3313305041,0.623833,0.388945,-0.575600,0.358105,9.87072086334229,0.69014769792557,0.22119198739529,1.74289309978485,-0.12917125225067,0.25660085678101
547,3313321708,0.623744,0.389061,-0.575634,0.358078,9.87347602844238,0.79102510213852,0.49742892384529,1.65684700012207,-0.89387679100037,0.06451839208603
548,3313338375,0.623864,0.389041,-0.575526,0.358065,9.90917110443115,0.67605566978455,0.32508876919746,0.92659074068069,0.91048026084900,-0.23226237297058
549,3313355042,0.623969,0.388860,-0.575591,0.357975,9.84160900115967,0.71151882410049,0.31195652484894,-0.51826655864716,0.29299646615982,0.57719498872757
550,3313371709,0.624004,0.388848,-0.575549,0.357995,9.81441020965576,0.71410679817200,0.30610620975494,1.04297471046448,0.35463342070580,0.26373395323753
551,3313388376,0.623900,0.388888,-0.575594,0.358060,9.88524818420410,0.71612709760666,0.32111945748329,1.71339976787567,-0.57220679521561,0.82846820354462
552,3313405043,0.623760,0.389031,-0.575558,0.358205,9.90810489654541,0.73502963781357,0.33351787924767,2.81743526458740,-0.39626047015190,0.63317155838013
553,3313421710,0.623588,0.389261,-0.575518,0.358320,9.86019706726074,0.71234011650085,0.33632016181946,3.10869026184082,-0.81250524520874,0.23294749855995
554,3313438377,0.623458,0.389427,-0.575516,0.358369,9.90840721130371,0.76891165971756,0.36074537038803,2.40696644783020,-0.82322418689728,0.20107249915600
555,3313455044,0.623423,0.389505,-0.575486,0.358392,9.91425514221191,0.75164729356766,0.35870248079300,1.71292614936829,-0.18120346963406,0.12226223200560
556,3313471711,0.623426,0.389536,-0.575461,0.358393,9.89007854461670,0.72975367307663,0.33049654960632,1.25538086891174,0.00069154292578,0.14047285914421
557,3313488378,0.623403,0.389611,-0.575434,0.358396,9.87242603302002,0.70980012416840,0.32136067748070,1.63644659519196,-0.19012947380543,0.03068401478231
558,3313505045,0.623384,0.389690,-0.575364,0.358456,9.91799545288086,0.70949947834015,0.39551603794098,1.89726078510284,0.14961658418179,0.13678461313248
559,3313521712,0.623425,0.389670,-0.575319,0.358479,9.87818717956543,0.71502089500427,0.33550044894218,1.06667935848236,0.41846030950546,0.28409606218338
560,3313538379,0.623529,0.389561,-0.575333,0.358395,9.88248729705811,0.71137559413910,0.36873558163643,0.02096399292350,0.35561951994896,0.18510296940804
561,3313555046,0.623639,0.389393,-0.575381,0.358307,9.88876342773438,0.75224447250366,0.35458809137344,-0.36573010683060,0.36355948448181,0.47794574499130
562,3313571713,0.623721,0.389262,-0.575404,0.358271,9.91171264648438,0.75425070524216,0.38270783424377,0.14882257580757,0.41269743442535,0.55067300796509
563,3313588380,0.623803,0.389168,-0.575385,0.358260,9.89381694793701,0.73332631587982,0.36260595917702,0.46625357866287,0.56253170967102,0.40774136781693
564,3313605047,0.623909,0.389077,-0.575333,0.358258,9.90538120269775,0.72481203079224,0.39544838666916,0.54759949445724,0.82232129573822,0.28194457292557
565,3313621714,0.623995,0.389059,-0.575237,0.358281,9.86349105834961,0.69519072771072,0.26487678289413,1.10923480987549,0.81217867136002,0.02548463642597
566,3313638381,0.624145,0.388962,-0.575150,0.358266,9.84491825103760,0.75105702877045,0.40517652034760,0.50427561998367,1.12793207168579,0.05341528728604
567,3313655048,0.624263,0.388822,-0.575175,0.358172,9.85662364959717,0.69591891765594,0.38385197520256,-0.26603269577026,0.40971350669861,0.25722834467888
568,3313671715,0.624388,0.388673,-0.575123,0.358198,9.93037700653076,0.68440240621567,0.44544145464897,0.35797590017319,1.11102771759033,0.58751684427261
569,3313688382,0.624455,0.388631,-0.575045,0.358253,9.85910415649414,0.71906095743179,0.34071120619774,1.14807629585266,0.80366241931915,0.35390344262123
570,3313705049,0.624505,0.388637,-0.574947,0.358317,9.87968254089355,0.72488993406296,0.39102590084076,1.42984175682068,0.73135781288147,0.19522000849247
571,3313721716,0.624571,0.388546,-0.574923,0.358340,9.87055301666260,0.76019722223282,0.39940050244331,0.73363727331161,0.60708498954773,0.56618148088455
572,3313738383,0.624676,0.388408,-0.574917,0.358316,9.86538982391357,0.74717116355896,0.38259020447731,0.17154105007648,0.67728942632675,0.49939638376236
573,3313755050,0.624801,0.388294,-0.574875,0.358290,9.85728740692139,0.73937064409256,0.40511199831963,0.19816544651985,0.83895665407181,0.24702166020870
574,3313771717,0.624924,0.388212,-0.574812,0.358263,9.87434482574463,0.75577479600906,0.42830106616020,0.51542997360229,0.84844624996185,0.07110085338354
575,3313788384,0.625071,0.388123,-0.574730,0.358235,9.86582183837891,0.73052680492401,0.42613449692726,0.40056979656219,1.03212773799896,-0.01560453604907
576,3313805051,0.625214,0.387977,-0.574695,0.358199,9.86209964752197,0.68321764469147,0.40345928072929,-0.03704236447811,0.93103438615799,0.29974541068077
577,3313821718,0.625358,0.387793,-0.574701,0.358138,9.86898136138916,0.70839357376099,0.39064219594002,-0.28344932198524,0.79558163881302,0.46238604187965
578,3313838385,0.625474,0.387633,-0.574711,0.358093,9.88774871826172,0.73444569110870,0.40877479314804,-0.10818163305521,0.64702796936035,0.51058912277222
579,3313855052,0.625586,0.387545,-0.574672,0.358055,9.88076400756836,0.72211492061615,0.40073192119598,0.36063960194588,0.68252724409103,0.13088089227676
580,3313871719,0.625675,0.387503,-0.574636,0.358002,9.87719535827637,0.70532149076462,0.40097504854202,0.59488052129745,0.42787289619446,-0.04179351776838
581,3313888386,0.625730,0.387512,-0.574581,0.357986,9.87041854858398,0.71473234891891,0.37159973382950,1.13364374637604,0.35131660103798,-0.05120619013906
582,3313905053,0.625738,0.387573,-0.574534,0.357981,9.88416194915771,0.70189321041107,0.38100236654282,1.39885044097900,0.02689333260059,-0.07953383028507
583,3313921720,0.625762,0.387591,-0.574501,0.357973,9.87156200408936,0.73375880718231,0.44132685661316,1.14750015735626,0.12646269798279,0.07517327368259
584,3313938387,0.625817,0.387557,-0.574468,0.357966,9.88986301422119,0.73395979404449,0.40502184629440,0.88790261745453,0.38002842664719,0.21769513189793
585,3313955054,0.625898,0.387515,-0.574409,0.357963,9.86834239959717,0.74311506748199,0.37222501635551,0.91128706932068,0.63228785991669,0.12652672827244
586,3313971721,0.625956,0.387498,-0.574361,0.357957,9.85229682922363,0.72314703464508,0.36657240986824,0.93122649192810,0.41691070795059,0.10236115753651
587,3313988388,0.626002,0.387480,-0.574320,0.357963,9.86290073394775,0.73944139480591,0.40162280201912,0.97373080253601,0.36964246630669,0.19907470047474
588,3314005055,0.626040,0.387481,-0.574265,0.357984,9.88748836517334,0.73362320661545,0.43138036131859,1.19690704345703,0.39853364229202,0.17830280959606
589,3314021722,0.626099,0.387486,-0.574186,0.358002,9.90270137786865,0.72443842887878,0.44012698531151,1.25211536884308,0.56331294775009,0.03665177524090
590,3314038389,0.626183,0.387448,-0.574106,0.358024,9.90328788757324,0.72120082378387,0.42445120215416,0.99364471435547,0.79491579532623,0.15480317175388
591,3314055056,0.626299,0.387390,-0.574005,0.358045,9.88239479064941,0.71930193901062,0.39277765154839,0.89800679683685,1.04553592205048,0.09533046185970
592,3314071723,0.626431,0.387334,-0.573916,0.358018,9.85732841491699,0.72399437427521,0.39606332778931,0.62104392051697,0.92747426033020,-0.12798024713993
593,3314088390,0.626543,0.387255,-0.573853,0.358010,9.86643314361572,0.74372208118439,0.43914729356766,0.61898207664490,0.84459155797958,0.16927433013916
594,3314105057,0.626630,0.387215,-0.573766,0.358040,9.87079620361328,0.76994794607162,0.42380702495575,1.03298580646515,0.85041856765747,0.16867244243622
595,3314121724,0.626725,0.387205,-0.573654,0.358063,9.89560413360596,0.75447946786880,0.44432535767555,1.14118659496307,0.90111881494522,-0.06282154470682
596,3314138391,0.626861,0.387184,-0.573515,0.358071,9.85604763031006,0.77316349744797,0.47527021169662,0.90863621234894,1.16311109066010,-0.26156330108643
597,3314155058,0.626873,0.387258,-0.573388,0.358174,9.88836669921875,0.74655920267105,0.34226897358894,2.12959361076355,0.64558088779449,0.11692198365927
598,3314171725,0.626849,0.387439,-0.573309,0.358144,9.82471370697021,0.75625348091125,0.51725232601166,2.09971642494202,-0.31907662749290,-0.65775340795517
599,3314188392,0.626991,0.387440,-0.573141,0.358165,9.92527770996094,0.70860391855240,0.43595376610756,1.25775003433228,1.29377424716949,-0.37835717201233
600,3314205059,0.627162,0.387225,-0.573221,0.357971,9.76174640655518,0.69438457489014,0.36128562688828,-1.26459503173828,0.29658225178719,0.13341654837132
601,3314221726,0.627218,0.387067,-0.573319,0.357885,9.81558418273926,0.72595220804214,0.41943943500519,-0.39759233593941,-0.08772989362478,0.69941878318787
602,3314238393,0.627164,0.386922,-0.573490,0.357864,9.90744113922119,0.74251013994217,0.45678818225861,0.09444682300091,-0.69211274385452,1.39742887020111
603,3314255060,0.627076,0.386961,-0.573481,0.357989,9.93454360961914,0.77461469173431,0.41269549727440,2.11569881439209,-0.10742606967688,0.91204261779785
604,3314271727,0.626986,0.387145,-0.573379,0.358111,9.88161945343018,0.74952733516693,0.42761799693108,2.89400458335876,-0.08660294115543,0.08278024941683
605,3314288394,0.626941,0.387333,-0.573265,0.358171,9.90244293212891,0.73144972324371,0.46905344724655,2.40808057785034,-0.04277961328626,-0.34564977884293
606,3314305061,0.626967,0.387439,-0.573146,0.358200,9.88076114654541,0.74363040924072,0.45702484250069,1.91960763931274,0.39134919643402,-0.34527838230133
607,3314321728,0.626985,0.387494,-0.573067,0.358236,9.86820030212402,0.73129338026047,0.41028350591660,1.63268148899078,0.33179974555969,0.01983703486621
608,3314338395,0.626969,0.387581,-0.572977,0.358314,9.85053062438965,0.73919445276260,0.42259654402733,2.02121329307556,0.27478581666946,0.12151944637299
609,3314355062,0.626940,0.387636,-0.572913,0.358408,9.85365772247314,0.71968412399292,0.44229874014854,1.96149742603302,0.23543192446232,0.42481219768524
610,3314371729,0.626918,0.387650,-0.572883,0.358477,9.84005069732666,0.73659688234329,0.41195908188820,1.53788888454437,0.14463491737843,0.54343748092651
611,3314388396,0.626937,0.387599,-0.572889,0.358490,9.87070274353027,0.75987058877945,0.42656347155571,0.86272531747818,0.16416458785534,0.55600047111511
612,3314405063,0.626974,0.387558,-0.572884,0.358478,9.90095043182373,0.77243876457214,0.45112553238869,0.78456819057465,0.19524560868740,0.33413049578667
613,3314421730,0.627011,0.387539,-0.572852,0.358485,9.89330673217773,0.77994412183762,0.43867933750153,1.03712224960327,0.30937582254410,0.26133918762207
614,3314438397,0.627069,0.387507,-0.572804,0.358495,9.89072704315186,0.76882493495941,0.47934630513191,0.97408938407898,0.49777001142502,0.22710779309273
615,3314455064,0.627153,0.387472,-0.572721,0.358519,9.89122104644775,0.72741687297821,0.43457567691803,1.01733648777008,0.79405778646469,0.14720900356770
616,3314471731,0.627210,0.387491,-0.572614,0.358568,9.84416866302490,0.72072273492813,0.34486880898476,1.48875093460083,0.72847634553909,0.04048087075353
617,3314488398,0.627369,0.387370,-0.572562,0.358503,9.81479263305664,0.75458276271820,0.46544077992439,0.03425698727369,0.93289124965668,-0.00278538116254
618,3314505065,0.627451,0.387244,-0.572597,0.358441,9.79438018798828,0.67249506711960,0.33709329366684,0.04208166152239,0.27988275885582,0.45426681637764
619,3314521732,0.627426,0.387193,-0.572656,0.358445,9.86953163146973,0.71158194541931,0.44161707162857,0.77822905778885,-0.26406049728394,0.76026177406311
620,3314538399,0.627341,0.387255,-0.572689,0.358474,9.83685207366943,0.75376218557358,0.42575848102570,1.59605550765991,-0.59618043899536,0.51156252622604
621,3314555066,0.627283,0.387246,-0.572759,0.358475,9.89689254760742,0.76993155479431,0.50662893056870,1.04170691967010,-0.54810541868210,0.69831752777100
622,3314571733,0.627277,0.387197,-0.572812,0.358454,9.88544368743896,0.78238523006439,0.44248482584953,0.57267439365387,-0.23920339345932,0.59027022123337
623,3314588400,0.627339,0.387106,-0.572860,0.358367,9.89472293853760,0.76333075761795,0.44598859548569,0.06906464695930,-0.01449038460851,0.28573524951935
624,3314605067,0.627395,0.387048,-0.572877,0.358302,9.87819576263428,0.77107679843903,0.45817652344704,0.42305773496628,0.07557027041912,0.18963640928268
625,3314621734,0.627428,0.387012,-0.572882,0.358276,9.86710643768311,0.72840982675552,0.48155125975609,0.83706158399582,0.08868397772312,0.29016631841660
626,3314638401,0.627437,0.386971,-0.572901,0.358275,9.85356330871582,0.69945889711380,0.48887264728546,0.87364923954010,0.01336983032525,0.51972007751465
627,3314655068,0.627460,0.386846,-0.572987,0.358231,9.86499309539795,0.71484452486038,0.46580457687378,0.17645868659019,-0.12447131425142,0.80898988246918
628,3314671735,0.627474,0.386751,-0.573059,0.358195,9.85469913482666,0.72993952035904,0.43751704692841,0.28417289257050,-0.17040768265724,0.70665442943573
629,3314688402,0.627462,0.386681,-0.573137,0.358167,9.86918163299561,0.75997120141983,0.42939957976341,0.56901174783707,-0.32204768061638,0.72304648160934
630,3314705069,0.627429,0.386663,-0.573204,0.358138,9.87380218505859,0.75355392694473,0.45563417673111,0.81100052595139,-0.49526634812355,0.53557437658310
631,3314721736,0.627373,0.386701,-0.573238,0.358138,9.87478542327881,0.74770879745483,0.43420907855034,1.31475114822388,-0.50426918268204,0.40786945819855
632,3314738403,0.627308,0.386758,-0.573264,0.358150,9.89922618865967,0.72984749078751,0.41345620155334,1.41850805282593,-0.52912640571594,0.38128346204758
633,3314755070,0.627248,0.386794,-0.573321,0.358126,9.87251758575439,0.72467696666718,0.45024460554123,1.21465659141541,-0.66981691122055,0.38803237676620
634,3314771737,0.627197,0.386800,-0.573400,0.358082,9.87759494781494,0.73879164457321,0.45522645115852,1.02146017551422,-0.70763415098190,0.45890274643898
635,3314788404,0.627162,0.386785,-0.573477,0.358035,9.85730552673340,0.74945986270905,0.42354077100754,0.75133568048477,-0.60602843761444,0.47702372074127
636,3314805071,0.627123,0.386804,-0.573533,0.357993,9.86244010925293,0.74881148338318,0.44491517543793,0.98412960767746,-0.59623163938522,0.31647050380707
637,3314821738,0.627083,0.386827,-0.573578,0.357967,9.86059093475342,0.75148212909698,0.42488318681717,1.11567640304565,-0.51976490020752,0.34998473525047
638,3314838405,0.627027,0.386871,-0.573619,0.357952,9.86216926574707,0.73979216814041,0.42418429255486,1.31105005741119,-0.58333563804626,0.34148129820824
639,3314855072,0.627002,0.386906,-0.573645,0.357917,9.86530113220215,0.72711861133575,0.40967866778374,1.10101318359375,-0.43690785765648,0.17467862367630
640,3314871739,0.626975,0.386915,-0.573710,0.357850,9.85050773620605,0.71186077594757,0.40251949429512,0.77378523349762,-0.62754321098328,0.24690642952919
641,3314888406,0.626898,0.386913,-0.573801,0.357842,9.87145900726318,0.76480394601822,0.42377573251724,0.90846967697144,-0.76312404870987,0.72766965627670
642,3314905073,0.626830,0.386947,-0.573861,0.357827,9.90176391601562,0.75722366571426,0.42296418547630,1.21344006061554,-0.69893854856491,0.46120789647102
643,3314921740,0.626809,0.386975,-0.573867,0.357823,9.89997100830078,0.75744646787643,0.45087245106697,1.23455786705017,-0.22632023692131,0.26945841312408
644,3314938407,0.626789,0.387016,-0.573881,0.357791,9.87779808044434,0.76260727643967,0.46643242239952,1.18111681938171,-0.37194120883942,0.11698599904776
645,3314955074,0.626568,0.387362,-0.573823,0.357899,9.82026958465576,0.71248102188110,0.22945883870125,3.77458238601685,-1.22348690032959,-0.17919288575649
646,3314971741,0.626491,0.387443,-0.573931,0.357770,9.97391700744629,0.73179471492767,0.66910034418106,0.83512765169144,-1.35741543769836,-0.06553649902344
647,3314988408,0.626590,0.387323,-0.573967,0.357670,9.78805446624756,0.71411877870560,0.25844913721085,-0.19263952970505,0.22176754474640,0.22485388815403
648,3315005075,0.626603,0.387153,-0.574157,0.357527,9.85372257232666,0.69299948215485,0.36493316292763,-0.69372636079788,-0.77534127235413,0.85913962125778
649,3315021742,0.626494,0.387078,-0.574386,0.357431,9.85742378234863,0.74579387903214,0.39199584722519,0.10073474794626,-1.52588295936584,1.08990991115570
650,3315038409,0.626309,0.387128,-0.574541,0.357451,9.92416095733643,0.71766293048859,0.43539577722549,1.47247409820557,-1.51608622074127,1.08837330341339
651,3315055076,0.626145,0.387292,-0.574567,0.357520,9.89737415313721,0.72568130493164,0.39784002304077,2.41338253021240,-1.02446317672729,0.44560977816582
652,3315071743,0.625998,0.387458,-0.574602,0.357541,9.88163185119629,0.73450154066086,0.42857521772385,2.21327042579651,-1.12624800205231,0.22093515098095
653,3315088410,0.625900,0.387566,-0.574633,0.357547,9.91588592529297,0.73057460784912,0.44830775260925,1.67761874198914,-0.81883150339127,0.25378340482712
654,3315105077,0.625870,0.387589,-0.574664,0.357524,9.89008426666260,0.74445861577988,0.41354468464851,1.11114299297333,-0.41585421562195,0.29791411757469
655,3315121744,0.625819,0.387651,-0.574680,0.357519,9.86248779296875,0.74096304178238,0.38179433345795,1.46446990966797,-0.47372606396675,0.22954098880291
656,3315138411,0.625726,0.387770,-0.574677,0.357557,9.85690307617188,0.73343175649643,0.37863281369209,1.97920846939087,-0.59222316741943,0.24629171192646
657,3315155078,0.625630,0.387855,-0.574680,0.357629,9.83818626403809,0.70658504962921,0.36980789899826,1.94460570812225,-0.45310780405998,0.54306608438492
658,3315171745,0.625551,0.387900,-0.574717,0.357660,9.84689712524414,0.73618572950363,0.38505035638809,1.51449191570282,-0.54419946670532,0.58531421422958
659,3315188412,0.625492,0.387931,-0.574765,0.357652,9.86835479736328,0.75394856929779,0.36377051472664,1.19506299495697,-0.57971143722534,0.44481572508812
660,3315205079,0.625425,0.387964,-0.574832,0.357625,9.87415313720703,0.75843340158463,0.39429947733879,1.18435680866241,-0.75213617086411,0.42624658346176
661,3315221746,0.625365,0.388000,-0.574866,0.357637,9.89745521545410,0.75952875614166,0.42489588260651,1.39018046855927,-0.48234477639198,0.47803539037704
662,3315238413,0.625343,0.388027,-0.574867,0.357643,9.92280483245850,0.76385444402695,0.43612635135651,1.31836235523224,-0.18016612529755,0.30922213196754
663,3315255080,0.625318,0.388126,-0.574784,0.357715,9.88550376892090,0.72754096984863,0.31074848771095,1.98956906795502,0.15654481947422,0.08071842044592
664,3315271747,0.625330,0.388170,-0.574748,0.357703,9.85357952117920,0.77876150608063,0.49129560589790,1.33736717700958,0.02311546169221,-0.01204437296838
665,3315288414,0.625351,0.388192,-0.574727,0.357677,9.79871463775635,0.72360235452652,0.24901451170444,1.09986042976379,0.00769661599770,0.02168114855886
666,3315305081,0.625283,0.388214,-0.574833,0.357601,9.88251686096191,0.71829181909561,0.44768369197845,0.77393901348114,-1.02651226520538,0.36656901240349
667,3315321748,0.625197,0.388341,-0.574787,0.357687,9.87844753265381,0.74317604303360,0.40347111225128,2.40636444091797,-0.26281830668449,0.29215127229691
668,3315338415,0.625091,0.388467,-0.574773,0.357758,9.89732265472412,0.72725057601929,0.43057078123093,2.19475245475769,-0.51980334520340,0.35780945420265
669,3315355082,0.625055,0.388529,-0.574753,0.357787,9.88249111175537,0.75813031196594,0.39567741751671,1.63811135292053,-0.17658036947250,0.24484460055828
670,3315371749,0.625079,0.388484,-0.574785,0.357742,9.88811683654785,0.75354623794556,0.34790417551994,0.65556985139847,-0.08903614431620,0.34232652187347
671,3315388416,0.625112,0.388412,-0.574824,0.357700,9.89316272735596,0.77379113435745,0.39603993296623,0.45623892545700,-0.01615520939231,0.45901790261269
672,3315405083,0.625134,0.388391,-0.574815,0.357697,9.87631034851074,0.76332628726959,0.40478813648224,0.92299199104309,0.12505400180817,0.32557579874992
673,3315421750,0.625154,0.388399,-0.574787,0.357697,9.85567760467529,0.72891283035278,0.38109719753265,1.15527355670929,0.13841103017330,0.17241187393665
674,3315438417,0.625182,0.388371,-0.574793,0.357671,9.87153720855713,0.71262198686600,0.40032234787941,0.81654566526413,0.04505273699760,0.27773129940033
675,3315455084,0.625182,0.388304,-0.574857,0.357641,9.87191486358643,0.72406417131424,0.37942633032799,0.58423846960068,-0.23636040091515,0.64050960540771
676,3315471751,0.625189,0.388246,-0.574906,0.357613,9.86416912078857,0.74755603075027,0.37292310595512,0.62388694286346,-0.15256844460964,0.54913628101349
677,3315488418,0.625215,0.388166,-0.574960,0.357569,9.87017154693604,0.73597288131714,0.39325335621834,0.48764020204544,-0.08708957582712,0.54228484630585
678,3315505085,0.625229,0.388121,-0.574974,0.357569,9.88551425933838,0.73834562301636,0.39734962582588,0.80211281776428,0.06331458687782,0.50763082504272
679,3315521752,0.625214,0.388143,-0.574975,0.357570,9.88192749023438,0.72089934349060,0.38121369481087,1.25570106506348,-0.15781906247139,0.28928261995316
680,3315538419,0.625184,0.388169,-0.574976,0.357592,9.86979961395264,0.73124307394028,0.35230141878128,1.39772343635559,-0.17195726931095,0.39949411153793
681,3315555086,0.625150,0.388190,-0.574994,0.357601,9.88620185852051,0.74610179662704,0.38431707024574,1.23737514019012,-0.28202781081200,0.41889569163322
682,3315571753,0.625138,0.388174,-0.575025,0.357589,9.86680316925049,0.75277119874954,0.36210501194000,0.96848016977310,-0.21298879384995,0.45658475160599
683,3315588420,0.625133,0.388169,-0.575043,0.357575,9.87248420715332,0.74683070182800,0.37922817468643,0.91396349668503,-0.17066381871700,0.34413221478462
684,3315605087,0.625123,0.388187,-0.575050,0.357560,9.86686229705811,0.74564439058304,0.38173651695251,1.08222615718842,-0.19792853295803,0.24312853813171
685,3315621754,0.625113,0.388207,-0.575053,0.357551,9.88052845001221,0.75123673677444,0.35702517628670,1.21013605594635,-0.17036926746368,0.24616365134716
686,3315638421,0.625096,0.388224,-0.575053,0.357563,9.86810874938965,0.73903930187225,0.38135376572609,1.33055400848389,-0.11185705661774,0.35737401247025
687,3315655088,0.625086,0.388239,-0.575050,0.357569,9.87521457672119,0.72592586278915,0.36708104610443,1.16986000537872,-0.09568265080452,0.31310245394707
688,3315671755,0.625081,0.388239,-0.575050,0.357578,9.88112068176270,0.74164253473282,0.40439814329147,1.13520610332489,-0.03596663847566,0.37977233529091
689,3315688422,0.625085,0.388234,-0.575051,0.357573,9.89573097229004,0.73912644386292,0.38818448781967,1.00437629222870,-0.04007747024298,0.32033801078796
690,3315705089,0.625096,0.388238,-0.575035,0.357576,9.86725616455078,0.72249865531921,0.39482271671295,1.11662399768829,0.06923112273216,0.25858581066132
691,3315721756,0.625115,0.388259,-0.575003,0.357572,9.86569213867188,0.73836576938629,0.35535874962807,1.16256046295166,0.10519136488438,0.09981269389391
692,3315738423,0.625135,0.388253,-0.575002,0.357545,9.86541938781738,0.69908744096756,0.35758829116821,0.95394498109818,-0.01625766046345,0.19046883285046
693,3315755090,0.625131,0.388235,-0.575019,0.357545,9.86356353759766,0.72466677427292,0.36199885606766,0.95183193683624,-0.08963803946972,0.45116767287254
694,3315771757,0.625130,0.388225,-0.575023,0.357551,9.88250827789307,0.72760510444641,0.37955024838448,1.09171569347382,-0.02067585103214,0.41181376576424
695,3315788424,0.625148,0.388212,-0.575022,0.357535,9.87839889526367,0.75313979387283,0.39513093233109,0.89328128099442,0.02174518071115,0.26366993784904
696,3315805091,0.625179,0.388166,-0.575040,0.357503,9.86222457885742,0.74857163429260,0.39637994766235,0.66463667154312,0.03092733398080,0.34791010618210
697,3315821758,0.625006,0.388373,-0.575015,0.357619,9.82709503173828,0.70951920747757,0.16953158378601,2.96839690208435,-0.81634718179703,0.36887413263321
698,3315838425,0.624956,0.388416,-0.575133,0.357470,9.95563602447510,0.76080542802811,0.66555571556091,0.52353638410568,-1.25810229778290,-0.03950118646026
699,3315855092,0.625078,0.388300,-0.575121,0.357402,9.81468963623047,0.66691976785660,0.25327056646347,0.05825607851148,0.59969574213028,0.16098861396313
700,3315871759,0.625153,0.388094,-0.575240,0.357304,9.85190200805664,0.72362428903580,0.36090037226677,-0.75409549474716,-0.02049656212330,0.85888344049454
701,3315888426,0.625107,0.387986,-0.575411,0.357225,9.81753063201904,0.70797395706177,0.34329336881638,-0.01273591630161,-0.90667039155960,0.98802274465561
702,3315905093,0.624950,0.387943,-0.575583,0.357271,9.90677642822266,0.71871805191040,0.40678295493126,1.08777129650116,-1.17514276504517,1.54267847537994
703,3315921760,0.624787,0.388045,-0.575643,0.357347,9.87150287628174,0.75579798221588,0.36026376485825,2.05710959434509,-0.99774914979935,0.81244766712189
704,3315938427,0.624639,0.388185,-0.575702,0.357359,9.87973308563232,0.73227941989899,0.39453768730164,1.99963486194611,-1.19325089454651,0.34637337923050
705,3315955094,0.624563,0.388240,-0.575747,0.357360,9.90351486206055,0.76099556684494,0.39524590969086,1.52832269668579,-0.66810089349747,0.42400547862053
706,3315971761,0.624553,0.388247,-0.575754,0.357360,9.88500308990479,0.73713791370392,0.35701078176498,1.13731908798218,-0.12912003695965,0.35017684102058
707,3315988428,0.624520,0.388285,-0.575762,0.357362,9.88251399993896,0.73786121606827,0.32378029823303,1.30718255043030,-0.29630693793297,0.28829655051231
708,3316005095,0.624449,0.388411,-0.575716,0.357422,9.86055850982666,0.70269680023193,0.31815111637115,2.16409397125244,-0.27658516168594,0.14560820162296
709,3316021762,0.624368,0.388519,-0.575699,0.357476,9.85363674163818,0.71104812622070,0.34888985753059,2.03528785705566,-0.41162812709808,0.28373751044273
710,3316038429,0.624320,0.388551,-0.575710,0.357506,9.85517978668213,0.71958541870117,0.34025895595551,1.41634392738342,-0.28172048926353,0.48021245002747
711,3316055096,0.624311,0.388551,-0.575751,0.357457,9.87766647338867,0.74189370870590,0.33474916219711,0.81076997518539,-0.38546472787857,0.25224664807320
712,3316071763,0.624301,0.388546,-0.575795,0.357408,9.88711643218994,0.75233632326126,0.35126477479935,0.80973267555237,-0.38659170269966,0.28045907616615
713,3316088430,0.624281,0.388565,-0.575810,0.357397,9.89651966094971,0.73605740070343,0.35335481166840,1.12320661544800,-0.26787683367729,0.30221709609032
714,3316105097,0.624264,0.388606,-0.575790,0.357416,9.89306735992432,0.73669087886810,0.39475080370903,1.43212127685547,-0.07753604650497,0.23299875855446
715,3316121764,0.624284,0.388625,-0.575754,0.357417,9.91191673278809,0.71883755922318,0.35872673988342,1.28774249553680,0.15690340101719,0.11661460995674
716,3316138431,0.624284,0.388711,-0.575691,0.357425,9.85797309875488,0.70638543367386,0.30500975251198,1.66692578792572,0.03907217830420,-0.14337348937988
717,3316155098,0.624296,0.388725,-0.575651,0.357455,9.85398101806641,0.76110142469406,0.30857333540916,1.35123634338379,0.22189562022686,0.26772955060005
718,3316171765,0.624310,0.388685,-0.575711,0.357376,9.87825298309326,0.69351911544800,0.38188555836678,0.42244303226471,-0.36184978485107,0.27768006920815
719,3316188432,0.624302,0.388658,-0.575714,0.357415,9.87437915802002,0.73009490966797,0.37465012073517,1.23430168628693,0.09390896558762,0.63308191299438
720,3316205099,0.624238,0.388742,-0.575691,0.357473,9.87716102600098,0.74871969223022,0.38997864723206,1.87323594093323,-0.25804153084755,0.34538725018501
721,3316221766,0.624209,0.388799,-0.575667,0.357499,9.88098907470703,0.75079941749573,0.39364936947823,1.56945645809174,-0.12526531517506,0.22587838768959
722,3316238433,0.624222,0.388812,-0.575641,0.357505,9.88264656066895,0.75414621829987,0.37229767441750,1.16170227527618,0.10113172978163,0.20006078481674
723,3316255100,0.624256,0.388769,-0.575659,0.357462,9.87713432312012,0.73929148912430,0.37333437800407,0.64517110586166,0.00820886902511,0.28387835621834
724,3316271767,0.624289,0.388726,-0.575660,0.357451,9.85573863983154,0.74403476715088,0.36899253726006,0.78026527166367,0.15874750912189,0.37412470579147
725,3316288434,0.624317,0.388679,-0.575674,0.357431,9.88736152648926,0.74500793218613,0.40734100341797,0.80516088008881,0.07802908867598,0.40078753232956
726,3316305101,0.624362,0.388627,-0.575669,0.357417,9.86005783081055,0.71181547641754,0.38852632045746,0.70554018020630,0.24772602319717,0.35339123010635
727,3316321768,0.624415,0.388564,-0.575673,0.357385,9.88263797760010,0.71460819244385,0.36115714907646,0.52101355791092,0.21416059136391,0.31825062632561
728,3316338435,0.624451,0.388513,-0.575685,0.357358,9.86821174621582,0.73868006467819,0.33119937777519,0.62329781055450,0.10122138261795,0.36359789967537
729,3316355102,0.624458,0.388507,-0.575689,0.357346,9.85816287994385,0.74293476343155,0.32277929782867,0.92830657958984,-0.05543228238821,0.29142132401466
730,3316371769,0.624471,0.388491,-0.575697,0.357329,9.87778282165527,0.73726975917816,0.34327852725983,0.85226261615753,-0.03437864780426,0.30755734443665
731,3316388436,0.624472,0.388464,-0.575711,0.357334,9.88078022003174,0.72534584999084,0.34143418073654,0.93301934003830,-0.02260960824788,0.49784684181213
732,3316405103,0.624458,0.388473,-0.575711,0.357349,9.87642097473145,0.71643441915512,0.35561779141426,1.23869407176971,-0.07815074175596,0.39338544011116
733,3316421770,0.624440,0.388509,-0.575700,0.357359,9.88291072845459,0.71859204769135,0.35655468702316,1.38633859157562,-0.12913282215595,0.24812300503254
734,3316438437,0.624430,0.388524,-0.575698,0.357363,9.86647129058838,0.71410948038101,0.36892881989479,1.14680862426758,-0.10501846671104,0.30257564783096
735,3316455104,0.624407,0.388524,-0.575720,0.357367,9.87601566314697,0.73014813661575,0.36587348580360,1.10061621665955,-0.21643373370171,0.46462720632553
736,3316471771,0.624400,0.388511,-0.575742,0.357359,9.88635540008545,0.72951173782349,0.35441902279854,1.02499449253082,-0.15267090499401,0.42324978113174
737,3316488438,0.624382,0.388516,-0.575754,0.357365,9.87023735046387,0.74832391738892,0.36630699038506,1.13147950172424,-0.16557970643044,0.41418296098709
738,3316505105,0.624372,0.388543,-0.575750,0.357360,9.87005710601807,0.74367022514343,0.35209608078003,1.25568819046021,-0.14026154577732,0.21816897392273
739,3316521772,0.624376,0.388551,-0.575738,0.357364,9.87907028198242,0.71584641933441,0.35391321778297,1.15686154365540,0.01220445148647,0.27045732736588
740,3316538439,0.624380,0.388535,-0.575752,0.357351,9.87648105621338,0.72873842716217,0.38591656088829,0.94805407524109,-0.08064798265696,0.37029555439949
741,3316555106,0.624375,0.388510,-0.575776,0.357348,9.86593437194824,0.72105228900909,0.38980820775032,0.90330862998962,-0.11224124580622,0.48616743087769
742,3316571773,0.624380,0.388497,-0.575784,0.357343,9.88631153106689,0.72248256206512,0.35673886537552,0.96150070428848,-0.04189597070217,0.37384292483330
743,3316588440,0.624375,0.388513,-0.575787,0.357328,9.87063407897949,0.71740907430649,0.36453548073769,1.10143578052521,-0.15515534579754,0.22003872692585
744,3316605107,0.624361,0.388524,-0.575801,0.357318,9.90775966644287,0.70791065692902,0.36042881011963,1.09901523590088,-0.21177218854427,0.31589424610138
745,3316621774,0.624354,0.388521,-0.575816,0.357309,9.87267494201660,0.72156572341919,0.34828487038612,1.06825447082520,-0.15501447021961,0.36492976546288
746,3316638441,0.624329,0.388559,-0.575815,0.357313,9.87898540496826,0.71830666065216,0.36526671051979,1.26061868667603,-0.22080066800117,0.25063306093216
747,3316655108,0.624343,0.388562,-0.575813,0.357286,9.88765811920166,0.70723193883896,0.35972473025322,0.99728161096573,-0.05849299952388,0.16794246435165
748,3316671775,0.624376,0.388556,-0.575798,0.357262,9.88144302368164,0.72830015420914,0.35482949018478,0.93291687965393,0.09808382391930,0.13088089227676
749,3316688442,0.624407,0.388553,-0.575787,0.357229,9.87636661529541,0.73616147041321,0.35807329416275,0.83788102865219,0.04802381247282,0.09497188776731
750,3316705109,0.624447,0.388540,-0.575780,0.357184,9.86450672149658,0.71500545740128,0.32889664173126,0.75734192132950,0.05305670946836,0.07289374619722
751,3316721776,0.624451,0.388536,-0.575807,0.357138,9.87352466583252,0.70492964982986,0.35086393356323,0.86368590593338,-0.25280374288559,0.20946064591408
752,3316738443,0.624447,0.388530,-0.575824,0.357124,9.88443660736084,0.73453551530838,0.35102003812790,0.89645719528198,-0.16152007877827,0.34912669658661
753,3316755110,0.624453,0.388576,-0.575795,0.357110,9.87803936004639,0.74584603309631,0.34652477502823,1.26298785209656,-0.04495669528842,-0.00605100067332
754,3316771777,0.624488,0.388591,-0.575761,0.357087,9.86285972595215,0.74437701702118,0.36520928144455,0.93526047468185,0.14015267789364,-0.00660167308524
755,3316788444,0.624411,0.388697,-0.575753,0.357120,9.87015438079834,0.72438323497772,0.26509192585945,1.94177544116974,-0.48727521300316,0.21901418268681
756,3316805111,0.624292,0.388844,-0.575837,0.357031,9.86681175231934,0.77903145551682,0.49872353672981,1.53117847442627,-1.47323608398438,-0.11541723459959
757,3316821778,0.624399,0.388776,-0.575835,0.356922,9.89676761627197,0.70031791925430,0.31700932979584,0.18136353790760,0.27356922626495,-0.13603544235229
758,3316838445,0.624490,0.388562,-0.575992,0.356742,9.81916332244873,0.73221707344055,0.32439109683037,-1.14135944843292,-0.31337776780128,0.60262840986252
759,3316855112,0.624515,0.388464,-0.576107,0.356619,9.81916332244873,0.71564912796021,0.28868934512138,-0.08735851198435,-0.51990574598312,0.44102498888969
760,3316871779,0.624373,0.388427,-0.576304,0.356590,9.89950561523438,0.72026538848877,0.38806989789009,0.72174018621445,-1.44148898124695,1.22919178009033
761,3316888446,0.624237,0.388505,-0.576357,0.356658,9.91259670257568,0.77320659160614,0.36589893698692,1.93930411338806,-0.81399089097977,0.78487569093704
762,3316905113,0.624125,0.388640,-0.576399,0.356640,9.87082576751709,0.72409665584564,0.38295120000839,1.79646182060242,-1.05016541481018,0.10561396181583
763,3316921780,0.624071,0.388653,-0.576465,0.356611,9.91253566741943,0.77442836761475,0.37538245320320,1.03235828876495,-0.64839190244675,0.46389722824097
764,3316938447,0.624083,0.388631,-0.576501,0.356557,9.90484619140625,0.76875942945480,0.36709767580032,0.72346907854080,-0.24008701741695,0.25279736518860
765,3316955114,0.624080,0.388643,-0.576521,0.356516,9.89876461029053,0.76078999042511,0.32936593890190,0.90589559078217,-0.27725103497505,0.16457439959049
766,3316971781,0.624044,0.388736,-0.576492,0.356525,9.87683677673340,0.74051833152771,0.31156212091446,1.73212301731110,-0.26685234904289,0.01645616069436
767,3316988448,0.624005,0.388837,-0.576438,0.356571,9.86780548095703,0.70204615592957,0.29901802539825,1.92213046550751,-0.08584736287594,0.07746560871601
768,3317005115,0.624019,0.388843,-0.576416,0.356575,9.84983539581299,0.71137565374374,0.30072087049484,1.14609158039093,0.09819909930229,0.23002767562866
769,3317021782,0.624083,0.388775,-0.576423,0.356527,9.86137771606445,0.74336117506027,0.30097717046738,0.43359738588333,0.21527473628521,0.25753566622734
770,3317038449,0.624136,0.388720,-0.576435,0.356474,9.89870548248291,0.75866734981537,0.32761994004250,0.46881484985352,0.10994251072407,0.21717007458210
771,3317055116,0.624184,0.388680,-0.576422,0.356455,9.88432312011719,0.74852567911148,0.33803179860115,0.78609210252762,0.25160631537437,0.25767654180527
772,3317071783,0.624227,0.388665,-0.576386,0.356455,9.88714313507080,0.71850639581680,0.33408147096634,0.92981779575348,0.31001609563828,0.18991817533970
773,3317088450,0.624289,0.388624,-0.576338,0.356468,9.88697338104248,0.71597772836685,0.34244734048843,0.86731004714966,0.54578107595444,0.26570612192154
