sep=,
DeviceTag:,D
FirmwareVersion:,3.0.0
AppVersion:,2023.6.0
StartTime: ,2024-03-14_11:50:42_000 EDT
© Movella Technologies B. V. 2005-2024

PacketCounter,SampleTimeFine,Quat_W,Quat_X,Quat_Y,Quat_Z,Acc_X,Acc_Y,Acc_Z,Gyr_X,Gyr_Y,Gyr_Z
0,3304171525,0.021558,-0.689397,-0.026802,-0.723566,0.00000000000000,0.00000000000000,0.00000000000000,0.00000000000000,0.00000000000000,0.00000000000000
1,3304188192,0.021515,-0.689416,-0.026748,-0.723552,9.79510688781738,0.07506816834211,0.45871296525002,0.46736764907837,0.48264560103416,-0.03364868462086
2,3304204859,0.021500,-0.689459,-0.026714,-0.723512,9.83383846282959,0.05654143914580,0.49333950877190,0.85420906543732,0.23904334008694,0.02964670024812
3,3304221526,0.021539,-0.689506,-0.026785,-0.723464,9.80761623382568,0.03964305669069,0.50009489059448,1.47723817825317,0.17540858685970,-0.20613743364811
4,3304238193,0.021549,-0.689496,-0.026871,-0.723471,9.84371662139893,0.07633521407843,0.47479319572449,1.50378584861755,0.71421021223068,-0.43788114190102
5,3304254860,0.021567,-0.689472,-0.026948,-0.723490,9.88517761230469,0.13828578591347,0.42152765393257,1.43579673767090,0.84270912408829,-0.36265665292740
6,3304271527,0.021583,-0.689441,-0.026928,-0.723520,9.87548732757568,0.15702246129513,0.42548611760139,0.91876602172852,0.94240659475327,0.08096174895763
7,3304288194,0.021572,-0.689420,-0.026800,-0.723545,9.84456157684326,0.12798015773296,0.46190881729126,0.32377016544342,0.88037246465683,0.46825134754181
8,3304304861,0.021548,-0.689440,-0.026668,-0.723532,9.81082725524902,0.07718885689974,0.46536827087402,0.18922662734985,0.49671989679337,0.43425050377846
9,3304321528,0.021531,-0.689471,-0.026563,-0.723506,9.77622127532959,0.05229089409113,0.44235864281654,0.39104187488556,0.37448325753212,0.34271073341370
10,3304338195,0.021518,-0.689478,-0.026508,-0.723501,9.79088497161865,0.05431983992457,0.47860109806061,0.60739237070084,0.59098738431931,0.11813856661320
11,3304354862,0.021529,-0.689469,-0.026495,-0.723510,9.80560302734375,0.05210044234991,0.48279187083244,0.96022009849548,0.73389345407486,0.03523026779294
12,3304371529,0.021554,-0.689469,-0.026500,-0.723509,9.83241176605225,0.06111579388380,0.46310460567474,1.10353600978851,0.63947230577469,0.02148905768991
13,3304388196,0.021551,-0.689469,-0.026506,-0.723510,9.82747745513916,0.06924418359995,0.45571872591972,0.98083835840225,0.64431303739548,-0.12383099645376
14,3304404863,0.021520,-0.689476,-0.026502,-0.723504,9.82086753845215,0.09241595119238,0.46659749746323,0.86553001403809,0.57227742671967,-0.20498485863209
15,3304421530,0.021503,-0.689495,-0.026498,-0.723486,9.81539726257324,0.09643225371838,0.43467423319817,0.87834906578064,0.45750683546066,-0.14259229600430
16,3304438197,0.021480,-0.689525,-0.026464,-0.723460,9.84612369537354,0.08176642656326,0.43384867906570,0.78335160017014,0.37450888752937,-0.01495141070336
17,3304454864,0.021460,-0.689536,-0.026421,-0.723452,9.85195922851562,0.10022743046284,0.44081407785416,0.72579991817474,0.55082672834396,0.03368070349097
18,3304471531,0.021458,-0.689549,-0.026377,-0.723441,9.82400226593018,0.08670111000538,0.43137636780739,0.63265919685364,0.52981150150299,0.11534676700830
19,3304488198,0.021436,-0.689561,-0.026312,-0.723432,9.80824947357178,0.08020717650652,0.48672538995743,0.59559768438339,0.54010778665543,0.12507961690426
20,3304504865,0.021410,-0.689583,-0.026259,-0.723414,9.83345508575439,0.06279142946005,0.46935933828354,0.60574030876160,0.45384418964386,0.05063630640507
21,3304521532,0.021396,-0.689619,-0.026238,-0.723381,9.85384845733643,0.05914475396276,0.47133252024651,0.86209779977798,0.30426603555679,-0.03496773913503
22,3304538199,0.021401,-0.689659,-0.026259,-0.723342,9.83617115020752,0.06397272646427,0.47423914074898,1.13619208335876,0.25514087080956,-0.13905772566795
23,3304554866,0.021407,-0.689678,-0.026297,-0.723322,9.83989715576172,0.07588198035955,0.48186939954758,1.24035906791687,0.44754353165627,-0.21981461346149
24,3304571533,0.021420,-0.689690,-0.026343,-0.723308,9.82869911193848,0.09111537039280,0.47819751501083,1.26576685905457,0.51382923126221,-0.22871501743793
25,3304588200,0.021371,-0.689708,-0.026325,-0.723293,9.82420253753662,0.10037737339735,0.48662498593330,0.63787144422531,0.47287437319756,-0.23265935480595
26,3304604867,0.021303,-0.689752,-0.026281,-0.723255,9.85836601257324,0.08086162060499,0.43683728575706,0.44406017661095,0.23913295567036,-0.19484220445156
27,3304621534,0.021281,-0.689748,-0.026292,-0.723259,9.82651996612549,0.10181789100170,0.43244493007660,0.93040698766708,0.67411351203918,-0.23756420612335
28,3304638201,0.021264,-0.689770,-0.026250,-0.723240,9.78128814697266,0.10500460118055,0.47725915908813,0.70779412984848,0.44377842545509,0.04100592806935
29,3304654868,0.021317,-0.689800,-0.026263,-0.723209,9.82334232330322,0.07672432810068,0.44585770368576,1.33971083164215,0.35618302226067,0.13280184566975
30,3304671535,0.021340,-0.689819,-0.026279,-0.723190,9.90360546112061,0.08913795650005,0.49401724338531,1.17988729476929,0.46028581261635,-0.02960187755525
31,3304688202,0.021347,-0.689859,-0.026282,-0.723152,9.87320518493652,0.08238958567381,0.49304977059364,1.03525257110596,0.26206916570663,-0.04779970273376
32,3304704869,0.021305,-0.689870,-0.026217,-0.723144,9.84004211425781,0.09568858146667,0.47056093811989,0.45942783355713,0.54753547906876,0.02186044119298
33,3304721536,0.021235,-0.689838,-0.026116,-0.723181,9.84272098541260,0.11255289614201,0.43759354948997,0.11078772693872,0.97643285989761,0.04146695509553
34,3304738203,0.021141,-0.689807,-0.025973,-0.723218,9.84756183624268,0.12501871585846,0.44380316138268,-0.19237056374550,0.97594618797302,0.12032844126225
35,3304754870,0.021044,-0.689790,-0.025800,-0.723243,9.80857563018799,0.07578922063112,0.45724004507065,-0.38962677121162,0.85049527883530,0.25517928600311
36,3304771537,0.020962,-0.689798,-0.025693,-0.723242,9.80563545227051,0.02376377023757,0.43599334359169,0.07563430815935,0.60010552406311,0.02166834473610
37,3304788204,0.020900,-0.689816,-0.025694,-0.723226,9.79660320281982,0.01023676712066,0.43770393729210,0.71164882183075,0.46246287226677,-0.38525980710983
38,3304804871,0.020866,-0.689838,-0.025779,-0.723204,9.81011486053467,0.02148707211018,0.44099152088165,1.26629185676575,0.41213393211365,-0.64146369695663
39,3304821538,0.020875,-0.689857,-0.025882,-0.723182,9.80523586273193,0.06322049349546,0.43404263257980,1.57962489128113,0.43115139007568,-0.51506507396698
40,3304838205,0.020911,-0.689881,-0.025997,-0.723153,9.81580924987793,0.09098055213690,0.46457841992378,1.65682160854340,0.37103840708733,-0.44005823135376
41,3304854872,0.020907,-0.689916,-0.026069,-0.723117,9.82863140106201,0.11748457700014,0.42459756135941,1.22118794918060,0.28141951560974,-0.43348857760429
42,3304871539,0.020853,-0.689957,-0.026090,-0.723079,9.84774780273438,0.10979305952787,0.45095148682594,0.74677664041519,0.24335905909538,-0.43958434462547
43,3304888206,0.020762,-0.689990,-0.026029,-0.723053,9.85202884674072,0.10115659981966,0.42972064018250,0.26776796579361,0.34747466444969,-0.22870218753815
44,3304904873,0.020646,-0.690029,-0.025933,-0.723022,9.83744907379150,0.07473915815353,0.44563475251198,-0.03099776618183,0.29679995775223,-0.19142290949821
45,3304921540,0.020544,-0.690056,-0.025875,-0.723002,9.82272243499756,0.07885537296534,0.43395128846169,0.22619855403900,0.40105643868446,-0.29447561502457
46,3304938207,0.020465,-0.690085,-0.025832,-0.722977,9.84804153442383,0.06912451237440,0.44981536269188,0.41093018651009,0.36873322725296,-0.25948867201805
47,3304954874,0.020432,-0.690132,-0.025841,-0.722934,9.80491256713867,0.07634975016117,0.45627900958061,0.88562309741974,0.19627010822296,-0.27424159646034
48,3304971541,0.020435,-0.690144,-0.025920,-0.722919,9.82094001770020,0.08426781743765,0.45921710133553,1.34629321098328,0.49931958317757,-0.43379589915276
49,3304988208,0.020434,-0.690142,-0.026032,-0.722917,9.88316345214844,0.10860228538513,0.43483316898346,1.57195401191711,0.62833082675934,-0.61175298690796
50,3305004875,0.020436,-0.690128,-0.026065,-0.722929,9.85300254821777,0.13146619498730,0.41584023833275,1.17240846157074,0.76050502061844,-0.22847166657448
51,3305021542,0.020404,-0.690103,-0.026038,-0.722955,9.84028434753418,0.14022088050842,0.45565909147263,0.66617351770401,0.88955461978912,-0.12071904540062
52,3305038209,0.020336,-0.690095,-0.025981,-0.722966,9.82640933990479,0.11850477755070,0.44003441929817,0.36341857910156,0.72578704357147,-0.14911073446274
53,3305054876,0.020280,-0.690095,-0.025920,-0.722970,9.82579803466797,0.10006943345070,0.43537104129791,0.36372593045235,0.65636378526688,-0.07036448270082
54,3305071543,0.020238,-0.690077,-0.025873,-0.722991,9.82513809204102,0.07582221180201,0.44071951508522,0.52769845724106,0.83275848627090,-0.06962171941996
55,3305088210,0.020208,-0.690051,-0.025839,-0.723018,9.81563568115234,0.07073935866356,0.45394158363342,0.63438814878464,0.89737927913666,-0.07542299479246
56,3305104877,0.020189,-0.690028,-0.025834,-0.723040,9.83580970764160,0.08424437046051,0.46594774723053,0.82562530040741,0.85657829046249,-0.16276229918003
57,3305121544,0.020156,-0.690008,-0.025828,-0.723060,9.84888935089111,0.08339925855398,0.44770357012749,0.75745713710785,0.83452570438385,-0.21893094480038
58,3305138211,0.020086,-0.689988,-0.025813,-0.723081,9.84256076812744,0.08801241219044,0.46271625161171,0.60353761911392,0.82799446582794,-0.35932695865631
59,3305154878,0.020009,-0.689976,-0.025791,-0.723096,9.80742454528809,0.09571578353643,0.44290554523468,0.43492925167084,0.76284861564636,-0.36640885472298
60,3305171545,0.019955,-0.689973,-0.025785,-0.723101,9.82073402404785,0.08920796215534,0.45893356204033,0.53458827733994,0.66420137882233,-0.32742637395859
61,3305188212,0.019906,-0.689974,-0.025791,-0.723101,9.83119297027588,0.07273641973734,0.44264036417007,0.73508441448212,0.62842035293579,-0.35521608591080
62,3305204879,0.019859,-0.689968,-0.025800,-0.723107,9.83102703094482,0.09589576721191,0.45539641380310,0.92984336614609,0.68908405303955,-0.34518876671791
63,3305221546,0.019825,-0.689962,-0.025820,-0.723113,9.82536125183105,0.11194445937872,0.43568801879883,0.87796491384506,0.69196546077728,-0.34360074996948
64,3305238213,0.019766,-0.689952,-0.025811,-0.723125,9.82059478759766,0.11795492470264,0.45290294289589,0.60197520256042,0.73412394523621,-0.33941307663918
65,3305254880,0.019688,-0.689945,-0.025786,-0.723134,9.82977581024170,0.09381246566772,0.46020746231079,0.41679543256760,0.71257084608078,-0.35113087296486
66,3305271547,0.019635,-0.689953,-0.025774,-0.723129,9.83242797851562,0.08433429151773,0.43694663047791,0.55034005641937,0.56655287742615,-0.29138925671577
67,3305288214,0.019601,-0.689979,-0.025757,-0.723105,9.84442234039307,0.08374047279358,0.45210769772530,0.66906774044037,0.39168217778206,-0.16481131315231
68,3305304881,0.019576,-0.689989,-0.025741,-0.723097,9.82660770416260,0.09672270715237,0.46094170212746,0.73946422338486,0.55156946182251,-0.11937437951565
69,3305321548,0.019544,-0.690007,-0.025736,-0.723081,9.82515430450439,0.09809970855713,0.45219343900681,0.75014472007751,0.46872520446777,-0.21111907064915
70,3305338215,0.019508,-0.690014,-0.025735,-0.723076,9.82233333587646,0.11197973787785,0.46455714106560,0.71869224309921,0.57828354835510,-0.26058998703957
71,3305354882,0.019460,-0.690017,-0.025727,-0.723074,9.81061458587646,0.09985829144716,0.46103519201279,0.67576539516449,0.60507434606552,-0.27900549769402
72,3305371549,0.019395,-0.690010,-0.025720,-0.723083,9.81205654144287,0.10682044923306,0.45143923163414,0.56281340122223,0.71267330646515,-0.37319624423981
73,3305388216,0.019314,-0.690002,-0.025692,-0.723094,9.82799339294434,0.10618392378092,0.47480642795563,0.35861620306969,0.71725803613663,-0.35326954722404
74,3305404883,0.019243,-0.690015,-0.025656,-0.723084,9.85481166839600,0.07431001216173,0.43726286292076,0.39576742053032,0.52271676063538,-0.26134556531906
75,3305421550,0.019231,-0.690012,-0.025675,-0.723087,9.82268714904785,0.11609696596861,0.43751007318497,1.02426469326019,0.66110229492188,-0.23276183009148
76,3305438217,0.019207,-0.690030,-0.025671,-0.723071,9.78344154357910,0.12299016118050,0.44887489080429,0.85296702384949,0.47780492901802,-0.16844832897186
77,3305454884,0.019225,-0.690047,-0.025699,-0.723053,9.82244586944580,0.09952813386917,0.44836568832397,1.21925425529480,0.46574136614799,-0.11733818054199
78,3305471551,0.019225,-0.690050,-0.025744,-0.723048,9.88593673706055,0.09433478116989,0.43856024742126,1.21933102607727,0.60160392522812,-0.29229852557182
79,3305488218,0.019214,-0.690068,-0.025784,-0.723029,9.87704753875732,0.09875992685556,0.49182391166687,1.14034152030945,0.45234587788582,-0.31424862146378
80,3305504885,0.019176,-0.690099,-0.025761,-0.723002,9.83163738250732,0.09419730305672,0.49360242486000,0.70117318630219,0.35524812340736,-0.14768922328949
81,3305521552,0.019103,-0.690093,-0.025706,-0.723012,9.82885074615479,0.13837097585201,0.47555315494537,0.37544372677803,0.71021449565887,-0.17770729959011
82,3305538219,0.018993,-0.690076,-0.025578,-0.723036,9.80977821350098,0.16671390831470,0.44784572720528,-0.16981859505177,0.84138995409012,-0.03074164129794
83,3305554886,0.018845,-0.690050,-0.025393,-0.723070,9.82270145416260,0.12869328260422,0.47169238328934,-0.63561105728149,0.92714130878448,0.06162415444851
84,3305571553,0.018699,-0.690031,-0.025259,-0.723097,9.82316398620605,0.07364185899496,0.43820312619209,-0.36935436725616,0.85710334777832,-0.17889830470085
85,3305588220,0.018602,-0.690052,-0.025225,-0.723081,9.82410240173340,0.04922986030579,0.43997740745544,0.36361065506935,0.44372719526291,-0.39345589280128
86,3305604887,0.018589,-0.690074,-0.025307,-0.723058,9.83093357086182,0.06201848387718,0.44544774293900,1.33775138854980,0.41377317905426,-0.51949602365494
87,3305621554,0.018645,-0.690086,-0.025438,-0.723040,9.82197475433350,0.08724102377892,0.45203140377998,1.90089762210846,0.48542463779449,-0.41746780276299
88,3305638221,0.018703,-0.690084,-0.025545,-0.723036,9.83526420593262,0.13210679590702,0.44997417926788,1.80454266071320,0.63182687759399,-0.29743385314941
89,3305654888,0.018715,-0.690077,-0.025610,-0.723040,9.82152175903320,0.14287191629410,0.48492076992989,1.37148320674896,0.68759858608246,-0.32756721973419
90,3305671555,0.018646,-0.690073,-0.025592,-0.723047,9.83584594726562,0.13502487540245,0.46842071413994,0.56652724742889,0.68127220869064,-0.33946430683136
91,3305688222,0.018548,-0.690078,-0.025503,-0.723047,9.82628440856934,0.14515468478203,0.44599953293800,0.08666057139635,0.61309117078781,-0.13991577923298
92,3305704889,0.018435,-0.690092,-0.025377,-0.723041,9.81720352172852,0.12912611663342,0.43850737810135,-0.17739996314049,0.54085057973862,-0.03695272281766
93,3305721556,0.018322,-0.690093,-0.025257,-0.723048,9.80992507934570,0.09968665242195,0.42776083946228,-0.14001820981503,0.66175526380539,-0.06936559081078
94,3305738223,0.018244,-0.690096,-0.025180,-0.723050,9.81091213226318,0.07746084779501,0.45529758930206,0.24052888154984,0.63259524106979,-0.10135585814714
95,3305754890,0.018219,-0.690130,-0.025197,-0.723017,9.79847049713135,0.06055135652423,0.45346814393997,0.95347124338150,0.31320491433144,-0.27319145202637
96,3305771557,0.018244,-0.690157,-0.025267,-0.722988,9.81206321716309,0.07096122950315,0.42449140548706,1.46623742580414,0.36238127946854,-0.27769926190376
97,3305788224,0.018340,-0.690165,-0.025401,-0.722974,9.84491825103760,0.11938494443893,0.43184924125671,2.11198472976685,0.53702151775360,-0.23445227742195
98,3305804891,0.018432,-0.690171,-0.025498,-0.722962,9.85651969909668,0.16592535376549,0.44910180568695,1.91398549079895,0.55428445339203,-0.07500038295984
99,3305821558,0.018486,-0.690180,-0.025506,-0.722952,9.84745025634766,0.18574711680412,0.44705691933632,1.28199243545532,0.56070041656494,0.15788950026035
100,3305838225,0.018497,-0.690182,-0.025424,-0.722953,9.84625434875488,0.18612849712372,0.47853478789330,0.63305628299713,0.64582425355911,0.36628726124763
101,3305854892,0.018437,-0.690202,-0.025284,-0.722940,9.82942485809326,0.14024809002876,0.47250282764435,0.00815764348954,0.48710227012634,0.29294520616531
102,3305871559,0.018380,-0.690216,-0.025155,-0.722933,9.82601928710938,0.09452988952398,0.45875230431557,0.07440488785505,0.54245132207870,0.25329676270485
103,3305888226,0.018353,-0.690216,-0.025084,-0.722936,9.81671142578125,0.07038425654173,0.45848342776299,0.51083254814148,0.66034662723541,0.12769211828709
104,3305904893,0.018379,-0.690201,-0.025099,-0.722949,9.84209918975830,0.06319278478622,0.43549755215645,1.18595767021179,0.78253203630447,-0.02751444280148
105,3305921560,0.018420,-0.690180,-0.025170,-0.722965,9.84902858734131,0.09130349010229,0.44196146726608,1.53667235374451,0.81838983297348,-0.21692034602165
106,3305938227,0.018459,-0.690152,-0.025227,-0.722989,9.85165596008301,0.11549180001020,0.44322600960732,1.46007776260376,0.89722561836243,-0.15862585604191
107,3305954894,0.018463,-0.690128,-0.025232,-0.723012,9.83286476135254,0.13978080451488,0.45624908804893,1.02858054637909,0.86555552482605,-0.09161022305489
108,3305971561,0.018449,-0.690108,-0.025180,-0.723033,9.82982921600342,0.12040958553553,0.43344977498055,0.66275417804718,0.84104418754578,0.09772525727749
109,3305988228,0.018432,-0.690083,-0.025093,-0.723060,9.83249855041504,0.10252076387405,0.41660350561142,0.47652426362038,0.90234804153442,0.23969644308090
110,3306004895,0.018411,-0.690064,-0.025014,-0.723082,9.82740592956543,0.09058874100447,0.40093177556992,0.48940744996071,0.84250408411026,0.18419371545315
111,3306021562,0.018408,-0.690057,-0.024944,-0.723091,9.82776355743408,0.08686301857233,0.44089949131012,0.62949609756470,0.73097360134125,0.24233455955982
112,3306038229,0.018406,-0.690049,-0.024893,-0.723100,9.80779361724854,0.08822502940893,0.42079037427902,0.72229093313217,0.72768235206604,0.15537942945957
113,3306054896,0.018416,-0.690047,-0.024851,-0.723104,9.81567001342773,0.08776117116213,0.42458468675613,0.82954412698746,0.67675155401230,0.16461281478405
114,3306071563,0.018443,-0.690055,-0.024860,-0.723095,9.82628631591797,0.07355830818415,0.42803531885147,1.16439163684845,0.56403005123138,0.01859481818974
115,3306088230,0.018506,-0.690068,-0.024907,-0.723080,9.84063339233398,0.07623648643494,0.42606294155121,1.51833367347717,0.50783580541611,0.01853078790009
116,3306104897,0.018571,-0.690090,-0.024983,-0.723054,9.85803222656250,0.08415526151657,0.45632624626160,1.67738842964172,0.41104537248611,-0.11324014514685
117,3306121564,0.018631,-0.690109,-0.025040,-0.723032,9.86096191406250,0.09749019145966,0.45817941427231,1.56287407875061,0.44248503446579,-0.03915541619062
118,3306138231,0.018680,-0.690105,-0.025059,-0.723034,9.87130832672119,0.13955250382423,0.44049945473671,1.31211292743683,0.67778885364532,0.07500679045916
119,3306154898,0.018728,-0.690067,-0.025066,-0.723069,9.85955429077148,0.17260956764221,0.43543279170990,1.24353480339050,1.00554168224335,0.11815135926008
120,3306171565,0.018779,-0.690028,-0.025036,-0.723106,9.81603050231934,0.15902522206306,0.44792506098747,1.08417284488678,1.02143454551697,0.30523937940598
121,3306188232,0.018849,-0.689987,-0.024979,-0.723145,9.80432319641113,0.13801541924477,0.45901381969452,1.03694283962250,1.04753375053406,0.52931201457977
122,3306204899,0.018948,-0.689953,-0.024942,-0.723176,9.79653072357178,0.07690384238958,0.48423618078232,1.26674008369446,0.97807234525681,0.58083206415176
123,3306221566,0.019064,-0.689925,-0.024963,-0.723199,9.78206920623779,0.05440904200077,0.48924693465233,1.64979064464569,0.90585714578629,0.38922336697578
124,3306238233,0.019204,-0.689895,-0.025039,-0.723221,9.79872703552246,0.05806880071759,0.44445121288300,2.02833366394043,0.90817517042160,0.25757411122322
125,3306254900,0.019377,-0.689888,-0.025113,-0.723221,9.81654071807861,0.10286242514849,0.44503948092461,2.17533779144287,0.69918835163116,0.42734792828560
126,3306271567,0.019566,-0.689912,-0.025170,-0.723191,9.82227325439453,0.10460830479860,0.46597781777382,2.17914104461670,0.40391227602959,0.60188567638397
127,3306288234,0.019734,-0.689951,-0.025198,-0.723148,9.83127021789551,0.11000265926123,0.42730197310448,1.92773997783661,0.26420778036118,0.63802516460419
128,3306304901,0.019867,-0.689983,-0.025161,-0.723116,9.82306003570557,0.10833071917295,0.46472162008286,1.43633449077606,0.35759168863297,0.77023792266846
129,3306321568,0.019948,-0.689994,-0.025085,-0.723105,9.85359287261963,0.11176156252623,0.45338076353073,0.99912583827972,0.55931735038757,0.69048005342484
130,3306338235,0.019983,-0.689971,-0.024972,-0.723130,9.86360549926758,0.10677738487720,0.46403965353966,0.51266378164291,0.89361423254013,0.62236303091049
131,3306354902,0.020007,-0.689926,-0.024842,-0.723177,9.89173412322998,0.09827915579081,0.45782265067101,0.33466833829880,1.10986232757568,0.63856303691864
132,3306371569,0.020077,-0.689859,-0.024772,-0.723241,9.86542701721191,0.09530301392078,0.48707371950150,0.82480573654175,1.29596424102783,0.56983137130737
133,3306388236,0.020144,-0.689785,-0.024658,-0.723314,9.81378364562988,0.11408698558807,0.48007616400719,0.67785292863846,1.38527572154999,0.77237659692764
134,3306404903,0.020240,-0.689698,-0.024573,-0.723397,9.83416461944580,0.08939436823130,0.48354899883270,0.99044305086136,1.49236226081848,0.77694845199585
135,3306421570,0.020335,-0.689599,-0.024510,-0.723491,9.87677001953125,0.06522251665592,0.45527175068855,1.03395891189575,1.60485303401947,0.66046178340912
136,3306438237,0.020409,-0.689540,-0.024472,-0.723547,9.85815238952637,0.03005144000053,0.50040489435196,1.15417230129242,1.21438765525818,0.45316544175148
137,3306454904,0.020436,-0.689476,-0.024404,-0.723609,9.81714916229248,0.00792009383440,0.48737192153931,0.78778260946274,1.26528012752533,0.36162567138672
138,3306471571,0.020430,-0.689398,-0.024350,-0.723685,9.79171466827393,0.05909451097250,0.46549999713898,0.61186176538467,1.39443206787109,0.11967533081770
139,3306488238,0.020369,-0.689337,-0.024225,-0.723749,9.78766155242920,0.10233110189438,0.46335878968239,-0.03555683046579,1.25105249881744,0.18849666416645
140,3306504905,0.020264,-0.689320,-0.024013,-0.723775,9.77014541625977,0.06781894713640,0.46987661719322,-0.61125344038010,0.86401879787445,0.39164376258850
141,3306521572,0.020168,-0.689345,-0.023853,-0.723759,9.79479789733887,0.01352844573557,0.42142361402512,-0.29405298829079,0.44508466124535,0.21241891384125
142,3306538239,0.020162,-0.689410,-0.023839,-0.723698,9.79933357238770,0.00366203626618,0.43574655056000,0.78775691986084,0.03181097283959,-0.02899997681379
143,3306554906,0.020227,-0.689479,-0.023920,-0.723629,9.81010818481445,0.03014604002237,0.43822818994522,1.62159132957458,-0.03517264127731,-0.11959209293127
144,3306571573,0.020303,-0.689525,-0.024032,-0.723578,9.83759593963623,0.05371665582061,0.47145280241966,1.82890033721924,0.16913345456123,-0.22063416242599
145,3306588240,0.020329,-0.689567,-0.024146,-0.723534,9.84311103820801,0.06071122735739,0.50567167997360,1.56711292266846,0.20777021348476,-0.47938653826714
146,3306604907,0.020259,-0.689612,-0.024196,-0.723491,9.84002971649170,0.08705960214138,0.51642215251923,0.85949808359146,0.19260750710964,-0.65068417787552
147,3306621574,0.020107,-0.689640,-0.024158,-0.723470,9.85630989074707,0.10137474536896,0.51310348510742,0.00190814596135,0.38156515359879,-0.65154218673706
148,3306638241,0.019933,-0.689639,-0.024070,-0.723479,9.86328029632568,0.08364636451006,0.46940687298775,-0.44100585579872,0.66659611463547,-0.53748893737793
149,3306654908,0.019795,-0.689633,-0.023981,-0.723491,9.85772228240967,0.05598910152912,0.41985747218132,-0.23999737203121,0.72039550542831,-0.34771159291267
150,3306671575,0.019698,-0.689618,-0.023968,-0.723508,9.84313392639160,0.05587900802493,0.43862381577492,0.43057507276535,0.77653861045837,-0.50460213422775
151,3306688242,0.019646,-0.689607,-0.024001,-0.723519,9.85041809082031,0.09049145877361,0.45478150248528,0.89723831415176,0.73708224296570,-0.49816060066223
152,3306704909,0.019670,-0.689637,-0.024084,-0.723488,9.82726287841797,0.09296958148479,0.47259527444839,1.50063526630402,0.33578246831894,-0.34388250112534
153,3306721576,0.019722,-0.689641,-0.024207,-0.723479,9.81835937500000,0.10305441170931,0.44231927394867,1.68736457824707,0.56810241937637,-0.40311184525490
154,3306738243,0.019722,-0.689584,-0.024283,-0.723530,9.85779094696045,0.13391940295696,0.45386117696762,1.44045817852020,1.15459477901459,-0.45230105519295
155,3306754910,0.019733,-0.689530,-0.024281,-0.723581,9.84855556488037,0.15104272961617,0.45148348808289,0.87218922376633,1.15271222591400,-0.03914261236787
156,3306771577,0.019714,-0.689494,-0.024152,-0.723620,9.83574771881104,0.11640514433384,0.43673783540726,0.16723814606667,1.01423728466034,0.42771932482719
157,3306788244,0.019680,-0.689458,-0.023969,-0.723662,9.80161952972412,0.08629283308983,0.49021407961845,-0.07790744304657,1.04079771041870,0.61207956075668
158,3306804911,0.019647,-0.689438,-0.023796,-0.723687,9.76238250732422,0.09858921915293,0.47344392538071,-0.12248633056879,0.87705564498901,0.56729567050934
159,3306821578,0.019637,-0.689409,-0.023642,-0.723720,9.79196548461914,0.08899866789579,0.48162838816643,0.05943426489830,0.95797896385193,0.58600574731827
160,3306838245,0.019662,-0.689369,-0.023501,-0.723762,9.81490612030029,0.07643292099237,0.43623277544975,0.33311879634857,1.05676710605621,0.70068663358688
161,3306854912,0.019755,-0.689348,-0.023406,-0.723783,9.84286117553711,0.03021043166518,0.46612608432770,0.88023173809052,0.87548053264618,0.82853245735168
162,3306871579,0.019878,-0.689338,-0.023345,-0.723790,9.83729934692383,0.01858065277338,0.48737075924873,1.19102895259857,0.74995261430740,0.81548273563385
163,3306888246,0.019964,-0.689316,-0.023273,-0.723812,9.85215950012207,0.05452089384198,0.49129244685173,1.07219862937927,0.87370038032532,0.68583112955093
164,3306904913,0.019976,-0.689277,-0.023158,-0.723853,9.82853794097900,0.08757941424847,0.48023793101311,0.36067804694176,1.04777717590332,0.51510983705521
165,3306921580,0.019930,-0.689240,-0.022949,-0.723895,9.80271625518799,0.08212449401617,0.45783963799477,-0.17992283403873,1.04540801048279,0.67547100782394
166,3306938247,0.019920,-0.689256,-0.022753,-0.723886,9.79621410369873,0.04236649721861,0.43729582428932,-0.04107636585832,0.54141402244568,0.80536562204361
167,3306954914,0.019948,-0.689303,-0.022636,-0.723845,9.76992893218994,-0.01492336299270,0.48058542609215,0.44265145063400,0.23060391843319,0.62400221824646
168,3306971581,0.019966,-0.689366,-0.022576,-0.723786,9.78926277160645,-0.02697533182800,0.50886929035187,0.70187753438950,0.06272549927235,0.31448552012444
169,3306988248,0.019989,-0.689445,-0.022560,-0.723710,9.79894447326660,-0.02062658220530,0.48804679512978,0.92267179489136,-0.11247176676989,0.12703898549080
170,3307004915,0.019991,-0.689542,-0.022556,-0.723618,9.82663154602051,0.00227651186287,0.48643755912781,0.92496430873871,-0.27725106477737,-0.01985624805093
171,3307021582,0.019985,-0.689659,-0.022535,-0.723508,9.83004856109619,0.03903998807073,0.46441954374313,0.79609382152557,-0.46262297034264,0.02015719190240
172,3307038249,0.020000,-0.689790,-0.022527,-0.723382,9.85841941833496,0.07874272763729,0.45568016171455,0.88873499631882,-0.60563141107559,0.06699001044035
173,3307054916,0.020037,-0.689904,-0.022524,-0.723273,9.89470481872559,0.10715241730213,0.45166373252869,1.10910677909851,-0.43680539727211,0.15359938144684
174,3307071583,0.020092,-0.689970,-0.022492,-0.723210,9.90198516845703,0.14570418000221,0.44324049353600,1.02046108245850,0.02421680465341,0.36548042297363
175,3307088250,0.020161,-0.689994,-0.022416,-0.723187,9.90772724151611,0.14113973081112,0.44429922103882,0.89000284671783,0.43651720881462,0.62971377372742
176,3307104917,0.020254,-0.689987,-0.022292,-0.723195,9.87173652648926,0.11160244792700,0.46713802218437,0.66123032569885,0.74206399917603,0.95876026153564
177,3307121584,0.020312,-0.689948,-0.022137,-0.723236,9.88024902343750,0.07426232844591,0.47588884830475,0.40799748897552,1.05525588989258,0.93745028972626
178,3307138251,0.020353,-0.689865,-0.021979,-0.723318,9.88631534576416,0.06649233400822,0.48246580362320,0.20988328754902,1.47087347507477,0.84168457984924
179,3307154918,0.020391,-0.689757,-0.021817,-0.723425,9.87407398223877,0.04927010461688,0.48231905698776,0.20437650382519,1.71174788475037,0.83907198905945
180,3307171585,0.020450,-0.689658,-0.021651,-0.723523,9.85024738311768,0.01413093786687,0.46668893098831,0.34614279866219,1.62725162506104,0.97092610597610
181,3307188252,0.020516,-0.689554,-0.021522,-0.723623,9.83463573455811,-0.00059703731677,0.43853858113289,0.62177383899689,1.65761542320251,0.83056855201721
182,3307204919,0.020601,-0.689455,-0.021409,-0.723719,9.81681346893311,0.00865508709103,0.47094818949699,0.81929898262024,1.61594343185425,0.85406821966171
183,3307221586,0.020677,-0.689365,-0.021330,-0.723805,9.81253433227539,-0.00225171050988,0.45745474100113,0.88769769668579,1.51597714424133,0.64862877130508
184,3307238253,0.020719,-0.689261,-0.021242,-0.723905,9.83554267883301,-0.01073544379324,0.46827739477158,0.57024121284485,1.64917623996735,0.51085811853409
185,3307254920,0.020723,-0.689175,-0.021124,-0.723990,9.79938030242920,-0.02042203210294,0.46937838196754,0.30529057979584,1.49144017696381,0.47283607721329
186,3307271587,0.020686,-0.689102,-0.021006,-0.724065,9.79420757293701,-0.02460405230522,0.45437085628510,0.10553712397814,1.36762845516205,0.26929190754890
187,3307288254,0.020611,-0.689030,-0.020875,-0.724139,9.83670616149902,-0.03817953541875,0.44320639967918,-0.08857511729002,1.35573124885559,0.14841277897358
188,3307304921,0.020593,-0.688959,-0.020818,-0.724208,9.80114269256592,-0.01661877147853,0.45421338081360,0.51476407051086,1.32830023765564,0.07472504675388
189,3307321588,0.020615,-0.688916,-0.020767,-0.724251,9.76407146453857,0.01911724358797,0.46856054663658,0.80395710468292,1.06680738925934,0.26155689358711
190,3307338255,0.020752,-0.688914,-0.020784,-0.724248,9.80897808074951,-0.01690123789012,0.42990359663963,1.72715389728546,0.65034484863281,0.52579027414322
191,3307354922,0.020923,-0.688895,-0.020852,-0.724259,9.85938835144043,0.03352667763829,0.47349733114243,2.16237783432007,0.79911619424820,0.45315262675285
192,3307371589,0.021073,-0.688890,-0.020890,-0.724258,9.91037654876709,0.04856012016535,0.50623041391373,1.74975717067719,0.67794251441956,0.47734382748604
193,3307388256,0.021095,-0.688865,-0.020778,-0.724285,9.84567642211914,0.07156039774418,0.54296833276749,0.52345949411392,0.91323357820511,0.55612850189209
194,3307404923,0.021039,-0.688805,-0.020546,-0.724350,9.82671451568604,0.05185699090362,0.55539417266846,-0.52126324176788,1.26922464370728,0.72006261348724
195,3307421590,0.020936,-0.688742,-0.020266,-0.724421,9.81673622131348,0.04842325672507,0.55721461772919,-0.86239886283875,1.31204903125763,0.71867960691452
196,3307438257,0.020850,-0.688666,-0.019964,-0.724504,9.79979610443115,0.01796046830714,0.52347546815872,-0.99472677707672,1.44762969017029,0.89862155914307
197,3307454924,0.020810,-0.688598,-0.019749,-0.724576,9.79555130004883,-0.03263754397631,0.49310415983200,-0.28307795524597,1.34133708477020,0.72227811813354
198,3307471591,0.020842,-0.688534,-0.019715,-0.724636,9.80945682525635,-0.03974062204361,0.51033884286880,0.86216181516647,1.25491976737976,0.22699253261089
199,3307488258,0.020918,-0.688452,-0.019788,-0.724710,9.83258438110352,-0.02566919103265,0.51137852668762,1.69419050216675,1.39496994018555,-0.06689397245646
200,3307504925,0.020994,-0.688360,-0.019835,-0.724794,9.84044170379639,0.00199128896929,0.51579028367996,1.55449879169464,1.50023841857910,0.05406841263175
201,3307521592,0.021032,-0.688279,-0.019818,-0.724871,9.85426807403564,0.02633658051491,0.52781945466995,1.03310096263885,1.41430759429932,0.16626483201981
202,3307538259,0.021033,-0.688206,-0.019745,-0.724941,9.83730983734131,0.02367253974080,0.51392722129822,0.60785341262817,1.34775316715240,0.25429570674896
203,3307554926,0.020977,-0.688152,-0.019611,-0.724998,9.82048702239990,0.03023180551827,0.51481938362122,0.05775664001703,1.18842935562134,0.25973841547966
204,3307571593,0.020911,-0.688109,-0.019456,-0.725045,9.81648445129395,0.00136073026806,0.50530695915222,-0.08970207720995,1.09061431884766,0.32017153501511
205,3307588260,0.020846,-0.688056,-0.019325,-0.725101,9.81147003173828,-0.03583393245935,0.49395605921745,0.02937776409090,1.17735183238983,0.19970223307610
206,3307604927,0.020810,-0.687992,-0.019207,-0.725165,9.77176570892334,-0.03921202570200,0.51465064287186,0.24429391324520,1.27231073379517,0.28883439302444
207,3307621594,0.020801,-0.687953,-0.019127,-0.725205,9.78915500640869,-0.01941617578268,0.53472983837128,0.53982609510422,1.03383111953735,0.24786689877510
208,3307638261,0.020824,-0.687947,-0.019080,-0.725211,9.79547786712646,-0.03530997037888,0.55160415172577,0.83223342895508,0.70327347517014,0.25328394770622
209,3307654928,0.020847,-0.687943,-0.019088,-0.725214,9.79407691955566,-0.03966566547751,0.49810445308685,1.13574397563934,0.67740464210510,0.00313755543903
210,3307671595,0.020864,-0.687923,-0.019157,-0.725231,9.82916927337646,-0.02740665152669,0.50908815860748,1.40607309341431,0.81216585636139,-0.32498031854630
211,3307688262,0.020860,-0.687887,-0.019180,-0.725265,9.83155441284180,-0.01994115300477,0.51252025365829,1.07837152481079,0.97640734910965,-0.21426945924759
212,3307704929,0.020863,-0.687859,-0.019152,-0.725292,9.82191658020020,-0.00747987441719,0.50996261835098,0.83868783712387,0.91263163089752,0.06111190468073
213,3307721596,0.020835,-0.687857,-0.019131,-0.725295,9.78718090057373,-0.03515822440386,0.53511190414429,0.76224678754807,0.66033381223679,-0.11211317777634
214,3307738263,0.020768,-0.687901,-0.019126,-0.725255,9.74712848663330,-0.07852278649807,0.56773722171783,0.69690871238708,0.21965450048447,-0.37504032254219
215,3307754930,0.020656,-0.687933,-0.019197,-0.725226,9.71799373626709,-0.09160813689232,0.53892374038696,0.79725933074951,0.31645771861076,-0.96665531396866
216,3307771597,0.020512,-0.687931,-0.019375,-0.725228,9.74161338806152,-0.09284834563732,0.51531004905701,1.18118107318878,0.61638242006302,-1.63181722164154
217,3307788264,0.020376,-0.687911,-0.019629,-0.725244,9.78817558288574,-0.06855117529631,0.50466632843018,1.59983313083649,0.76096600294113,-1.96291208267212
218,3307804931,0.020303,-0.687909,-0.019948,-0.725238,9.83924293518066,-0.05025134235620,0.48308777809143,2.21415376663208,0.56668102741241,-1.94986295700073
219,3307821598,0.020287,-0.687931,-0.020281,-0.725209,9.89797210693359,0.01495501771569,0.47612473368645,2.56481742858887,0.34698808193207,-1.72759592533112
220,3307838265,0.020302,-0.687981,-0.020567,-0.725153,9.89236068725586,0.08034829795361,0.47240731120110,2.50309085845947,0.08006529510021,-1.33638739585876
221,3307854932,0.020294,-0.688064,-0.020748,-0.725069,9.87833976745605,0.10156386345625,0.49805733561516,1.84536921977997,-0.19700646400452,-0.94717681407928
222,3307871599,0.020223,-0.688138,-0.020805,-0.724999,9.86519622802734,0.12401986867189,0.51261287927628,0.89723843336105,-0.07525651901960,-0.68567109107971
223,3307888266,0.020087,-0.688200,-0.020755,-0.724946,9.85430049896240,0.10113514214754,0.52637493610382,0.09767402708530,0.06688756495714,-0.50096517801285
224,3307904933,0.019926,-0.688247,-0.020646,-0.724909,9.84061717987061,0.04990239813924,0.50707399845123,-0.31002250313759,0.21772074699402,-0.34928679466248
225,3307921600,0.019824,-0.688273,-0.020573,-0.724889,9.83978748321533,0.01417250931263,0.51816737651825,0.14161261916161,0.40885552763939,-0.23450347781181
226,3307938267,0.019819,-0.688289,-0.020587,-0.724874,9.83512115478516,-0.00272183166817,0.51260328292847,1.02211320400238,0.49163573980331,-0.16321052610874
227,3307954934,0.019893,-0.688300,-0.020709,-0.724858,9.85762405395508,0.02347268350422,0.52580070495605,1.92426919937134,0.50090759992599,-0.28457629680634
228,3307971601,0.020002,-0.688295,-0.020867,-0.724855,9.86629676818848,0.06553439795971,0.51745575666428,2.25737547874451,0.64809101819992,-0.27780178189278
229,3307988268,0.020082,-0.688290,-0.020983,-0.724854,9.85391712188721,0.10484355688095,0.51626157760620,1.91881358623505,0.64891040325165,-0.23335085809231
230,3308004935,0.020106,-0.688290,-0.021005,-0.724853,9.85289478302002,0.09965675324202,0.53965079784393,1.19534456729889,0.63934421539307,-0.06043956428766
231,3308021602,0.020073,-0.688280,-0.020934,-0.724865,9.86284255981445,0.03511084616184,0.54467743635178,0.46722689270973,0.74675112962723,0.09116841107607
232,3308038269,0.020022,-0.688251,-0.020836,-0.724896,9.83538055419922,0.03069287724793,0.53647637367249,0.21611995995045,0.93755286931992,0.12628340721130
233,3308054936,0.019967,-0.688224,-0.020744,-0.724927,9.80241870880127,0.01637063361704,0.50486332178116,0.26203072071075,0.92607837915421,0.07539097219706
234,3308071603,0.019908,-0.688222,-0.020676,-0.724933,9.80481815338135,0.01012100372463,0.48860639333725,0.36516025662422,0.67821145057678,-0.04933645948768
235,3308088270,0.019871,-0.688235,-0.020646,-0.724922,9.82839488983154,-0.01545316260308,0.45223826169968,0.65364885330200,0.51760703325272,-0.11294559389353
236,3308104937,0.019913,-0.688234,-0.020733,-0.724919,9.82892894744873,-0.00301203643903,0.47011673450470,1.57323467731476,0.62402778863907,-0.28503733873367
237,3308121604,0.019966,-0.688261,-0.020783,-0.724891,9.78796482086182,0.03385905176401,0.48613485693932,1.44543993473053,0.37709584832191,-0.04343273490667
238,3308138271,0.020112,-0.688330,-0.020884,-0.724818,9.80206394195557,0.01985036209226,0.49475112557411,2.06402492523193,-0.04886262863874,0.18921381235123
239,3308154938,0.020242,-0.688398,-0.020980,-0.724747,9.83846378326416,0.03827414661646,0.50359332561493,2.08322167396545,-0.02609293907881,0.13902574777603
240,3308171605,0.020325,-0.688475,-0.021014,-0.724671,9.87448501586914,0.05731585621834,0.52612936496735,1.49616587162018,-0.09967821836472,0.19281238317490
241,3308188272,0.020344,-0.688537,-0.020957,-0.724613,9.85458087921143,0.05462784692645,0.53055715560913,0.83829081058502,0.06914147734642,0.30744203925133
242,3308204939,0.020288,-0.688557,-0.020827,-0.724599,9.86082649230957,0.02842727117240,0.50517147779465,0.00796554889530,0.48095524311066,0.26171055436134
243,3308221606,0.020228,-0.688560,-0.020699,-0.724602,9.84674739837646,0.03668830916286,0.49612367153168,0.04551376774907,0.64811652898788,0.23262733221054
244,3308238273,0.020174,-0.688583,-0.020558,-0.724586,9.82000160217285,0.02015194110572,0.50928056240082,-0.02656677179039,0.46118223667145,0.32634419202805
245,3308254940,0.020160,-0.688623,-0.020466,-0.724550,9.81411075592041,0.00486006587744,0.47710537910461,0.44073051214218,0.27905035018921,0.29747867584229
246,3308271607,0.020180,-0.688654,-0.020513,-0.724519,9.82985591888428,-0.01452634856105,0.48950576782227,1.28630816936493,0.32891827821732,-0.19512394070625
247,3308288274,0.020251,-0.688667,-0.020609,-0.724502,9.84084224700928,0.01053811702877,0.49167922139168,1.77608692646027,0.49504223465919,-0.17208531498909
248,3308304941,0.020341,-0.688674,-0.020714,-0.724490,9.85179805755615,0.02024162001908,0.50451809167862,1.92350065708160,0.54183655977249,-0.11965610831976
249,3308321608,0.020416,-0.688665,-0.020779,-0.724494,9.83733749389648,0.03627426177263,0.46958330273628,1.61169195175171,0.70502805709839,-0.01976660080254
250,3308338275,0.020457,-0.688668,-0.020807,-0.724489,9.85145092010498,0.02641743794084,0.49794420599937,1.26204013824463,0.60335832834244,-0.00553874578327
251,3308354942,0.020460,-0.688676,-0.020799,-0.724482,9.85306453704834,0.04660487920046,0.51459532976151,0.91215789318085,0.56659138202667,-0.02373657003045
252,3308371609,0.020420,-0.688674,-0.020742,-0.724487,9.84531307220459,0.02460788190365,0.49307674169540,0.49424824118614,0.67312729358673,-0.00707550812513
253,3308388276,0.020366,-0.688671,-0.020673,-0.724493,9.84398651123047,-0.00742808403447,0.49511161446571,0.32187476754189,0.68433290719986,-0.02214858122170
254,3308404943,0.020321,-0.688667,-0.020618,-0.724500,9.81768989562988,-0.00188421620987,0.46908158063889,0.53435772657394,0.69603788852692,-0.04344553872943
255,3308421610,0.020289,-0.688664,-0.020604,-0.724504,9.82599449157715,0.02490226924419,0.50574976205826,0.75165587663651,0.66808164119720,-0.16875566542149
256,3308438277,0.020297,-0.688701,-0.020596,-0.724469,9.80730724334717,0.00591294420883,0.52278697490692,0.98400145769119,0.29272753000259,0.01030911132693
257,3308454944,0.020330,-0.688734,-0.020642,-0.724435,9.77517700195312,-0.02251550368965,0.51699787378311,1.32922220230103,0.31206509470940,-0.12133374810219
258,3308471611,0.020349,-0.688730,-0.020736,-0.724436,9.84302902221680,0.02013619802892,0.47276675701141,1.50651347637177,0.65517294406891,-0.43334770202637
259,3308488278,0.020357,-0.688701,-0.020815,-0.724461,9.87856578826904,0.05637108534575,0.48407876491547,1.39290821552277,0.88718545436859,-0.41840264201164
260,3308504945,0.020337,-0.688674,-0.020814,-0.724487,9.86472702026367,0.07895830273628,0.48313710093498,0.85992079973221,0.89244896173477,-0.17339156568050
261,3308521612,0.020323,-0.688660,-0.020765,-0.724503,9.85809230804443,0.05304695293307,0.48857697844505,0.64843666553497,0.79175257682800,0.07651793956757
262,3308538279,0.020309,-0.688676,-0.020711,-0.724489,9.82770061492920,0.04380853846669,0.50948077440262,0.64304512739182,0.50086915493011,0.11137680709362
263,3308554946,0.020307,-0.688684,-0.020659,-0.724482,9.80741405487061,0.01535011548549,0.48288244009018,0.69766432046890,0.57102227210999,0.16392126679420
264,3308571613,0.020319,-0.688673,-0.020620,-0.724494,9.80477523803711,0.00716717028990,0.50083482265472,0.85735958814621,0.75990325212479,0.16512510180473
265,3308588280,0.020324,-0.688660,-0.020591,-0.724507,9.82483482360840,0.02089470811188,0.50438386201859,0.82481849193573,0.76806074380875,0.08358704298735
266,3308604947,0.020323,-0.688635,-0.020581,-0.724531,9.83290672302246,0.00848407857120,0.48283192515373,0.91080039739609,0.87215083837509,-0.04676238447428
267,3308621614,0.020306,-0.688599,-0.020556,-0.724566,9.82481956481934,0.01465149875730,0.52179950475693,0.72903996706009,0.98976445198059,-0.05255085974932
268,3308638281,0.020292,-0.688573,-0.020517,-0.724592,9.82854843139648,0.01568955183029,0.50174587965012,0.69902181625366,0.89413940906525,0.03091453015804
269,3308654948,0.020283,-0.688553,-0.020511,-0.724612,9.85387802124023,0.01785070635378,0.50585186481476,0.89415210485458,0.83321946859360,-0.09929402917624
270,3308671615,0.020278,-0.688532,-0.020505,-0.724632,9.84807682037354,0.01042299903929,0.49481579661369,0.92664194107056,0.83647233247757,-0.07972592860460
271,3308688282,0.020279,-0.688517,-0.020507,-0.724647,9.83710002899170,0.01128717884421,0.50555586814880,0.95500797033310,0.78344130516052,-0.09062413871288
272,3308704949,0.020277,-0.688487,-0.020496,-0.724676,9.81444072723389,0.03344421461225,0.49194881320000,0.89494621753693,0.92948478460312,-0.04069217294455
273,3308721616,0.020256,-0.688449,-0.020466,-0.724713,9.82669734954834,0.04172241315246,0.50241041183472,0.71149516105652,1.00056004524231,-0.05086041614413
274,3308738283,0.020223,-0.688413,-0.020417,-0.724749,9.83421707153320,0.02139840647578,0.49112614989281,0.54927712678909,0.98989248275757,-0.01931837946177
275,3308754950,0.020194,-0.688387,-0.020355,-0.724777,9.80973243713379,0.01647179014981,0.50630909204483,0.51227957010269,0.90476858615875,0.06535080075264
276,3308771617,0.020170,-0.688371,-0.020333,-0.724793,9.81325721740723,0.01221003197134,0.50001138448715,0.75593316555023,0.79879599809647,-0.09665591269732
277,3308788284,0.020172,-0.688355,-0.020333,-0.724808,9.83025264739990,0.00146045128349,0.49543637037277,0.86695146560669,0.78775697946548,-0.07961066812277
278,3308804951,0.020151,-0.688334,-0.020342,-0.724828,9.84269237518311,0.01874436810613,0.50191873311996,0.89946675300598,0.83097839355469,-0.22760084271431
279,3308821618,0.020173,-0.688325,-0.020358,-0.724837,9.82344532012939,0.01611717231572,0.50995707511902,1.06827998161316,0.72783613204956,-0.05092445015907
280,3308838285,0.020183,-0.688320,-0.020357,-0.724841,9.79439258575439,0.02143969945610,0.50474745035172,0.99779397249222,0.68476843833923,-0.02419759705663
281,3308854952,0.020194,-0.688316,-0.020350,-0.724844,9.80504035949707,0.04223154112697,0.51302969455719,0.92240297794342,0.67348599433899,0.00175447005313
282,3308871619,0.020173,-0.688324,-0.020326,-0.724838,9.80231761932373,0.01954698562622,0.50873607397079,0.71724522113800,0.57072770595551,-0.06324415653944
283,3308888286,0.020124,-0.688314,-0.020288,-0.724850,9.81633567810059,0.02151649072766,0.52249801158905,0.53775143623352,0.74790358543396,-0.14556336402893
284,3308904953,0.020054,-0.688300,-0.020271,-0.724866,9.82709121704102,-0.01273654215038,0.52411752939224,0.55197930335999,0.77396452426910,-0.35084918141365
285,3308921620,0.019984,-0.688290,-0.020250,-0.724877,9.83394813537598,0.00597527623177,0.50837242603302,0.52632814645767,0.73277932405472,-0.32711896300316
286,3308938287,0.019904,-0.688322,-0.020213,-0.724850,9.86720275878906,-0.01262758765370,0.47511345148087,0.40834322571754,0.34461882710457,-0.29082578420639
287,3308954954,0.019901,-0.688358,-0.020257,-0.724815,9.82332706451416,-0.01385499816388,0.48676261305809,1.18764817714691,0.29190796613693,-0.29484701156616
288,3308971621,0.019894,-0.688402,-0.020295,-0.724773,9.80355834960938,0.03218162432313,0.50274926424026,1.11868596076965,0.21058763563633,-0.27693092823029
289,3308988288,0.019928,-0.688444,-0.020346,-0.724730,9.82440090179443,0.01878856495023,0.52380168437958,1.35550105571747,0.22805547714233,-0.14062012732029
290,3309004955,0.019947,-0.688480,-0.020394,-0.724694,9.89429759979248,0.02025719545782,0.49273115396500,1.26784145832062,0.28059995174408,-0.19681438803673
291,3309021622,0.019988,-0.688540,-0.020440,-0.724634,9.88545703887939,0.04090467467904,0.52920854091644,1.40463876724243,0.05621987581253,-0.07525651156902
292,3309038289,0.019997,-0.688584,-0.020447,-0.724592,9.83155727386475,0.03353914245963,0.54375809431076,1.01439094543457,0.22183157503605,-0.05416445434093
293,3309054956,0.019958,-0.688587,-0.020395,-0.724592,9.81866359710693,0.07005118578672,0.51538866758347,0.50965428352356,0.62281119823456,-0.02891033701599
294,3309071623,0.019873,-0.688562,-0.020290,-0.724621,9.82476425170898,0.10231618583202,0.50252443552017,0.03831659629941,0.90460211038589,-0.01005938835442
295,3309088290,0.019743,-0.688517,-0.020092,-0.724673,9.81164073944092,0.05442567169666,0.52926099300385,-0.70235782861710,1.11699533462524,0.19694884121418
296,3309104957,0.019595,-0.688485,-0.019907,-0.724713,9.81158924102783,-0.00897561945021,0.52610778808594,-0.65825277566910,0.99267131090164,0.05273653939366
297,3309121624,0.019487,-0.688497,-0.019832,-0.724706,9.83769893646240,-0.03793283179402,0.50223541259766,0.02351245842874,0.54339903593063,-0.26380440592766
298,3309138291,0.019465,-0.688531,-0.019872,-0.724673,9.84885787963867,-0.03557924181223,0.49025610089302,1.05293798446655,0.30158951878548,-0.36642163991928
299,3309154958,0.019494,-0.688545,-0.019986,-0.724656,9.82557010650635,-0.00790086481720,0.48233363032341,1.70430731773376,0.47774085402489,-0.46564528346062
300,3309171625,0.019532,-0.688526,-0.020096,-0.724670,9.82823562622070,0.03010812029243,0.49938729405403,1.68389403820038,0.79112505912781,-0.41342100501060
301,3309188292,0.019524,-0.688525,-0.020179,-0.724669,9.83280944824219,0.05309465155005,0.51525515317917,1.29258322715759,0.62637138366699,-0.50864899158478
302,3309204959,0.019455,-0.688523,-0.020191,-0.724673,9.83600616455078,0.06095390394330,0.52208465337753,0.66260051727295,0.65299576520920,-0.48152515292168
303,3309221626,0.019347,-0.688528,-0.020155,-0.724671,9.84955406188965,0.07248972356319,0.48901772499084,0.22476424276829,0.59176868200302,-0.44831824302673
304,3309238293,0.019235,-0.688537,-0.020086,-0.724668,9.82998847961426,0.02249792031944,0.47143709659576,0.07934813946486,0.57002347707748,-0.30717951059341
305,3309254960,0.019142,-0.688535,-0.020029,-0.724674,9.81729698181152,0.01071789301932,0.48703652620316,0.19552731513977,0.67659783363342,-0.27056616544724
306,3309271627,0.019085,-0.688521,-0.020022,-0.724688,9.82227420806885,0.03810737654567,0.48043832182884,0.59690397977829,0.76725405454636,-0.33954116702080
307,3309288294,0.019071,-0.688525,-0.020034,-0.724685,9.81640720367432,0.02670449391007,0.47827374935150,0.95639097690582,0.59593057632446,-0.20095083117485
308,3309304961,0.019079,-0.688560,-0.020087,-0.724650,9.79306030273438,0.01732323691249,0.45504811406136,1.21013605594635,0.29973262548447,-0.28155401349068
309,3309321628,0.019110,-0.688580,-0.020172,-0.724628,9.83077430725098,0.02975999750197,0.46875607967377,1.52194488048553,0.42537564039230,-0.32156100869179
310,3309338295,0.019141,-0.688589,-0.020242,-0.724616,9.85575771331787,0.05044436454773,0.50327634811401,1.50999653339386,0.53353810310364,-0.25002476572990
311,3309354962,0.019161,-0.688605,-0.020254,-0.724601,9.84107017517090,0.06260808557272,0.52003675699234,1.07263410091400,0.48591130971909,-0.02929452434182
312,3309371629,0.019170,-0.688632,-0.020215,-0.724576,9.83469295501709,0.04870786517859,0.51226568222046,0.79313558340073,0.38945385813713,0.15712109208107
313,3309388296,0.019168,-0.688649,-0.020162,-0.724561,9.82157421112061,0.04385615512729,0.51603537797928,0.68873834609985,0.49669429659843,0.17305222153664
314,3309404963,0.019146,-0.688668,-0.020106,-0.724545,9.83187389373779,0.03020144440234,0.50382328033447,0.57345551252365,0.47202926874161,0.07842608541250
315,3309421630,0.019126,-0.688677,-0.020058,-0.724539,9.81264781951904,0.02860608138144,0.51539224386215,0.57988435029984,0.56482404470444,0.04929163679481
316,3309438297,0.019077,-0.688677,-0.020028,-0.724540,9.80091094970703,0.00368767674081,0.50820451974869,0.54411619901657,0.64033025503159,-0.18270178139210
317,3309454964,0.019036,-0.688656,-0.020041,-0.724561,9.83119773864746,-0.00631342548877,0.50159275531769,0.82334583997726,0.83256638050079,-0.34922277927399
318,3309471631,0.018985,-0.688635,-0.020090,-0.724581,9.85593795776367,-0.00471592368558,0.49447530508041,0.98050546646118,0.82483136653900,-0.56197470426559
319,3309488298,0.018962,-0.688633,-0.020166,-0.724582,9.84988403320312,0.02898673154414,0.49744197726250,1.19464027881622,0.64430022239685,-0.55345839262009
320,3309504965,0.018958,-0.688632,-0.020227,-0.724580,9.83523178100586,0.06970325112343,0.51274555921555,1.20989274978638,0.62315708398819,-0.38730883598328
321,3309521632,0.018936,-0.688655,-0.020253,-0.724559,9.83997535705566,0.07349357753992,0.47736111283302,0.95991265773773,0.42125204205513,-0.30863940715790
322,3309538299,0.018908,-0.688697,-0.020250,-0.724520,9.82595634460449,0.04789719358087,0.48658031225204,0.81231963634491,0.23581612110138,-0.19278039038181
323,3309554966,0.018866,-0.688727,-0.020213,-0.724493,9.82348346710205,0.04403384029865,0.47453051805496,0.58548074960709,0.36170253157616,-0.10176564753056
324,3309571633,0.018824,-0.688748,-0.020176,-0.724476,9.80599212646484,0.03821502253413,0.49441444873810,0.53971076011658,0.45148777961731,-0.10610700398684
325,3309588300,0.018783,-0.688760,-0.020134,-0.724467,9.82221126556396,0.04254652559757,0.51743775606155,0.53010606765747,0.53554880619049,-0.08181335777044
326,3309604967,0.018739,-0.688765,-0.020081,-0.724464,9.83951663970947,0.04895865917206,0.49445709586143,0.46626639366150,0.60242354869843,-0.04911875724792
327,3309621634,0.018714,-0.688772,-0.020067,-0.724459,9.82233142852783,0.02055893652141,0.50879919528961,0.73363733291626,0.57661861181259,-0.13214229047298
328,3309638301,0.018699,-0.688780,-0.020086,-0.724451,9.83732604980469,0.02800128236413,0.51993274688721,0.89296114444733,0.55652552843094,-0.24468451738358
329,3309654968,0.018708,-0.688782,-0.020126,-0.724448,9.84196090698242,0.03068563900888,0.46708726882935,1.17160177230835,0.61068361997604,-0.22296494245529
330,3309671635,0.018717,-0.688782,-0.020162,-0.724447,9.83845424652100,0.05858538672328,0.48373895883560,1.18100166320801,0.62571829557419,-0.20114293694496
331,3309688302,0.018717,-0.688785,-0.020175,-0.724443,9.83970355987549,0.04308218136430,0.49254739284515,1.06871557235718,0.60636788606644,-0.13631719350815
332,3309704969,0.018698,-0.688797,-0.020165,-0.724433,9.82079601287842,0.05975984409451,0.50358009338379,0.80866968631744,0.52976024150848,-0.12306261807680
333,3309721636,0.018678,-0.688797,-0.020113,-0.724434,9.80474853515625,0.05152652785182,0.52369540929794,0.56200671195984,0.64697676897049,0.06532518565655
334,3309738303,0.018649,-0.688821,-0.020055,-0.724414,9.81334877014160,0.04072910547256,0.49283003807068,0.54574257135391,0.42723256349564,0.06148328259587
335,3309754970,0.018646,-0.688841,-0.020038,-0.724396,9.82741832733154,0.01914202980697,0.47131478786469,0.78643792867661,0.45658475160599,-0.01164737530053
336,3309771637,0.018664,-0.688855,-0.020042,-0.724382,9.81805133819580,0.01905054971576,0.49385994672775,1.06839525699615,0.49880728125572,0.00152395549230
337,3309788304,0.018693,-0.688867,-0.020088,-0.724369,9.81171607971191,0.02508976869285,0.49905318021774,1.29228878021240,0.51642882823944,-0.15305508673191
338,3309804971,0.018710,-0.688877,-0.020112,-0.724357,9.81352329254150,0.05293840914965,0.48712542653084,1.09667181968689,0.53300034999847,-0.10526180267334
339,3309821638,0.018701,-0.688900,-0.020091,-0.724337,9.88248825073242,0.01045518461615,0.49478003382683,0.79186785221100,0.42770650982857,-0.01837071031332
340,3309838305,0.018732,-0.688925,-0.020136,-0.724311,9.84266662597656,0.01919975131750,0.48561331629753,1.28575742244720,0.38705906271935,-0.13584333658218
341,3309854972,0.018769,-0.688948,-0.020147,-0.724288,9.79634475708008,0.05359392240644,0.47883149981499,1.23308503627777,0.42131614685059,0.06862923502922
342,3309871639,0.018874,-0.688973,-0.020228,-0.724259,9.80450439453125,0.02699021436274,0.47801816463470,1.81713104248047,0.38048940896988,0.06669545918703
343,3309888306,0.019006,-0.688984,-0.020356,-0.724242,9.87802982330322,0.01777929067612,0.48748475313187,2.16424775123596,0.50659358501434,-0.02546542882919
344,3309904973,0.019122,-0.688991,-0.020478,-0.724228,9.90338706970215,0.02389624342322,0.50538909435272,2.11639022827148,0.53750813007355,-0.07726711779833
345,3309921640,0.019197,-0.689007,-0.020527,-0.724210,9.86638545989990,0.03350601345301,0.52078598737717,1.50685918331146,0.47721576690674,0.07020440697670
346,3309938307,0.019221,-0.689017,-0.020511,-0.724200,9.87153530120850,0.05085122212768,0.48570355772972,0.99813961982727,0.54786843061447,0.11788245290518
347,3309954974,0.019201,-0.689008,-0.020444,-0.724211,9.82740879058838,0.08758074045181,0.49716335535049,0.49531117081642,0.73872148990631,0.13620832562447
348,3309971641,0.019136,-0.688991,-0.020282,-0.724233,9.82027816772461,0.07471147924662,0.48990860581398,-0.16422224044800,0.83935385942459,0.36254778504372
349,3309988308,0.019058,-0.688971,-0.020168,-0.724258,9.80459117889404,0.00520179932937,0.49741998314857,0.00122940947767,0.85862731933594,0.06532518565655
350,3310004975,0.019033,-0.688978,-0.020169,-0.724252,9.81171417236328,-0.03806953877211,0.48147523403168,0.79398083686829,0.57282799482346,-0.20243635773659
351,3310021642,0.019107,-0.688980,-0.020294,-0.724244,9.81814575195312,-0.01875981874764,0.48402079939842,1.90366387367249,0.58476352691650,-0.30369618535042
352,3310038309,0.019262,-0.688982,-0.020494,-0.724232,9.81802558898926,0.01939095556736,0.44969591498375,2.63198685646057,0.56265974044800,-0.25159996747971
353,3310054976,0.019437,-0.688970,-0.020697,-0.724233,9.82711029052734,0.04851884394884,0.49271374940872,2.75397992134094,0.70095556974411,-0.17436486482620
354,3310071643,0.019538,-0.688951,-0.020812,-0.724245,9.82125663757324,0.07265959680080,0.48525071144104,1.97034668922424,0.78689903020859,-0.12628982961178
355,3310088310,0.019525,-0.688935,-0.020825,-0.724260,9.83667182922363,0.07740565389395,0.51997435092926,1.01906514167786,0.78638672828674,-0.20417803525925
356,3310104977,0.019425,-0.688925,-0.020748,-0.724275,9.84548568725586,0.05341773480177,0.48558822274208,0.08377913385630,0.75268042087555,-0.21198992431164
357,3310121644,0.019287,-0.688927,-0.020627,-0.724281,9.84182262420654,0.00204916670918,0.50124835968018,-0.30543783307076,0.65846407413483,-0.19549532234669
358,3310138311,0.019176,-0.688909,-0.020522,-0.724304,9.82152366638184,0.00399487745017,0.47244742512703,-0.01825544983149,0.83265596628189,-0.13374310731888
359,3310154978,0.019104,-0.688880,-0.020469,-0.724334,9.83556175231934,0.02511699683964,0.49567812681198,0.37096148729324,0.92287671566010,-0.19132046401501
360,3310171645,0.019113,-0.688885,-0.020492,-0.724329,9.82422733306885,0.00802670046687,0.48199543356895,1.10315179824829,0.58071672916412,-0.14012067019939
361,3310188312,0.019148,-0.688906,-0.020589,-0.724305,9.81476688385010,-0.01876509934664,0.51798206567764,1.58738565444946,0.41332498192787,-0.35666328668594
362,3310204979,0.019197,-0.688898,-0.020727,-0.724307,9.83098125457764,0.02715835347772,0.50627225637436,1.88182902336121,0.67988914251328,-0.48863264918327
363,3310221646,0.019205,-0.688868,-0.020828,-0.724333,9.84458827972412,0.07863669842482,0.50646275281906,1.52067720890045,0.89422893524170,-0.52123761177063
364,3310238313,0.019152,-0.688846,-0.020807,-0.724356,9.83831596374512,0.10422483086586,0.48249289393425,0.61031222343445,0.85648864507675,-0.24746349453926
365,3310254980,0.019044,-0.688811,-0.020694,-0.724396,9.84479999542236,0.07021555304527,0.50058865547180,-0.12833882868290,1.00089299678802,-0.09043203294277
366,3310271647,0.018914,-0.688789,-0.020569,-0.724424,9.85657787322998,0.04259622842073,0.49100029468536,-0.29471892118454,0.87627452611923,-0.13695751130581
367,3310288314,0.018829,-0.688776,-0.020511,-0.724440,9.83847904205322,0.00143504957668,0.48253977298737,0.24484461545944,0.77379798889160,-0.23085364699364
368,3310304981,0.018818,-0.688768,-0.020520,-0.724447,9.81883621215820,0.02409327216446,0.49034905433655,0.91346406936646,0.71150791645050,-0.18431538343430
369,3310321648,0.018847,-0.688743,-0.020583,-0.724469,9.80568408966064,0.04783709347248,0.49171322584152,1.39231908321381,0.86095803976059,-0.23823012411594
370,3310338315,0.018874,-0.688718,-0.020646,-0.724490,9.84117317199707,0.05870096012950,0.48665100336075,1.27038979530334,0.85488784313202,-0.24739946424961
371,3310354982,0.018832,-0.688679,-0.020652,-0.724527,9.84564304351807,0.07166440039873,0.51758110523224,0.79182946681976,1.00251948833466,-0.32901433110237
372,3310371649,0.018752,-0.688636,-0.020584,-0.724572,9.82035446166992,0.07020398974419,0.53204911947250,0.18704952299595,1.06299102306366,-0.16757747530937
373,3310388316,0.018634,-0.688592,-0.020467,-0.724621,9.83261108398438,0.06926684081554,0.49805408716202,-0.25321355462074,1.08355796337128,-0.12362609058619
374,3310404983,0.018509,-0.688556,-0.020349,-0.724662,9.83309555053711,0.04348969087005,0.49650290608406,-0.22760084271431,1.01140701770782,-0.15552669763565
375,3310421650,0.018434,-0.688517,-0.020264,-0.724702,9.84495353698730,0.02936012297869,0.50090354681015,0.13129070401192,1.02300977706909,-0.05735323950648
376,3310438317,0.018414,-0.688477,-0.020237,-0.724742,9.81519985198975,0.02261769026518,0.50230771303177,0.67489469051361,1.02382922172546,-0.06599752604961
377,3310454984,0.018420,-0.688451,-0.020241,-0.724766,9.79980564117432,0.02250627987087,0.45349398255348,0.98543578386307,0.88279289007187,-0.07113286852837
378,3310471651,0.018478,-0.688438,-0.020281,-0.724776,9.80220603942871,0.04363884776831,0.49850341677666,1.41442286968231,0.75630456209183,0.01799292117357
379,3310488318,0.018555,-0.688430,-0.020326,-0.724780,9.82084465026855,0.06029530987144,0.48077678680420,1.54831314086914,0.70095551013947,0.09118120372295
380,3310504985,0.018623,-0.688416,-0.020350,-0.724791,9.81352615356445,0.07062777131796,0.48834365606308,1.37565803527832,0.76745897531509,0.14309814572334
381,3310521652,0.018665,-0.688414,-0.020321,-0.724793,9.80470371246338,0.07543952763081,0.50617456436157,1.02814495563507,0.66411167383194,0.27139216661453
382,3310538319,0.018676,-0.688416,-0.020236,-0.724793,9.81063556671143,0.06984334439039,0.52533113956451,0.62722939252853,0.64591383934021,0.37790256738663
383,3310554986,0.018664,-0.688406,-0.020122,-0.724806,9.82919120788574,0.05247271433473,0.51566267013550,0.30417639017105,0.75726503133774,0.40311825275421
384,3310571653,0.018642,-0.688398,-0.020014,-0.724817,9.84379863739014,0.02874077297747,0.50639605522156,0.28626033663750,0.74107784032822,0.31740534305573
385,3310588320,0.018640,-0.688391,-0.019921,-0.724827,9.81466102600098,0.02570299990475,0.50232422351837,0.50992327928543,0.73126810789108,0.35481271147728
386,3310604987,0.018681,-0.688391,-0.019875,-0.724827,9.83080959320068,0.03032776154578,0.50527596473694,0.89193660020828,0.64981979131699,0.34087941050529
387,3310621654,0.018758,-0.688393,-0.019893,-0.724823,9.84450149536133,0.01996798254550,0.49997088313103,1.36231374740601,0.61900764703751,0.22221575677395
388,3310638321,0.018839,-0.688393,-0.019920,-0.724820,9.84405803680420,0.03723391145468,0.51668703556061,1.46464955806732,0.63367104530334,0.19706413149834
389,3310654988,0.018922,-0.688391,-0.019927,-0.724819,9.83627605438232,0.03953142836690,0.52132785320282,1.35801100730896,0.65553146600723,0.30281895399094
390,3310671655,0.018962,-0.688379,-0.019895,-0.724830,9.83761692047119,0.04747814312577,0.50994312763214,0.88371491432190,0.75207853317261,0.26721727848053
391,3310688322,0.018979,-0.688366,-0.019824,-0.724844,9.83238887786865,0.04556024074554,0.51780962944031,0.71843618154526,0.78497797250748,0.34472131729126
392,3310704989,0.018960,-0.688343,-0.019731,-0.724869,9.81034946441650,0.04756228625774,0.53330785036087,0.41331213712692,0.88325393199921,0.26263260841370
393,3310721656,0.018890,-0.688328,-0.019592,-0.724889,9.82847309112549,0.02019697427750,0.52583575248718,-0.10108691453934,0.81116694211960,0.22336834669113
394,3310738323,0.018862,-0.688324,-0.019510,-0.724896,9.83689785003662,-0.03179606050253,0.47366151213646,0.35934618115425,0.69914978742599,0.16736617684364
395,3310754990,0.018888,-0.688319,-0.019493,-0.724901,9.78905296325684,0.01605948433280,0.51025944948196,0.98053109645844,0.69101786613464,0.12692373991013
396,3310771657,0.018935,-0.688324,-0.019489,-0.724894,9.79648780822754,0.01068275421858,0.50561690330505,1.15236651897430,0.58505797386169,0.17677883803844
397,3310788324,0.019079,-0.688341,-0.019560,-0.724872,9.83863544464111,0.02875336445868,0.50482302904129,1.97908043861389,0.46261656284332,0.31600949168205
398,3310804991,0.019180,-0.688386,-0.019642,-0.724825,9.90077495574951,0.03556850552559,0.51236164569855,1.76773715019226,0.18911135196686,0.04165905341506
399,3310821658,0.019249,-0.688421,-0.019663,-0.724790,9.86427974700928,0.02595128491521,0.53695952892303,1.34896969795227,0.30914530158043,0.17447373270988
400,3310838325,0.019214,-0.688427,-0.019576,-0.724787,9.83347892761230,0.06048439443111,0.53694248199463,0.36017858982086,0.60159111022949,0.16639290750027
401,3310854992,0.019149,-0.688410,-0.019437,-0.724808,9.82231330871582,0.07279851287603,0.53456521034241,-0.05666169524193,0.83015877008438,0.24997994303703
402,3310871659,0.019043,-0.688397,-0.019207,-0.724829,9.78289508819580,0.07734066247940,0.53706783056259,-0.69750422239304,0.81763416528702,0.47564062476158
403,3310888326,0.018927,-0.688393,-0.018967,-0.724843,9.79011440277100,0.00623208563775,0.49380421638489,-0.85712265968323,0.73909288644791,0.48059672117233
404,3310904993,0.018861,-0.688411,-0.018856,-0.724831,9.79994201660156,-0.03433158993721,0.49382057785988,0.10013284534216,0.49867922067642,0.11973936855793
405,3310921660,0.018885,-0.688436,-0.018904,-0.724804,9.82349300384521,-0.03693366423249,0.47594371438026,1.29169952869415,0.37895265221596,-0.17783537507057
406,3310938327,0.019001,-0.688450,-0.019047,-0.724785,9.82731723785400,-0.01940096355975,0.46863675117493,2.11144685745239,0.47583276033401,-0.17877024412155
407,3310954994,0.019129,-0.688461,-0.019184,-0.724767,9.83879566192627,-0.00147354172077,0.50620353221893,2.17377591133118,0.49785968661308,-0.08475883305073
408,3310971661,0.019212,-0.688491,-0.019266,-0.724734,9.84679889678955,0.03165567293763,0.48631337285042,1.76646959781647,0.32863658666611,-0.04356079921126
409,3310988328,0.019230,-0.688542,-0.019268,-0.724685,9.85191345214844,0.05999456718564,0.49780780076981,1.11355054378510,0.15441896021366,0.02036209404469
410,3311004995,0.019190,-0.688589,-0.019202,-0.724644,9.83945846557617,0.05662209168077,0.51752728223801,0.43478837609291,0.21095898747444,0.04794697090983
411,3311021662,0.019141,-0.688638,-0.019081,-0.724601,9.82893753051758,0.02078849263489,0.49562656879425,0.12724389135838,0.20213541388512,0.26341378688812
412,3311038329,0.019067,-0.688675,-0.018963,-0.724571,9.81420326232910,-0.01394365448505,0.47346484661102,-0.01861402764916,0.31511300802231,0.11918869614601
413,3311054996,0.019029,-0.688687,-0.018907,-0.724562,9.79786014556885,-0.02668923512101,0.48841693997383,0.48377263545990,0.53667569160461,0.00094766978873
414,3311071663,0.019007,-0.688733,-0.018879,-0.724520,9.80031013488770,-0.02219730243087,0.49559429287910,0.74612355232239,0.20953746140003,-0.03814370930195
415,3311088330,0.019038,-0.688792,-0.018937,-0.724461,9.79350280761719,-0.03650044649839,0.47537854313850,1.42748546600342,0.06164976954460,-0.18031983077526
416,3311104997,0.019062,-0.688809,-0.019071,-0.724442,9.85256195068359,0.00113665370736,0.46190062165260,1.68170416355133,0.45041209459305,-0.59142923355103
417,3311121664,0.019100,-0.688807,-0.019212,-0.724438,9.89229583740234,0.05568258091807,0.47964113950729,1.77433252334595,0.61549884080887,-0.56091165542603
418,3311138331,0.019116,-0.688807,-0.019245,-0.724437,9.86187648773193,0.07271778583527,0.46811932325363,1.20215785503387,0.62961137294769,-0.14661350846291
419,3311154998,0.019128,-0.688832,-0.019207,-0.724414,9.84042263031006,0.05290595069528,0.46610587835312,0.80001276731491,0.41386279463768,0.16584223508835
420,3311171665,0.019132,-0.688877,-0.019162,-0.724373,9.81491565704346,0.02357414364815,0.47294971346855,0.70870339870453,0.22106319665909,0.16438229382038
421,3311188332,0.019110,-0.688923,-0.019113,-0.724331,9.79307842254639,0.01455158740282,0.48597437143326,0.58986049890518,0.21371237933636,0.05461908504367
422,3311204999,0.019062,-0.688937,-0.019076,-0.724319,9.79624748229980,0.02345634438097,0.47197711467743,0.53904485702515,0.51275336742401,-0.13502372801304
423,3311221666,0.019031,-0.688932,-0.019056,-0.724326,9.79914569854736,-0.01963080838323,0.50040501356125,0.63099443912506,0.69229841232300,-0.14651104807854
424,3311238333,0.019020,-0.688926,-0.019085,-0.724330,9.84379863739014,-0.00759606575593,0.49149852991104,0.95295900106430,0.67950493097305,-0.27230781316757
425,3311255000,0.019027,-0.688941,-0.019127,-0.724315,9.86028861999512,-0.00309484987520,0.48386186361313,1.14519512653351,0.48961240053177,-0.23559203743935
426,3311271667,0.019043,-0.688958,-0.019184,-0.724297,9.87835597991943,0.01679533533752,0.50098317861557,1.26378178596497,0.45970946550369,-0.26617357134819
427,3311288334,0.019065,-0.688992,-0.019228,-0.724263,9.86876487731934,0.04942464083433,0.48398333787918,1.25224339962006,0.30287015438080,-0.17289212346077
428,3311305001,0.019079,-0.689016,-0.019234,-0.724240,9.85279846191406,0.04286854714155,0.48262652754784,1.05685675144196,0.41268455982208,-0.02596487104893
429,3311321668,0.019102,-0.689033,-0.019213,-0.724224,9.85399150848389,0.05573985353112,0.48667165637016,0.88878619670868,0.48219755291939,0.13362145423889
430,3311338335,0.019110,-0.689045,-0.019187,-0.724213,9.82426357269287,0.03571241348982,0.48059257864952,0.78091835975647,0.52905589342117,0.08731368184090
431,3311355002,0.019129,-0.689045,-0.019136,-0.724213,9.81617927551270,0.02182910777628,0.50271183252335,0.68015807867050,0.65022963285446,0.25816324353218
432,3311371669,0.019119,-0.689032,-0.019073,-0.724227,9.81915569305420,-0.00831148680300,0.48567658662796,0.69256740808487,0.77260708808899,0.16821140050888
433,3311388336,0.019131,-0.689023,-0.019038,-0.724237,9.82337379455566,-0.00097205390921,0.46270325779915,0.82127124071121,0.73600655794144,0.14600519835949
434,3311405003,0.019147,-0.689005,-0.019048,-0.724253,9.82606410980225,-0.00758563959971,0.48459285497665,1.06616699695587,0.80248433351517,-0.04513597860932
435,3311421670,0.019179,-0.689004,-0.019086,-0.724253,9.84043216705322,0.00047434755834,0.48135557770729,1.27012097835541,0.64623403549194,-0.10312313586473
436,3311438337,0.019214,-0.689011,-0.019114,-0.724244,9.85328960418701,0.04168684408069,0.46845144033432,1.19205343723297,0.55822873115540,-0.03459635376930
437,3311455004,0.019245,-0.689038,-0.019124,-0.724217,9.84416961669922,0.01295479759574,0.46649003028870,1.16417407989502,0.38147553801537,0.03520465642214
438,3311471671,0.019284,-0.689065,-0.019114,-0.724191,9.84479522705078,0.01242889743298,0.47644028067589,1.07145619392395,0.38087365031242,0.16794247925282
439,3311488338,0.019301,-0.689085,-0.019088,-0.724172,9.81985759735107,0.02180402353406,0.48579096794128,0.90406435728073,0.45666164159775,0.13953799009323
440,3311505005,0.019265,-0.689094,-0.019031,-0.724166,9.80572032928467,0.03612326830626,0.50907307863235,0.49276271462440,0.56723165512085,0.01798011548817
441,3311521672,0.019183,-0.689097,-0.018943,-0.724167,9.84542655944824,0.00779983215034,0.48973646759987,0.07544220238924,0.62737023830414,-0.07232385873795
442,3311538339,0.019127,-0.689098,-0.018895,-0.724169,9.85992908477783,-0.01498430874199,0.47695159912109,0.38095054030418,0.64177751541138,-0.13460114598274
443,3311555006,0.019119,-0.689079,-0.018909,-0.724187,9.81635189056396,0.01953339017928,0.47522056102753,1.06147992610931,0.81703233718872,-0.17930811643600
444,3311571673,0.019197,-0.689098,-0.018914,-0.724167,9.81461715698242,0.02851637266576,0.49170488119125,1.28190279006958,0.45112931728363,0.28754100203514
445,3311588340,0.019319,-0.689107,-0.018998,-0.724153,9.85832500457764,0.01607083901763,0.45802894234657,1.93986749649048,0.53845578432083,0.13825732469559
446,3311605007,0.019423,-0.689122,-0.019083,-0.724134,9.87663269042969,0.04038171470165,0.50686001777649,1.75598108768463,0.47231099009514,0.03233603760600
447,3311621674,0.019477,-0.689148,-0.019087,-0.724108,9.86464023590088,0.03702729567885,0.54200905561447,1.24697995185852,0.39232248067856,0.18323326110840
448,3311638341,0.019459,-0.689143,-0.018998,-0.724115,9.84004878997803,0.02682870626450,0.50497478246689,0.36810570955276,0.70014876127243,0.25023609399796
449,3311655008,0.019358,-0.689093,-0.018864,-0.724169,9.82790184020996,0.04610500112176,0.48488235473633,-0.09642540663481,1.15235364437103,0.04726823419333
450,3311671675,0.019247,-0.689046,-0.018689,-0.724221,9.83550548553467,0.02785212919116,0.50731819868088,-0.46844992041588,1.12297606468201,0.18502613902092
451,3311688342,0.019138,-0.689013,-0.018512,-0.724260,9.80116748809814,-0.02122895978391,0.48798906803131,-0.48074400424957,0.99629557132721,0.20645116269588
452,3311705009,0.019083,-0.689005,-0.018432,-0.724271,9.81046962738037,-0.04423410817981,0.46010053157806,0.27204525470734,0.73856770992279,0.02621459588408
453,3311721676,0.019090,-0.689014,-0.018494,-0.724261,9.79752922058105,-0.03501444309950,0.44197335839272,1.24815809726715,0.53261607885361,-0.33753052353859
454,3311738343,0.019172,-0.689014,-0.018620,-0.724256,9.81318759918213,-0.02751162275672,0.46452683210373,1.95182836055756,0.60851925611496,-0.26582777500153
455,3311755010,0.019252,-0.689017,-0.018756,-0.724247,9.82887840270996,-0.01066331751645,0.47707772254944,1.98228204250336,0.57097107172012,-0.32002425193787
456,3311771677,0.019300,-0.689035,-0.018871,-0.724226,9.83891963958740,0.01740283891559,0.47980159521103,1.71246528625488,0.44093546271324,-0.38198143243790
457,3311788344,0.019295,-0.689065,-0.018936,-0.724195,9.83894538879395,0.02458186633885,0.47777867317200,1.21513056755066,0.33220952749252,-0.39829668402672
458,3311805011,0.019279,-0.689113,-0.018925,-0.724151,9.83781337738037,0.03518630191684,0.48155775666237,0.80097311735153,0.18936750292778,-0.10156075656414
459,3311821678,0.019236,-0.689148,-0.018865,-0.724120,9.82343006134033,0.03026901930571,0.46790739893913,0.31630402803421,0.31585583090782,-0.00156877783593
460,3311838345,0.019165,-0.689175,-0.018777,-0.724098,9.81629562377930,0.01436920091510,0.47263154387474,0.12828120589256,0.40631985664368,-0.00918855518103
461,3311855012,0.019081,-0.689184,-0.018706,-0.724094,9.82804393768311,0.02880634926260,0.51337528228760,0.16144965589046,0.56783354282379,-0.15824165940285
462,3311871679,0.019001,-0.689228,-0.018627,-0.724056,9.82959651947021,-0.00429898779839,0.51342916488647,0.15459825098515,0.23580332100391,-0.09505512565374
463,3311888346,0.018997,-0.689286,-0.018624,-0.724001,9.78457355499268,-0.04342708736658,0.51771622896194,0.85203212499619,0.09631656855345,-0.06796970963478
464,3311905013,0.019018,-0.689327,-0.018742,-0.723958,9.82845211029053,-0.00921923108399,0.47766339778900,1.60198485851288,0.21366114914417,-0.52150660753250
465,3311921680,0.019073,-0.689334,-0.018909,-0.723946,9.87222385406494,0.03659368306398,0.47743642330170,1.99353885650635,0.52764719724655,-0.59797322750092
466,3311938347,0.019132,-0.689317,-0.018989,-0.723958,9.87582778930664,0.06715295463800,0.45465525984764,1.51787269115448,0.78111058473587,-0.17122732102871
467,3311955014,0.019140,-0.689286,-0.018993,-0.723987,9.85274124145508,0.08555188775063,0.48537692427635,0.93976843357086,0.92915195226669,-0.06697081029415
468,3311971681,0.019112,-0.689288,-0.018930,-0.723988,9.82192707061768,0.07046598941088,0.50027203559875,0.46275737881660,0.63867825269699,0.07993723452091
469,3311988348,0.019068,-0.689313,-0.018849,-0.723968,9.81002998352051,0.03827257081866,0.47534233331680,0.17447370290756,0.41771748661995,0.08330530673265
470,3312005015,0.019031,-0.689306,-0.018775,-0.723976,9.79936504364014,0.00861187372357,0.46483182907104,0.37071821093559,0.71611827611923,0.08361266553402
471,3312021682,0.019042,-0.689280,-0.018742,-0.724002,9.82120800018311,-0.00520452344790,0.46829861402512,0.75735479593277,0.89460039138794,0.12580959498882
472,3312038349,0.019090,-0.689265,-0.018757,-0.724014,9.82743263244629,-0.02101354114711,0.45777708292007,1.12594711780548,0.77370840311050,0.08215273916721
473,3312055016,0.019116,-0.689248,-0.018782,-0.724030,9.82705688476562,-0.00268592825159,0.52757006883621,1.15930759906769,0.79637569189072,-0.07173477113247
474,3312071683,0.019125,-0.689254,-0.018801,-0.724024,9.82752513885498,0.00807120092213,0.49543237686157,1.01176559925079,0.57815545797348,-0.12440728396177
475,3312088350,0.019141,-0.689272,-0.018818,-0.724005,9.84456157684326,0.00605489686131,0.46904268860817,1.07004737854004,0.46101579070091,-0.07762568444014
476,3312105017,0.019176,-0.689295,-0.018844,-0.723982,9.83489036560059,0.01243727747351,0.45972812175751,1.23833549022675,0.41619357466698,-0.02022762969136
477,3312121684,0.019221,-0.689298,-0.018876,-0.723977,9.83439922332764,0.02845540270209,0.48874381184578,1.25093710422516,0.59885054826736,-0.00247802888043
478,3312138351,0.019243,-0.689303,-0.018877,-0.723972,9.83152770996094,0.03206092491746,0.48850104212761,1.02727401256561,0.59059041738510,0.02096399292350
479,3312155018,0.019233,-0.689303,-0.018834,-0.723973,9.82939529418945,0.02972952276468,0.49997967481613,0.61439752578735,0.64816778898239,0.07404631376266
480,3312171685,0.019205,-0.689290,-0.018771,-0.723988,9.84194374084473,0.01814529672265,0.50057667493820,0.45462539792061,0.77401572465897,0.07653073966503
481,3312188352,0.019164,-0.689289,-0.018716,-0.723991,9.83407688140869,-0.00679837027565,0.47519928216934,0.47687005996704,0.65988552570343,-0.01565576344728
482,3312205019,0.019147,-0.689281,-0.018701,-0.724000,9.84012699127197,-0.00879013072699,0.47798648476601,0.70611649751663,0.72195792198181,-0.10286699235439
483,3312221686,0.019139,-0.689278,-0.018715,-0.724002,9.84631633758545,-0.00942381843925,0.47215813398361,0.97416633367538,0.65574920177460,-0.17797625064850
484,3312238353,0.019146,-0.689279,-0.018751,-0.724001,9.84091091156006,0.02427050285041,0.47595879435539,1.08426249027252,0.62503951787949,-0.21813696622849
485,3312255020,0.019167,-0.689280,-0.018773,-0.723998,9.83213615417480,0.02057910338044,0.49551045894623,1.12361645698547,0.61488407850266,-0.07916245609522
486,3312271687,0.019179,-0.689283,-0.018802,-0.723994,9.84376716613770,0.02872677147388,0.46591845154762,1.12291193008423,0.60153985023499,-0.15639755129814
487,3312288354,0.019183,-0.689269,-0.018815,-0.724007,9.83098602294922,0.01370000094175,0.49988114833832,0.91635847091675,0.76745891571045,-0.12787780165672
488,3312305021,0.019186,-0.689254,-0.018808,-0.724022,9.82582664489746,0.02643238753080,0.49999961256981,0.87980902194977,0.78980600833893,-0.03769548609853
489,3312321688,0.019168,-0.689235,-0.018776,-0.724041,9.82682895660400,0.04095599800348,0.47723004221916,0.67176991701126,0.82533085346222,-0.01637291722000
490,3312338355,0.019135,-0.689226,-0.018733,-0.724052,9.83098888397217,0.01575629971921,0.48078286647797,0.56335127353668,0.73382937908173,-0.04394498467445
491,3312355022,0.019105,-0.689223,-0.018672,-0.724056,9.82509136199951,-0.01345069985837,0.49381193518639,0.58295780420303,0.67543244361877,0.06628566235304
492,3312371689,0.019113,-0.689229,-0.018653,-0.724051,9.81408214569092,-0.01929057575762,0.50267261266708,0.80105000734329,0.58920735120773,0.04641021043062
493,3312388356,0.019106,-0.689227,-0.018645,-0.724053,9.82991123199463,-0.02513127774000,0.48732128739357,0.80545544624329,0.65454536676407,-0.07278490066528
494,3312405023,0.019087,-0.689220,-0.018651,-0.724060,9.82733917236328,0.00625809747726,0.48639774322510,0.82344830036163,0.70126295089722,-0.20648318529129
495,3312421690,0.019034,-0.689221,-0.018640,-0.724061,9.82963752746582,0.00991226173937,0.49969157576561,0.64967882633209,0.63274890184402,-0.28604897856712
496,3312438357,0.018992,-0.689248,-0.018621,-0.724037,9.86705017089844,0.00368379335850,0.45789024233818,0.57665705680847,0.38393434882164,-0.19651982188225
497,3312455024,0.018984,-0.689266,-0.018650,-0.724020,9.83267974853516,0.01039703749120,0.46296364068985,1.07602798938751,0.46291109919548,-0.24465893208981
498,3312471691,0.018945,-0.689283,-0.018630,-0.724005,9.79713821411133,0.03063021600246,0.50864398479462,0.59221678972244,0.48013567924500,-0.17842447757721
499,3312488358,0.018933,-0.689307,-0.018638,-0.723982,9.82281303405762,0.01903255842626,0.47563841938972,0.88571286201477,0.40683212876320,-0.17099680006504
500,3312505025,0.018942,-0.689330,-0.018650,-0.723959,9.87673950195312,0.00907083228230,0.49110463261604,1.03725028038025,0.41475924849510,-0.08450268954039
501,3312521692,0.018988,-0.689375,-0.018713,-0.723914,9.86390209197998,-0.01193709671497,0.49630197882652,1.33279526233673,0.19594994187355,-0.14095307886600
502,3312538359,0.019007,-0.689401,-0.018759,-0.723888,9.81486225128174,0.03223577886820,0.50978845357895,1.13383591175079,0.38098892569542,-0.20554833114147
503,3312555026,0.019004,-0.689388,-0.018775,-0.723900,9.80893516540527,0.06472662091255,0.48829418420792,0.96970963478088,0.76031297445297,-0.17276406288147
504,3312571693,0.018929,-0.689353,-0.018684,-0.723938,9.80869674682617,0.08165623992682,0.49104997515678,0.11395090073347,0.99011021852493,-0.02651554904878
505,3312588360,0.018811,-0.689320,-0.018503,-0.723976,9.79497051239014,0.04879820719361,0.47025775909424,-0.66107022762299,0.99244087934494,0.18014691770077
506,3312605027,0.018669,-0.689330,-0.018352,-0.723974,9.80992603302002,-0.01236294861883,0.47558906674385,-0.58017241954803,0.57914149761200,-0.07269524037838
507,3312621694,0.018560,-0.689367,-0.018276,-0.723944,9.84089660644531,-0.05010623857379,0.47200214862823,0.07227902859449,0.30751883983612,-0.24942281842232
508,3312638361,0.018550,-0.689381,-0.018316,-0.723930,9.82156085968018,-0.03856442123652,0.45033198595047,1.09131872653961,0.49427390098572,-0.31990903615952
509,3312655028,0.018636,-0.689393,-0.018452,-0.723913,9.80877017974854,-0.02882384881377,0.46146473288536,1.92179751396179,0.48580884933472,-0.29086419939995
510,3312671695,0.018759,-0.689423,-0.018616,-0.723877,9.83778953552246,0.01931709982455,0.46925750374794,2.24260950088501,0.31360191106796,-0.23942112922668
511,3312688362,0.018830,-0.689457,-0.018736,-0.723840,9.84195709228516,0.06015473231673,0.49631795287132,1.78950774669647,0.28675973415375,-0.29164537787437
512,3312705029,0.018817,-0.689494,-0.018762,-0.723804,9.84504032135010,0.06629376113415,0.46500501036644,1.00750112533569,0.27820512652397,-0.25261163711548
513,3312721696,0.018754,-0.689523,-0.018688,-0.723779,9.84879302978516,0.05757693573833,0.48977947235107,0.27510598301888,0.37668594717979,-0.03350781276822
514,3312738363,0.018659,-0.689548,-0.018565,-0.723761,9.82980918884277,0.01755530200899,0.45428195595741,-0.12836444377899,0.43111291527748,0.04069857671857
515,3312755030,0.018556,-0.689553,-0.018438,-0.723763,9.81742286682129,0.00080494658323,0.43992000818253,-0.17560705542564,0.62578231096268,0.01176903489977
516,3312771697,0.018467,-0.689548,-0.018363,-0.723771,9.84322834014893,0.00183101813309,0.45604869723320,0.14195838570595,0.69870167970657,-0.16743661463261
517,3312788364,0.018460,-0.689573,-0.018373,-0.723748,9.83772850036621,0.00559233734384,0.50144404172897,0.89337092638016,0.40365612506866,-0.15515533089638
518,3312805031,0.018507,-0.689602,-0.018449,-0.723717,9.80741024017334,-0.00754524441436,0.49782398343086,1.39728796482086,0.34268510341644,-0.20810958743095
519,3312821698,0.018579,-0.689615,-0.018575,-0.723700,9.85340499877930,0.00642122002319,0.46329715847969,1.84630393981934,0.48206937313080,-0.31435099244118
520,3312838365,0.018654,-0.689607,-0.018684,-0.723702,9.86563682556152,0.05746044963598,0.45802438259125,1.79506599903107,0.68122094869614,-0.22400224208832
521,3312855032,0.018689,-0.689607,-0.018706,-0.723701,9.85344123840332,0.06914781779051,0.46969452500343,1.21615493297577,0.63399112224579,-0.00372024439275
522,3312871699,0.018678,-0.689596,-0.018638,-0.723713,9.83333778381348,0.04267825931311,0.50039410591125,0.54555052518845,0.75700896978378,0.18355342745781
523,3312888366,0.018625,-0.689593,-0.018529,-0.723721,9.82698154449463,0.05128281190991,0.49613797664642,0.14514715969563,0.69569218158722,0.18024937808514
524,3312905033,0.018557,-0.689596,-0.018421,-0.723722,9.81777954101562,0.00911217648536,0.46609783172607,0.07770892232656,0.63067430257797,0.09476698189974
525,3312921700,0.018535,-0.689595,-0.018369,-0.723725,9.81456470489502,-0.02351356297731,0.47366508841515,0.50442928075790,0.66391956806183,0.05686018988490
526,3312938367,0.018557,-0.689591,-0.018377,-0.723728,9.80639839172363,-0.01018080115318,0.48596471548080,0.91516733169556,0.67253822088242,-0.01936960220337
527,3312955034,0.018596,-0.689584,-0.018428,-0.723732,9.82542991638184,-0.01556714810431,0.47347933053970,1.29873025417328,0.68789309263229,-0.12471462786198
528,3312971701,0.018618,-0.689575,-0.018482,-0.723739,9.83329582214355,-0.00145859573968,0.47032681107521,1.27318167686462,0.71463274955750,-0.23226234316826
529,3312988368,0.018633,-0.689568,-0.018530,-0.723744,9.82816028594971,0.04387738183141,0.49545973539352,1.19256579875946,0.68881511688232,-0.23168610036373
530,3313005035,0.018644,-0.689566,-0.018547,-0.723745,9.81870365142822,0.04478362947702,0.45535302162170,1.02740216255188,0.64976853132248,-0.11307366192341
531,3313021702,0.018635,-0.689586,-0.018527,-0.723727,9.83587360382080,0.03360866010189,0.44867488741875,0.85173743963242,0.45185923576355,-0.01534841116518
532,3313038369,0.018652,-0.689610,-0.018507,-0.723704,9.82792091369629,0.01711851358414,0.47848168015480,0.86314791440964,0.41240283846855,0.10488399863243
533,3313055036,0.018634,-0.689622,-0.018462,-0.723694,9.80652141571045,0.01634326763451,0.48349249362946,0.63055896759033,0.53545904159546,0.05452943593264
534,3313071703,0.018588,-0.689615,-0.018425,-0.723703,9.81548881530762,0.01804610155523,0.47082069516182,0.53708553314209,0.71575975418091,-0.13617631793022
535,3313088370,0.018534,-0.689608,-0.018385,-0.723713,9.82703781127930,0.01125847175717,0.48897773027420,0.47589674592018,0.71595174074173,-0.15986804664135
536,3313105037,0.018492,-0.689609,-0.018376,-0.723712,9.83576869964600,-0.01673430018127,0.45098435878754,0.69286185503006,0.62471932172775,-0.24100907146931
537,3313121704,0.018512,-0.689619,-0.018418,-0.723701,9.83594894409180,-0.00642012432218,0.47946691513062,1.24526393413544,0.53324359655380,-0.17328914999962
538,3313138371,0.018548,-0.689638,-0.018481,-0.723681,9.84274196624756,0.01224935520440,0.45306238532066,1.42089009284973,0.44317650794983,-0.19477817416191
539,3313155038,0.018583,-0.689646,-0.018527,-0.723671,9.83059597015381,0.03815946727991,0.47104474902153,1.32976019382477,0.55048096179962,-0.11909265816212
540,3313171705,0.018593,-0.689651,-0.018552,-0.723665,9.82293415069580,0.04546937718987,0.49269458651543,1.11024653911591,0.58247125148773,-0.14062012732029
541,3313188372,0.018595,-0.689641,-0.018549,-0.723675,9.83359336853027,0.05624831467867,0.47991514205933,0.93511968851089,0.73276662826538,-0.05853142589331
542,3313205039,0.018591,-0.689631,-0.018528,-0.723685,9.82392311096191,0.04105321317911,0.46499761939049,0.80750441551208,0.73408561944962,-0.00100529845804
543,3313221706,0.018614,-0.689623,-0.018496,-0.723693,9.83308506011963,0.03396621719003,0.46929624676704,0.89260256290436,0.72463446855545,0.19003343582153
544,3313238373,0.018659,-0.689619,-0.018459,-0.723697,9.83436775207520,0.03673051670194,0.46043354272842,0.96395957469940,0.68476831912994,0.31731572747231
545,3313255040,0.018736,-0.689614,-0.018428,-0.723700,9.83676338195801,0.03887442499399,0.47660997509956,1.14863991737366,0.68720155954361,0.45540666580200
546,3313271707,0.018821,-0.689613,-0.018416,-0.723700,9.84022045135498,0.01988757029176,0.46923995018005,1.28057098388672,0.65741395950317,0.40156874060631
547,3313288374,0.018900,-0.689592,-0.018416,-0.723717,9.84153556823730,0.00601904280484,0.45348298549652,1.31034576892853,0.83368062973022,0.30899161100388
548,3313305041,0.018980,-0.689561,-0.018413,-0.723744,9.85159969329834,0.00500445533544,0.47977280616760,1.30286681652069,0.92901104688644,0.32692050933838
549,3313321708,0.019022,-0.689523,-0.018412,-0.723780,9.84402656555176,0.00217140396126,0.49868857860565,1.13149237632751,1.00505518913269,0.13081686198711
550,3313338375,0.019060,-0.689503,-0.018396,-0.723798,9.85382938385010,-0.00819542817771,0.48193785548210,1.04028534889221,0.82360196113586,0.18651166558266
551,3313355042,0.019125,-0.689478,-0.018442,-0.723819,9.84751033782959,-0.01470026932657,0.48665884137154,1.46298444271088,0.86316072940826,0.02006755024195
552,3313371709,0.019181,-0.689428,-0.018463,-0.723865,9.79911518096924,0.01903804764152,0.47191947698593,1.26282143592834,1.11209070682526,0.08728808164597
553,3313388376,0.019243,-0.689388,-0.018496,-0.723900,9.81443023681641,-0.00358444498852,0.46727249026299,1.42822837829590,1.00637423992157,0.06376282125711
554,3313405043,0.019345,-0.689351,-0.018585,-0.723931,9.86436843872070,-0.01919620484114,0.45051550865173,1.81661927700043,0.96798074245453,0.00217707944103
555,3313421710,0.019493,-0.689332,-0.018723,-0.723941,9.85317420959473,-0.02801329270005,0.46723383665085,2.25458359718323,0.78200691938400,-0.00365621317178
556,3313438377,0.019618,-0.689316,-0.018818,-0.723951,9.84262371063232,-0.01542066689581,0.49471697211266,1.94132721424103,0.76748454570770,0.08453471213579
557,3313455044,0.019693,-0.689267,-0.018870,-0.723994,9.80965614318848,0.03363526612520,0.47008579969406,1.46767163276672,1.08358359336853,0.03689509257674
558,3313471711,0.019701,-0.689211,-0.018841,-0.724048,9.78473663330078,0.08371997624636,0.47202962636948,0.77054530382156,1.17468810081482,0.08213993161917
559,3313488378,0.019628,-0.689161,-0.018686,-0.724101,9.78782844543457,0.06289999932051,0.50694847106934,-0.18787555396557,1.14863991737366,0.28054869174957
560,3313505045,0.019525,-0.689143,-0.018513,-0.724126,9.78724384307861,-0.01271060388535,0.47217971086502,-0.40541699528694,0.86080437898636,0.22069181501865
561,3313521712,0.019450,-0.689157,-0.018446,-0.724116,9.82220363616943,-0.06099221482873,0.46523594856262,0.17732952535152,0.51928466558456,-0.13009329140186
562,3313538379,0.019440,-0.689169,-0.018483,-0.724104,9.83718204498291,-0.05533772706985,0.43144688010216,1.08828365802765,0.51555812358856,-0.30281254649162
563,3313555046,0.019555,-0.689169,-0.018628,-0.724097,9.82700920104980,-0.03664124757051,0.47235170006752,2.18582630157471,0.59453481435776,-0.18662053346634
564,3313571713,0.019716,-0.689169,-0.018822,-0.724088,9.84826564788818,0.00492157973349,0.49040803313255,2.61563301086426,0.58992451429367,-0.19832554459572
565,3313588380,0.019835,-0.689181,-0.018997,-0.724068,9.84661388397217,0.06640882045031,0.53015351295471,2.43172097206116,0.47364288568497,-0.30726915597916
566,3313605047,0.019881,-0.689185,-0.019088,-0.724061,9.86285972595215,0.07409937679768,0.52643483877182,1.59477484226227,0.57864212989807,-0.27585521340370
567,3313621714,0.019846,-0.689177,-0.019050,-0.724070,9.85404872894287,0.05900299176574,0.51841610670090,0.60649591684341,0.71882051229477,-0.07666521519423
568,3313638381,0.019752,-0.689154,-0.018915,-0.724099,9.85064125061035,0.02107524126768,0.49586656689644,-0.18892566859722,0.89375513792038,0.08872238546610
569,3313655048,0.019647,-0.689110,-0.018773,-0.724148,9.83270168304443,-0.01884214207530,0.47897350788116,-0.27134734392166,1.09654378890991,0.06346827000380
570,3313671715,0.019544,-0.689042,-0.018675,-0.724217,9.81008052825928,0.00803785771132,0.50450432300568,-0.12053976953030,1.30213689804077,-0.14986631274223
571,3313688382,0.019472,-0.689021,-0.018628,-0.724240,9.81818485260010,-0.01480398233980,0.52872258424759,0.41656488180161,0.84447628259659,-0.21534517407417
572,3313705049,0.019460,-0.688985,-0.018678,-0.724273,9.82164001464844,-0.02840577252209,0.49587422609329,1.13106966018677,0.96860831975937,-0.37958663702011
573,3313721716,0.019490,-0.688931,-0.018810,-0.724321,9.84649944305420,-0.00767821166664,0.46841153502464,1.73645126819611,1.11795592308044,-0.56814730167389
574,3313738383,0.019563,-0.688885,-0.018935,-0.724359,9.85588550567627,0.02253191173077,0.46236747503281,1.97092306613922,1.03990125656128,-0.31216117739677
575,3313755050,0.019666,-0.688834,-0.019000,-0.724403,9.81599044799805,0.04747755080462,0.46239081025124,1.68185782432556,1.10374081134796,0.11040353775024
576,3313771717,0.019693,-0.688773,-0.018964,-0.724462,9.80456161499023,0.08474104851484,0.49913677573204,0.92665463685989,1.22874355316162,0.21947522461414
577,3313788384,0.019655,-0.688737,-0.018834,-0.724500,9.79053306579590,0.05697946622968,0.45471715927124,0.12232624739408,1.00838470458984,0.33649966120720
578,3313805051,0.019561,-0.688727,-0.018679,-0.724516,9.77951431274414,0.01146532036364,0.47418361902237,-0.22177395224571,0.76929020881653,0.18873998522758
579,3313821718,0.019519,-0.688718,-0.018553,-0.724529,9.79592323303223,-0.05597064644098,0.47062787413597,0.21074129641056,0.75601017475128,0.31600952148438
580,3313838385,0.019597,-0.688733,-0.018531,-0.724513,9.79640865325928,-0.05396804958582,0.45314639806747,1.17755663394928,0.49784684181213,0.41830658912659
581,3313855052,0.019728,-0.688757,-0.018575,-0.724486,9.83598995208740,-0.03749830275774,0.48805728554726,1.78872680664062,0.40465500950813,0.37318980693817
582,3313871719,0.019829,-0.688790,-0.018636,-0.724450,9.83657646179199,0.00113136938307,0.52277266979218,1.73331403732300,0.30976003408432,0.14929643273354
583,3313888386,0.019888,-0.688816,-0.018661,-0.724423,9.85579586029053,0.04804869368672,0.54160934686661,1.34726643562317,0.37970831990242,0.10330882668495
584,3313905053,0.019888,-0.688841,-0.018635,-0.724400,9.85297012329102,0.04173299297690,0.50745326280594,0.81981122493744,0.40943178534508,0.05173765122890
585,3313921720,0.019893,-0.688863,-0.018582,-0.724380,9.85670280456543,0.01194724347442,0.51463890075684,0.74700713157654,0.43895044922829,0.20979361236095
586,3313938387,0.019894,-0.688861,-0.018526,-0.724383,9.84567928314209,0.00610717479140,0.51943898200989,0.65673518180847,0.66744130849838,0.19379848241806
587,3313955054,0.019908,-0.688834,-0.018488,-0.724410,9.83406257629395,0.01514312624931,0.49740701913834,0.77086544036865,0.90552431344986,0.16061724722385
588,3313971721,0.019883,-0.688787,-0.018434,-0.724456,9.82279396057129,0.00128907617182,0.50316470861435,0.56123822927475,1.09366214275360,0.04095470160246
589,3313988388,0.019839,-0.688724,-0.018387,-0.724519,9.82125759124756,-0.00094233645359,0.49904003739357,0.51663374900818,1.25223052501678,-0.08691029250622
590,3314005055,0.019794,-0.688679,-0.018377,-0.724563,9.81243610382080,-0.02032504603267,0.48991093039513,0.64973020553589,1.06443810462952,-0.26407331228256
591,3314021722,0.019787,-0.688645,-0.018405,-0.724595,9.84114360809326,-0.03181101009250,0.51399427652359,1.01253414154053,0.95473903417587,-0.25152313709259
592,3314038389,0.019799,-0.688634,-0.018446,-0.724604,9.85316085815430,-0.00474209990352,0.48596355319023,1.17436790466309,0.72618401050568,-0.21928952634335
593,3314055056,0.019794,-0.688638,-0.018457,-0.724600,9.82600212097168,0.02242574840784,0.47822567820549,1.04972374439240,0.59696805477142,-0.14552494883537
594,3314071723,0.019777,-0.688665,-0.018443,-0.724575,9.82683658599854,0.01208732184023,0.49939373135567,0.80793976783752,0.38123220205307,-0.09189195930958
595,3314088390,0.019756,-0.688697,-0.018409,-0.724546,9.81169700622559,0.00748893059790,0.48217996954918,0.74543190002441,0.34657821059227,-0.00489842845127
596,3314105057,0.019767,-0.688717,-0.018386,-0.724527,9.81031513214111,0.01597519777715,0.51105284690857,0.88062864542007,0.45015600323677,0.09314057976007
597,3314121724,0.019746,-0.688724,-0.018361,-0.724522,9.80200290679932,0.02010241709650,0.52615869045258,0.77493786811829,0.58067834377289,-0.05936383083463
598,3314138391,0.019714,-0.688716,-0.018339,-0.724531,9.84267807006836,0.01320257596672,0.49219271540642,0.62749820947647,0.72112548351288,-0.13503654301167
599,3314155058,0.019665,-0.688704,-0.018320,-0.724544,9.82978057861328,-0.00758037529886,0.48358726501465,0.72809219360352,0.74960678815842,-0.22675561904907
600,3314171725,0.019630,-0.688685,-0.018300,-0.724564,9.83448982238770,-0.00354885868728,0.49799823760986,0.65380257368088,0.82542049884796,-0.16774396598339
601,3314188392,0.019590,-0.688698,-0.018255,-0.724554,9.86394500732422,0.00188823742792,0.49097391963005,0.56112301349640,0.52576464414597,-0.05718675255775
602,3314205059,0.019590,-0.688697,-0.018255,-0.724554,9.83595943450928,-0.00142857967876,0.46905013918877,0.97825139760971,0.64285314083099,-0.06962171941996
603,3314221726,0.019582,-0.688696,-0.018217,-0.724557,9.78753471374512,0.01963973790407,0.49793097376823,0.73580163717270,0.65946292877197,0.06404454261065
604,3314238393,0.019607,-0.688705,-0.018208,-0.724548,9.81541538238525,0.00954486150295,0.49559807777405,1.04612517356873,0.55609017610550,0.09330707043409
605,3314255060,0.019664,-0.688704,-0.018271,-0.724546,9.87553501129150,-0.01678774692118,0.47929096221924,1.54719913005829,0.62742143869400,-0.08472040295601
606,3314271727,0.019717,-0.688704,-0.018332,-0.724543,9.90098285675049,-0.00299363327213,0.49898269772530,1.58435046672821,0.62744712829590,-0.10227791965008
607,3314288394,0.019745,-0.688692,-0.018332,-0.724553,9.85530757904053,-0.00713746808469,0.53740257024765,1.03744244575500,0.74561131000519,0.05894762650132
608,3314305061,0.019704,-0.688661,-0.018263,-0.724586,9.83730983734131,0.01695694401860,0.52899724245071,0.40701138973236,0.94943708181381,0.04160782694817
609,3314321728,0.019644,-0.688620,-0.018155,-0.724629,9.82060527801514,0.05473598092794,0.51201498508453,0.11859960854053,1.05006945133209,0.12368372082710
610,3314338395,0.019503,-0.688575,-0.017959,-0.724680,9.80641555786133,0.06101495400071,0.50465470552444,-0.63201254606247,1.11853241920471,0.14225293695927
611,3314355062,0.019353,-0.688553,-0.017765,-0.724710,9.78743457794189,-0.02320409379900,0.49665856361389,-0.61859154701233,0.89315330982208,0.09256429970264
612,3314371729,0.019262,-0.688545,-0.017711,-0.724722,9.80243778228760,-0.06769403070211,0.47992345690727,0.28249529004097,0.73131936788559,-0.27493312954903
613,3314388396,0.019283,-0.688525,-0.017813,-0.724738,9.81536006927490,-0.06677502393723,0.48169627785683,1.53673636913300,0.79924434423447,-0.45866581797600
614,3314405063,0.019369,-0.688494,-0.017956,-0.724761,9.81951332092285,-0.02671097032726,0.47080856561661,2.07174730300903,0.89361435174942,-0.33046150207520
615,3314421730,0.019434,-0.688473,-0.018094,-0.724775,9.84085369110107,0.02112257853150,0.50643211603165,1.97005224227905,0.79704165458679,-0.40646716952324
616,3314438397,0.019442,-0.688462,-0.018165,-0.724784,9.83633899688721,0.04368086159229,0.50125956535339,1.42958569526672,0.72911673784256,-0.37370851635933
617,3314455064,0.019372,-0.688478,-0.018146,-0.724771,9.83638858795166,0.04638736322522,0.50426411628723,0.61589574813843,0.48915129899979,-0.32240626215935
618,3314471731,0.019299,-0.688519,-0.018080,-0.724736,9.81622409820557,0.00127312983386,0.48083180189133,0.27160987257957,0.26214593648911,-0.12109042704105
619,3314488398,0.019259,-0.688548,-0.018006,-0.724712,9.81969261169434,-0.02340270020068,0.48447951674461,0.44733852148056,0.38445937633514,0.08915779739618
620,3314505065,0.019217,-0.688552,-0.017961,-0.724710,9.80370426177979,-0.02046305872500,0.49489343166351,0.55810070037842,0.61206662654877,-0.07213176041842
621,3314521732,0.019172,-0.688543,-0.017922,-0.724720,9.77891540527344,0.01332871802151,0.50680226087570,0.52896618843079,0.72746467590332,-0.11654417216778
622,3314538399,0.019122,-0.688587,-0.017899,-0.724681,9.78907680511475,-0.00591881852597,0.55114024877548,0.63272327184677,0.22997641563416,-0.20543307065964
623,3314555066,0.019085,-0.688607,-0.017963,-0.724661,9.80728340148926,-0.04238223284483,0.48831805586815,1.01043379306793,0.42661792039871,-0.56386995315552
624,3314571733,0.019064,-0.688599,-0.018066,-0.724667,9.86183738708496,0.00100118841510,0.48832494020462,1.48989081382751,0.69482135772705,-0.65886747837067
625,3314588400,0.019102,-0.688576,-0.018170,-0.724685,9.90599918365479,0.04163057729602,0.49286645650864,1.70866143703461,0.82335859537125,-0.38368460536003
626,3314605067,0.019155,-0.688564,-0.018175,-0.724694,9.86025905609131,0.06044841185212,0.48536184430122,1.25030946731567,0.74640530347824,0.16411335766315
627,3314621734,0.019179,-0.688570,-0.018111,-0.724690,9.83267974853516,0.05929671227932,0.51217848062515,0.83981490135193,0.59968298673630,0.35465905070305
628,3314638401,0.019165,-0.688610,-0.018044,-0.724653,9.79742431640625,0.03931682184339,0.54028981924057,0.52201247215271,0.26930475234985,0.17953222990036
629,3314655068,0.019110,-0.688630,-0.017938,-0.724640,9.79023838043213,0.01081832032651,0.50306153297424,0.21442951261997,0.48349091410637,0.15700583159924
630,3314671735,0.019082,-0.688623,-0.017861,-0.724649,9.79288959503174,-0.03014742769301,0.51078611612320,0.38796836137772,0.72085654735565,0.14600518345833
631,3314688402,0.019092,-0.688614,-0.017857,-0.724657,9.81218719482422,-0.03569066897035,0.50469541549683,0.92884457111359,0.72458326816559,-0.00891962274909
632,3314705069,0.019148,-0.688608,-0.017910,-0.724660,9.84040355682373,-0.02585581131279,0.50090825557709,1.46020555496216,0.68010681867599,-0.05500967428088
633,3314721736,0.019209,-0.688608,-0.017985,-0.724656,9.84715747833252,0.01432048995048,0.51969301700592,1.53788888454437,0.61501216888428,-0.12786501646042
634,3314738403,0.019244,-0.688606,-0.018023,-0.724656,9.86125946044922,0.04402464628220,0.49652671813965,1.37925672531128,0.64540159702301,-0.07751043140888
635,3314755070,0.019277,-0.688627,-0.018032,-0.724636,9.84882354736328,0.04396475106478,0.51196771860123,1.09464824199677,0.44107627868652,0.05004721134901
636,3314771737,0.019297,-0.688652,-0.017995,-0.724612,9.82394123077393,0.01509208418429,0.48870381712914,0.88722383975983,0.40662717819214,0.20655360817909
637,3314788404,0.019315,-0.688667,-0.017949,-0.724599,9.80931282043457,0.02004274539649,0.49888676404953,0.81029623746872,0.50910365581512,0.23568809032440
638,3314805071,0.019306,-0.688665,-0.017897,-0.724602,9.80463695526123,0.00875890348107,0.51946705579758,0.62665313482285,0.66522580385208,0.12061019986868
639,3314821738,0.019285,-0.688666,-0.017828,-0.724603,9.81927108764648,-0.03040491417050,0.49860197305679,0.47182428836823,0.64089375734329,0.14517277479172
640,3314838405,0.019248,-0.688662,-0.017792,-0.724609,9.83025074005127,-0.05322309955955,0.47978946566582,0.58097296953201,0.68869996070862,-0.08723045885563
641,3314855072,0.019238,-0.688669,-0.017790,-0.724602,9.82245922088623,-0.03284608200192,0.48919111490250,0.82197546958923,0.57007467746735,-0.12233265489340
642,3314871739,0.019257,-0.688700,-0.017810,-0.724571,9.84311676025391,-0.01832254976034,0.48093491792679,1.18068134784698,0.33465555310249,-0.06155372038484
643,3314888406,0.019317,-0.688739,-0.017861,-0.724532,9.84699058532715,0.00201494456269,0.50354015827179,1.55424261093140,0.25500005483627,-0.00729321548715
644,3314905073,0.019378,-0.688789,-0.017922,-0.724481,9.82901477813721,0.02272773161530,0.48821491003036,1.58429932594299,0.15335604548454,-0.04576349258423
645,3314921740,0.019397,-0.688831,-0.017938,-0.724440,9.82468795776367,0.04219645634294,0.49196600914001,1.22610557079315,0.23055271804333,-0.03606908395886
646,3314938407,0.019391,-0.688861,-0.017922,-0.724412,9.83950901031494,0.03939919546247,0.51374340057373,0.95977181196213,0.35481271147728,-0.01694920286536
647,3314955074,0.019349,-0.688877,-0.017853,-0.724400,9.81799411773682,0.02864899672568,0.52158266305923,0.43487802147865,0.50801509618759,0.04454047977924
648,3314971741,0.019264,-0.688902,-0.017740,-0.724381,9.83168029785156,-0.00164505536668,0.52582764625549,-0.04763321205974,0.42700210213661,0.04327265545726
649,3314988408,0.019215,-0.688922,-0.017668,-0.724365,9.85539436340332,-0.04393370822072,0.46965256333351,0.25868824124336,0.46253973245621,0.01618722453713
650,3315005075,0.019195,-0.688920,-0.017681,-0.724368,9.81317996978760,-0.01782987080514,0.48191097378731,0.97843080759048,0.65783661603928,-0.23237760365009
651,3315021742,0.019224,-0.688935,-0.017696,-0.724352,9.80948638916016,0.01031794026494,0.49140852689743,1.21308147907257,0.48600095510483,0.00861867424101
652,3315038409,0.019329,-0.688967,-0.017817,-0.724316,9.85663700103760,-0.00044947490096,0.51479172706604,2.02768039703369,0.30900439620018,-0.12171794474125
653,3315055076,0.019416,-0.689012,-0.017942,-0.724268,9.90150165557861,0.02801887691021,0.51296985149384,1.98840343952179,0.18008287250996,-0.22141535580158
654,3315071743,0.019483,-0.689059,-0.017984,-0.724221,9.86614990234375,0.02583583444357,0.54325222969055,1.58066213130951,0.17998044192791,0.07723510265350
655,3315088410,0.019483,-0.689075,-0.017954,-0.724206,9.82826614379883,0.04100061953068,0.54949122667313,0.75189930200577,0.49181509017944,0.06823223829269
656,3315105077,0.019398,-0.689049,-0.017848,-0.724235,9.83799457550049,0.05061427131295,0.50521993637085,-0.00337447295897,0.90387213230133,-0.00895804166794
657,3315121744,0.019235,-0.689011,-0.017672,-0.724280,9.82507133483887,0.03626088798046,0.52086603641510,-0.72594714164734,1.04330766201019,-0.06288558244705
658,3315138411,0.019066,-0.688983,-0.017459,-0.724316,9.80854606628418,-0.00840991083533,0.49027666449547,-0.94160616397858,0.95458531379700,0.08368949592113
659,3315155078,0.018939,-0.688988,-0.017362,-0.724318,9.81097793579102,-0.07876596599817,0.50026130676270,-0.13319243490696,0.61935347318649,-0.25043457746506
660,3315171745,0.018933,-0.689014,-0.017430,-0.724291,9.81413555145264,-0.06378568708897,0.47405627369881,1.14880633354187,0.36891248822212,-0.42412707209587
661,3315188412,0.019013,-0.689026,-0.017607,-0.724273,9.81615734100342,-0.04719656705856,0.48176729679108,2.18754220008850,0.47638344764709,-0.51598709821701
662,3315205079,0.019121,-0.689040,-0.017799,-0.724253,9.82015419006348,0.00044723527390,0.47401615977287,2.37697386741638,0.46398687362671,-0.44585949182510
663,3315221746,0.019201,-0.689056,-0.017943,-0.724231,9.83290767669678,0.03598484024405,0.50836396217346,1.96394300460815,0.44155013561249,-0.35674002766609
664,3315238413,0.019168,-0.689085,-0.018000,-0.724204,9.83755207061768,0.04868344962597,0.51480758190155,1.03315234184265,0.35353207588196,-0.50685614347458
665,3315255080,0.019076,-0.689106,-0.017948,-0.724187,9.84098625183105,0.03880517557263,0.48716190457344,0.21838666498661,0.44566097855568,-0.28137469291687
666,3315271747,0.018980,-0.689144,-0.017853,-0.724155,9.83787441253662,0.01917204819620,0.46589756011963,-0.01212120987475,0.29833668470383,-0.10162477940321
667,3315288414,0.018910,-0.689170,-0.017754,-0.724136,9.82727146148682,-0.01438350602984,0.44327804446220,0.14110036194324,0.42269918322563,0.05423488840461
668,3315305081,0.018881,-0.689172,-0.017721,-0.724135,9.81738471984863,-0.00307119730860,0.50268930196762,0.58271461725235,0.62260633707047,-0.06537001580000
669,3315321748,0.018861,-0.689202,-0.017707,-0.724107,9.85002994537354,0.01596454158425,0.51202684640884,0.73989969491959,0.35021525621414,-0.10097167640924
670,3315338415,0.018892,-0.689263,-0.017753,-0.724047,9.80387306213379,-0.02349601127207,0.51519954204559,1.33314108848572,0.05151994898915,-0.12462499737740
671,3315355082,0.018928,-0.689297,-0.017851,-0.724012,9.82813739776611,-0.01722838357091,0.48041421175003,1.55613791942596,0.28999978303909,-0.35782858729362
672,3315371749,0.018983,-0.689289,-0.017983,-0.724015,9.87272930145264,0.02516948431730,0.46778774261475,1.88572192192078,0.67937672138214,-0.42827630043030
673,3315388416,0.019047,-0.689257,-0.018047,-0.724041,9.86128902435303,0.07066091150045,0.48069694638252,1.43176281452179,0.92012363672256,-0.07270805537701
674,3315405083,0.019068,-0.689221,-0.018013,-0.724076,9.83643627166748,0.06856259703636,0.48426538705826,0.92598873376846,0.98905998468399,0.18566644191742
675,3315421750,0.019057,-0.689209,-0.017940,-0.724090,9.82626247406006,0.04117636010051,0.50822752714157,0.48642355203629,0.76936703920364,0.20791107416153
676,3315438417,0.019024,-0.689210,-0.017847,-0.724092,9.83241367340088,0.00606882385910,0.46560788154602,0.24440920352936,0.65174078941345,0.19291487336159
677,3315455084,0.019019,-0.689194,-0.017777,-0.724109,9.81392765045166,-0.01124168559909,0.51063287258148,0.42219972610474,0.80090904235840,0.22366288304329
678,3315471751,0.019016,-0.689172,-0.017723,-0.724131,9.82936000823975,-0.03417530655861,0.51379519701004,0.59076970815659,0.86026650667191,0.15417563915253
679,3315488418,0.019052,-0.689156,-0.017728,-0.724145,9.81303691864014,-0.02616269700229,0.47541099786758,1.06598782539368,0.78628426790237,0.06943602859974
680,3315505085,0.019082,-0.689158,-0.017757,-0.724142,9.83257770538330,-0.01733351312578,0.48979496955872,1.22926867008209,0.61287349462509,-0.05652082338929
681,3315521752,0.019129,-0.689156,-0.017813,-0.724142,9.85251522064209,-0.00401327712461,0.50774478912354,1.36595094203949,0.64487665891647,-0.11412379145622
682,3315538419,0.019153,-0.689160,-0.017835,-0.724137,9.85354995727539,0.00405451888219,0.50057089328766,1.19209194183350,0.58916896581650,-0.06105427443981
683,3315555086,0.019175,-0.689182,-0.017845,-0.724115,9.83374500274658,0.00112958461978,0.47764566540718,1.01208591461182,0.42935854196548,-0.01276152860373
684,3315571753,0.019165,-0.689194,-0.017825,-0.724104,9.82186508178711,-0.00503198523074,0.47505518794060,0.86599105596542,0.52730149030685,-0.02545262128115
685,3315588420,0.019153,-0.689193,-0.017810,-0.724106,9.82393360137939,0.00766897574067,0.49248820543289,0.83864939212799,0.64882087707520,-0.06105426698923
686,3315605087,0.019126,-0.689192,-0.017767,-0.724108,9.81167507171631,0.02602317743003,0.49784880876541,0.61312961578369,0.65335434675217,-0.00302870152518
687,3315621754,0.019097,-0.689189,-0.017713,-0.724114,9.80376434326172,-0.00820024311543,0.49167844653130,0.46718841791153,0.68193811178207,0.02936495840549
688,3315638421,0.019074,-0.689195,-0.017682,-0.724109,9.83847045898438,-0.02744900435209,0.48965269327164,0.65222734212875,0.57987147569656,-0.04140932857990
689,3315655088,0.019094,-0.689211,-0.017710,-0.724092,9.83129596710205,-0.01821740902960,0.49364858865738,1.15765547752380,0.48122423887253,-0.11042274534702
690,3315671755,0.019113,-0.689233,-0.017771,-0.724070,9.82498645782471,-0.00427169725299,0.50601756572723,1.33918547630310,0.41706436872482,-0.25810557603836
691,3315688422,0.019126,-0.689258,-0.017844,-0.724043,9.83801937103271,0.01015179883689,0.48102903366089,1.39133310317993,0.37459856271744,-0.35306468605995
692,3315705089,0.019138,-0.689287,-0.017887,-0.724015,9.83060359954834,0.03082541562617,0.50030124187469,1.24041032791138,0.35668244957924,-0.21200273931026
693,3315721756,0.019127,-0.689306,-0.017879,-0.723997,9.83590984344482,0.02533611468971,0.48763927817345,0.82677793502808,0.45312702655792,-0.08739692717791
694,3315738423,0.019096,-0.689314,-0.017842,-0.723991,9.83769989013672,0.03720371052623,0.50106590986252,0.54868811368942,0.57106077671051,-0.05607260018587
695,3315755090,0.019088,-0.689315,-0.017789,-0.723992,9.83874797821045,0.01394949201494,0.50800347328186,0.56029057502747,0.64176458120346,0.13342934846878
696,3315771757,0.019089,-0.689327,-0.017746,-0.723981,9.82756805419922,0.00502867065370,0.48922523856163,0.72905272245407,0.53312832117081,0.13203345239162
697,3315788424,0.019105,-0.689339,-0.017728,-0.723970,9.83480262756348,0.00243337149732,0.49817273020744,0.89153969287872,0.52430480718613,0.09041283279657
698,3315805091,0.019116,-0.689322,-0.017752,-0.723985,9.84086513519287,0.00114388752263,0.49129024147987,1.04609954357147,0.79317414760590,-0.14216969907284
699,3315821758,0.019107,-0.689299,-0.017769,-0.724007,9.82388973236084,0.01270845718682,0.49341344833374,0.95024400949478,0.84720414876938,-0.20882675051689
700,3315838425,0.019077,-0.689281,-0.017763,-0.724025,9.84269523620605,0.01228492986411,0.50536769628525,0.68405121564865,0.80860573053360,-0.20936463773251
701,3315855092,0.019045,-0.689274,-0.017729,-0.724033,9.86770153045654,-0.02349956333637,0.48194122314453,0.59001410007477,0.71623343229294,-0.07361730188131
702,3315871759,0.019048,-0.689253,-0.017730,-0.724054,9.81866359710693,-0.00405788049102,0.46765461564064,0.88759535551071,0.83881592750549,-0.07526932656765
703,3315888426,0.019016,-0.689260,-0.017664,-0.724050,9.78046226501465,0.01806342229247,0.47334322333336,0.44713366031647,0.58667171001434,0.07961707562208
704,3315905093,0.019041,-0.689270,-0.017637,-0.724040,9.83286380767822,-0.00468270806596,0.48702007532120,0.97384613752365,0.54482054710388,0.18095371127129
705,3315921760,0.019081,-0.689290,-0.017688,-0.724019,9.88064098358154,-0.01427199877799,0.48593410849571,1.31133198738098,0.43553116917610,-0.11960490792990
706,3315938427,0.019118,-0.689321,-0.017734,-0.723987,9.83677196502686,-0.01549410354346,0.51417368650436,1.47214126586914,0.33284986019135,-0.09026555716991
707,3315955094,0.019140,-0.689336,-0.017742,-0.723971,9.82423305511475,0.01223151478916,0.52168142795563,1.06944537162781,0.48564234375954,-0.00509052351117
708,3315971761,0.019123,-0.689321,-0.017724,-0.723987,9.84419822692871,0.06600554287434,0.48051768541336,0.73790186643600,0.78638660907745,-0.07556386291981
709,3315988428,0.019068,-0.689275,-0.017590,-0.724035,9.81536769866943,0.06975493580103,0.48484739661217,-0.07466741651297,1.10595619678497,0.26603907346725
710,3316005095,0.018955,-0.689247,-0.017412,-0.724069,9.81416130065918,0.01913289912045,0.49434646964073,-0.52227497100830,0.94138193130493,0.19267153739929
711,3316021762,0.018839,-0.689261,-0.017291,-0.724062,9.83040714263916,-0.04995246231556,0.48971152305603,-0.33672377467155,0.53735446929932,-0.07725431025028
712,3316038429,0.018792,-0.689306,-0.017296,-0.724020,9.83048915863037,-0.08442352712154,0.48222294449806,0.65545463562012,0.20281414687634,-0.33275380730629
713,3316055096,0.018830,-0.689331,-0.017403,-0.723992,9.81564712524414,-0.05229730531573,0.48509916663170,1.59859108924866,0.37450894713402,-0.39024153351784
714,3316071763,0.018939,-0.689347,-0.017561,-0.723971,9.81613731384277,-0.02021955139935,0.48071914911270,2.18558311462402,0.44592991471291,-0.28201508522034
715,3316088430,0.019046,-0.689372,-0.017712,-0.723941,9.82791042327881,0.00723192188889,0.46602222323418,2.16828155517578,0.36945042014122,-0.24893625080585
716,3316105097,0.019068,-0.689390,-0.017793,-0.723920,9.82919597625732,0.04629050940275,0.47305473685265,1.41264295578003,0.43732407689095,-0.34567540884018
717,3316121764,0.019002,-0.689421,-0.017776,-0.723893,9.86242580413818,0.04385528713465,0.51273846626282,0.54333502054214,0.34726977348328,-0.31893572211266
718,3316138431,0.018893,-0.689446,-0.017704,-0.723874,9.84128952026367,0.01803481392562,0.46692749857903,0.03415453061461,0.42062452435493,-0.27799382805824
719,3316155098,0.018800,-0.689472,-0.017618,-0.723854,9.84151172637939,-0.01807415112853,0.45917427539825,-0.13132269680500,0.40561547875404,-0.13042625784874
720,3316171765,0.018712,-0.689486,-0.017552,-0.723845,9.80955791473389,-0.01797759346664,0.46516799926758,0.15038499236107,0.52753204107285,-0.20000320672989
721,3316188432,0.018668,-0.689512,-0.017532,-0.723822,9.82123470306396,-0.00516076572239,0.48452273011208,0.56045705080032,0.39602354168892,-0.20153990387917
722,3316205099,0.018667,-0.689557,-0.017562,-0.723778,9.81792926788330,-0.02424385026097,0.50149697065353,1.07555401325226,0.19438757002354,-0.20873709022999
723,3316221766,0.018660,-0.689577,-0.017647,-0.723757,9.82095813751221,-0.01094880048186,0.48706322908401,1.32831299304962,0.42673316597939,-0.50927644968033
724,3316238433,0.018695,-0.689580,-0.017771,-0.723750,9.87697315216064,0.01954809762537,0.48623007535934,1.72352969646454,0.57770717144012,-0.48457306623459
725,3316255100,0.018745,-0.689581,-0.017861,-0.723746,9.86104202270508,0.03340888768435,0.45957374572754,1.62019538879395,0.60940301418304,-0.26073089241982
726,3316271767,0.018797,-0.689567,-0.017886,-0.723757,9.84633922576904,0.05773880332708,0.48540779948235,1.16832327842712,0.76168328523636,0.05669371411204
727,3316288434,0.018800,-0.689552,-0.017834,-0.723772,9.82797718048096,0.07083141058683,0.49716362357140,0.67817312479019,0.78855103254318,0.18222156167030
728,3316305101,0.018753,-0.689553,-0.017735,-0.723775,9.80972957611084,0.03727480769157,0.47150862216949,0.15593013167381,0.65550589561462,0.15415005385876
729,3316321768,0.018702,-0.689544,-0.017630,-0.723788,9.80464076995850,-0.00682697957382,0.48072451353073,0.16416458785534,0.74613624811172,0.16652096807957
730,3316338435,0.018684,-0.689530,-0.017577,-0.723802,9.80194473266602,-0.03027020581067,0.48059520125389,0.61492252349854,0.78000915050507,0.08559764176607
731,3316355102,0.018723,-0.689517,-0.017584,-0.723814,9.80765533447266,-0.04553034529090,0.49037060141563,1.17600715160370,0.76528185606003,0.08120507746935
732,3316371769,0.018773,-0.689502,-0.017644,-0.723825,9.83676433563232,-0.02064923197031,0.47051224112511,1.43780720233917,0.75946772098541,-0.11736378073692
733,3316388436,0.018792,-0.689484,-0.017700,-0.723841,9.84739017486572,0.00295095681213,0.48283165693283,1.26570284366608,0.79956454038620,-0.25288060307503
734,3316405103,0.018796,-0.689479,-0.017728,-0.723845,9.82077026367188,0.02232568524778,0.48464462161064,1.06118535995483,0.67125761508942,-0.19430434703827
735,3316421770,0.018777,-0.689500,-0.017710,-0.723826,9.82236480712891,0.02568074502051,0.49745401740074,0.69670373201370,0.44249778985977,-0.08167248964310
736,3316438437,0.018762,-0.689515,-0.017674,-0.723813,9.84116458892822,0.01351806335151,0.47866103053093,0.61750936508179,0.50077950954437,0.02325633168221
737,3316455104,0.018743,-0.689532,-0.017655,-0.723798,9.83978462219238,0.00016943762603,0.49546885490417,0.76065862178802,0.48242795467377,-0.07528212666512
738,3316471771,0.018756,-0.689543,-0.017653,-0.723787,9.83229732513428,0.02290157601237,0.48603269457817,0.90032494068146,0.52935051918030,-0.00365621317178
739,3316488438,0.018750,-0.689559,-0.017618,-0.723772,9.80397415161133,0.01454763393849,0.49413898587227,0.71219950914383,0.49073934555054,0.05878114327788
740,3316505105,0.018745,-0.689563,-0.017613,-0.723769,9.82321071624756,0.02394822612405,0.47783306241035,0.80423873662949,0.59986221790314,-0.07533334195614
741,3316521772,0.018722,-0.689560,-0.017605,-0.723773,9.83127975463867,-0.00070927140769,0.48385518789291,0.76740759611130,0.67087340354919,-0.15584686398506
742,3316538439,0.018736,-0.689557,-0.017618,-0.723775,9.84232711791992,-0.00781818386167,0.49747890233994,0.95672392845154,0.66170406341553,-0.07411674410105
743,3316555106,0.018759,-0.689561,-0.017655,-0.723769,9.84890460968018,0.00284009799361,0.46252885460854,1.17744147777557,0.58193337917328,-0.14318138360977
744,3316571773,0.018789,-0.689565,-0.017687,-0.723764,9.82199096679688,0.02694216370583,0.51489162445068,1.14701354503632,0.59132045507431,-0.07826600968838
745,3316588440,0.018804,-0.689573,-0.017703,-0.723756,9.82149124145508,0.03016384132206,0.48464635014534,1.03854370117188,0.56241643428802,-0.07717747241259
746,3316605107,0.018822,-0.689588,-0.017690,-0.723741,9.81340885162354,0.03003609366715,0.47273135185242,0.86706668138504,0.49004778265953,0.07037089020014
747,3316621774,0.018832,-0.689597,-0.017644,-0.723734,9.81944179534912,0.01958932913840,0.50607192516327,0.66206258535385,0.56662970781326,0.19011025130749
748,3316638441,0.018821,-0.689610,-0.017605,-0.723722,9.81736469268799,0.00641213962808,0.49682459235191,0.60730278491974,0.51768392324448,0.05043140426278
749,3316655108,0.018805,-0.689630,-0.017579,-0.723704,9.83208465576172,-0.02362800203264,0.48534497618675,0.64207196235657,0.45431798696518,-0.02734795585275
750,3316671775,0.018778,-0.689645,-0.017565,-0.723691,9.83334350585938,-0.00053945247782,0.48992943763733,0.74313962459564,0.49556732177734,-0.13713678717613
751,3316688442,0.018780,-0.689676,-0.017594,-0.723661,9.83586692810059,-0.01831867359579,0.49749937653542,1.04125857353210,0.33786991238594,-0.19914515316486
752,3316705109,0.018799,-0.689711,-0.017629,-0.723626,9.83273124694824,0.01063232682645,0.48130306601524,1.20582032203674,0.29425153136253,-0.14059452712536
753,3316721776,0.018818,-0.689733,-0.017649,-0.723604,9.83701133728027,0.04014525935054,0.47582548856735,1.09621083736420,0.41926708817482,-0.07122252136469
754,3316738443,0.018812,-0.689762,-0.017636,-0.723577,9.83510494232178,0.02842612192035,0.48346245288849,0.86106050014496,0.36810567975044,-0.03832300007343
755,3316755110,0.018783,-0.689795,-0.017602,-0.723547,9.83578681945801,0.02658937312663,0.49370607733727,0.61229729652405,0.32441046833992,-0.04649345949292
756,3316771777,0.018738,-0.689823,-0.017555,-0.723523,9.84504508972168,-0.01086809393018,0.47274956107140,0.44788923859596,0.38452342152596,-0.07392465323210
757,3316788444,0.018705,-0.689825,-0.017531,-0.723522,9.82850837707520,-0.00753506878391,0.46845811605453,0.49738585948944,0.62363088130951,-0.13577933609486
758,3316805111,0.018661,-0.689820,-0.017486,-0.723529,9.84627532958984,0.00553239276633,0.50643742084503,0.46401241421700,0.69182455539703,-0.08525826781988
759,3316821778,0.018619,-0.689836,-0.017420,-0.723516,9.88437557220459,-0.02953947149217,0.49795466661453,0.38894164562225,0.50149661302567,0.03022298403084
760,3316838445,0.018629,-0.689855,-0.017436,-0.723498,9.85008239746094,-0.01452772971243,0.44386258721352,1.01410913467407,0.45022004842758,-0.09869214147329
761,3316855112,0.018664,-0.689880,-0.017450,-0.723473,9.79680538177490,0.01927688531578,0.46526601910591,1.15769398212433,0.39572903513908,0.03812450543046
762,3316871779,0.018764,-0.689914,-0.017490,-0.723437,9.82440853118896,0.02765901200473,0.48150697350502,1.53786337375641,0.30310070514679,0.23786513507366
