sep=,
DeviceTag:,E
FirmwareVersion:,3.0.0
AppVersion:,2023.6.0
StartTime: ,2024-03-14_11:50:42_000 EDT
© Movella Technologies B. V. 2005-2024

PacketCounter,SampleTimeFine,Quat_W,Quat_X,Quat_Y,Quat_Z,Acc_X,Acc_Y,Acc_Z,Gyr_X,Gyr_Y,Gyr_Z
0,3304188192,0.750444,0.057397,0.322453,0.574076,0.00000000000000,0.00000000000000,0.00000000000000,0.00000000000000,0.00000000000000,0.00000000000000
1,3304204859,0.750417,0.057373,0.322459,0.574110,-4.03568220138550,4.42947721481323,7.58573389053345,1.39339494705200,-0.16376119852066,0.23810845613480
2,3304221526,0.750424,0.057344,0.322460,0.574104,-4.02784776687622,4.42170572280884,7.59621524810791,1.32080841064453,-0.13323086500168,0.08993899077177
3,3304238193,0.750428,0.057277,0.322450,0.574112,-4.04006719589233,4.42111301422119,7.60639953613281,1.09813165664673,-0.09801339358091,-0.01173701975495
4,3304254860,0.750430,0.057224,0.322453,0.574112,-4.05606174468994,4.40876340866089,7.57484722137451,1.23286736011505,-0.06758551299572,0.00060189847136
5,3304271527,0.750414,0.057175,0.322474,0.574126,-4.05772542953491,4.41630935668945,7.57075548171997,1.36496484279633,-0.01224927511066,0.03115784935653
6,3304288194,0.750338,0.057128,0.322502,0.574214,-4.08108711242676,4.43551111221313,7.59520530700684,1.47348582744598,-0.06375641375780,0.25505128502846
7,3304304861,0.750322,0.057126,0.322501,0.574236,-4.05165863037109,4.43162345886230,7.54770469665527,1.39580237865448,-0.19234496355057,0.38539430499077
8,3304321528,0.750304,0.057125,0.322506,0.574257,-4.02408790588379,4.43587732315063,7.59340238571167,1.38165140151978,-0.11382925510406,0.46024745702744
9,3304338195,0.750289,0.057117,0.322520,0.574269,-4.03880310058594,4.39311552047729,7.56087112426758,1.39973402023315,-0.05521458014846,0.39402577280998
10,3304354862,0.750243,0.057103,0.322557,0.574309,-4.03104305267334,4.40572357177734,7.57954120635986,1.63010728359222,-0.06168176978827,0.23426654934883
11,3304371529,0.750211,0.057070,0.322590,0.574336,-4.05015134811401,4.43313026428223,7.60345697402954,1.53639054298401,-0.04972065240145,0.06897500157356
12,3304388196,0.750177,0.057073,0.322640,0.574352,-4.07212066650391,4.42206335067749,7.60120296478271,1.74838685989380,-0.03156124800444,0.20838491618633
13,3304404863,0.750144,0.057091,0.322687,0.574367,-4.04521369934082,4.44605302810669,7.59772682189941,1.76395952701569,-0.04870894923806,0.33907371759415
14,3304421530,0.750135,0.057106,0.322721,0.574359,-4.06112384796143,4.44347763061523,7.55926656723022,1.65377366542816,-0.06828986853361,0.29421308636665
15,3304438197,0.750079,0.057084,0.322759,0.574412,-4.03968715667725,4.42364597320557,7.56096553802490,1.55243706703186,0.00847780425102,0.33319562673569
16,3304454864,0.750059,0.057068,0.322779,0.574429,-4.04038763046265,4.41988420486450,7.56096839904785,1.46143496036530,-0.07701098173857,0.24776445329189
17,3304471531,0.750026,0.057041,0.322787,0.574470,-4.05654335021973,4.43312931060791,7.57771110534668,1.33159148693085,-0.07721588760614,0.37094873189926
18,3304488198,0.749996,0.057040,0.322795,0.574506,-4.06095552444458,4.41998767852783,7.59028005599976,1.44314754009247,-0.14929002523422,0.44931080937386
19,3304504865,0.749960,0.057046,0.322816,0.574540,-4.04699611663818,4.41742038726807,7.59091234207153,1.54985010623932,-0.11626244336367,0.44115310907364
20,3304521532,0.749924,0.057100,0.322857,0.574558,-4.05542993545532,4.41359758377075,7.56470012664795,1.88535082340240,-0.17203409969807,0.52416390180588
21,3304538199,0.749878,0.057076,0.322858,0.574620,-4.02863311767578,4.44423770904541,7.57431650161743,1.38092172145844,-0.19709612429142,0.34475976228714
22,3304554866,0.749828,0.057057,0.322870,0.574681,-4.04940986633301,4.42527389526367,7.58140659332275,1.44354462623596,-0.14567863941193,0.37648108601570
23,3304571533,0.749794,0.057068,0.322897,0.574709,-4.05094861984253,4.39784002304077,7.58186483383179,1.57801115512848,-0.07112006098032,0.47835555672646
24,3304588200,0.749761,0.057097,0.322964,0.574711,-4.03645658493042,4.43995046615601,7.58411836624146,1.88118863105774,0.05499046295881,0.38107854127884
25,3304604867,0.749762,0.057087,0.322949,0.574719,-4.05111408233643,4.43536901473999,7.59475421905518,1.36481118202209,-0.32556942105293,0.15352252125740
26,3304621534,0.749736,0.057108,0.322949,0.574750,-4.05451869964600,4.39995002746582,7.55996131896973,1.59570956230164,-0.35417881608009,0.34149411320686
27,3304638201,0.749710,0.057143,0.322969,0.574770,-4.05843019485474,4.46444797515869,7.59156417846680,1.74471151828766,-0.28376954793930,0.36414858698845
28,3304654868,0.749680,0.057115,0.322968,0.574812,-4.04924631118774,4.42159128189087,7.56738615036011,1.30843770503998,-0.15124940872192,0.32099118828773
29,3304671535,0.749632,0.057128,0.323010,0.574850,-4.03966856002808,4.44291067123413,7.58179759979248,1.70341110229492,-0.04343273863196,0.45281976461411
30,3304688202,0.749588,0.057139,0.323034,0.574894,-4.03477382659912,4.42851257324219,7.58448934555054,1.59979486465454,-0.13191181421280,0.47539728879929
31,3304704869,0.749570,0.057139,0.323048,0.574909,-4.03095245361328,4.43828535079956,7.58421707153320,1.51428675651550,-0.16321052610874,0.29149812459946
32,3304721536,0.749542,0.057100,0.323032,0.574958,-4.05152130126953,4.39516496658325,7.59727764129639,1.25050175189972,-0.26402211189270,0.19253067672253
33,3304738203,0.749454,0.057076,0.323076,0.575050,-4.06506538391113,4.41446924209595,7.57429361343384,1.72568130493164,-0.11115271598101,0.23435622453690
34,3304754870,0.749414,0.057061,0.323092,0.575095,-4.06020736694336,4.46546745300293,7.55457448959351,1.54147469997406,-0.20033611357212,0.20958870649338
35,3304771537,0.749372,0.057023,0.323105,0.575146,-4.04947519302368,4.44752788543701,7.53784751892090,1.45174062252045,-0.17868059873581,0.09390896558762
36,3304788204,0.749344,0.057002,0.323102,0.575186,-4.03702020645142,4.43304538726807,7.58355998992920,1.34660041332245,-0.19940125942230,0.31040030717850
37,3304804871,0.749328,0.056998,0.323096,0.575211,-4.05592107772827,4.43184328079224,7.58318138122559,1.44905138015747,-0.30992004275322,0.22439284622669
38,3304821538,0.749347,0.056987,0.323070,0.575202,-4.05042409896851,4.41797018051147,7.58911848068237,1.28400325775146,-0.34713536500931,0.12036689370871
39,3304838205,0.749333,0.057002,0.323081,0.575213,-4.04987049102783,4.37893342971802,7.56798315048218,1.63391101360321,-0.30437493324280,0.19136530160904
40,3304854872,0.749296,0.057028,0.323119,0.575237,-4.04828166961670,4.44048070907593,7.57289743423462,1.83490645885468,-0.20383225381374,0.26626962423325
41,3304871539,0.749282,0.057045,0.323135,0.575244,-4.06058931350708,4.44420528411865,7.56227207183838,1.54530370235443,-0.14466692507267,0.41989457607269
42,3304888206,0.749223,0.057050,0.323160,0.575307,-4.05344057083130,4.46287918090820,7.58175563812256,1.62175774574280,-0.15077556669712,0.47004428505898
43,3304904873,0.749172,0.057036,0.323167,0.575371,-4.04536104202271,4.43707418441772,7.58063173294067,1.40926194190979,-0.14808623492718,0.47411674261093
44,3304921540,0.749158,0.057035,0.323163,0.575392,-4.05144929885864,4.39398097991943,7.57108831405640,1.35455334186554,-0.17987157404423,0.44402173161507
45,3304938207,0.749131,0.057058,0.323192,0.575408,-4.04248142242432,4.43232679367065,7.57144641876221,1.69792997837067,-0.16016262769699,0.36583903431892
46,3304954874,0.749099,0.057057,0.323199,0.575445,-4.05588674545288,4.43245220184326,7.55972051620483,1.45781075954437,-0.17409591376781,0.42122644186020
47,3304971541,0.749105,0.057109,0.323221,0.575420,-4.04644441604614,4.43476152420044,7.59167909622192,1.70371842384338,-0.17905199527740,0.46540841460228
48,3304988208,0.749074,0.057102,0.323240,0.575451,-4.03288602828979,4.42020559310913,7.56967830657959,1.46943902969360,-0.07589683681726,0.39668947458267
49,3305004875,0.749067,0.057092,0.323254,0.575454,-4.05089187622070,4.46735095977783,7.57532548904419,1.45743942260742,-0.11713328957558,0.22418797016144
50,3305021542,0.749081,0.057045,0.323234,0.575450,-4.06836700439453,4.43715858459473,7.55935430526733,1.06843364238739,-0.11989943683147,0.15964394807816
51,3305038209,0.749045,0.057011,0.323209,0.575515,-4.07292079925537,4.41806459426880,7.57483911514282,1.15063774585724,-0.24342951178551,0.42139297723770
52,3305054876,0.749052,0.057014,0.323202,0.575509,-4.03729152679443,4.42877244949341,7.58995294570923,1.34526860713959,-0.19007824361324,0.36897656321526
53,3305071543,0.748999,0.057040,0.323250,0.575548,-4.02682685852051,4.41928434371948,7.55340957641602,1.79661560058594,-0.05951751023531,0.49610513448715
54,3305088210,0.748965,0.057042,0.323281,0.575576,-4.03975105285645,4.46052598953247,7.56979990005493,1.59419846534729,-0.07087674736977,0.36895096302032
55,3305104877,0.748949,0.057026,0.323290,0.575593,-4.03757476806641,4.43729972839355,7.55124998092651,1.38943779468536,-0.10643998533487,0.29514795541763
56,3305121544,0.748936,0.056985,0.323296,0.575611,-4.06079530715942,4.45507287979126,7.58131980895996,1.27692115306854,-0.06242455542088,0.17242468893528
57,3305138211,0.748922,0.056967,0.323291,0.575633,-4.05700778961182,4.43117141723633,7.58987140655518,1.32855629920959,-0.18974529206753,0.28031820058823
58,3305154878,0.748905,0.056997,0.323313,0.575640,-4.06033897399902,4.42118787765503,7.58666038513184,1.67344427108765,-0.19096189737320,0.39581871032715
59,3305171545,0.748881,0.057009,0.323320,0.575666,-4.04671144485474,4.41836166381836,7.58881664276123,1.55348718166351,-0.26035949587822,0.34901148080826
60,3305188212,0.748846,0.057030,0.323340,0.575698,-4.04493665695190,4.44358777999878,7.56627321243286,1.69524073600769,-0.25277817249298,0.33702474832535
61,3305204879,0.748845,0.057011,0.323332,0.575705,-4.03345823287964,4.44973611831665,7.57554340362549,1.31914365291595,-0.21506345272064,0.19037921726704
62,3305221546,0.748858,0.057015,0.323324,0.575694,-4.03899002075195,4.42017078399658,7.57056951522827,1.38274002075195,-0.25056263804436,0.25434690713882
63,3305238213,0.748831,0.056970,0.323339,0.575725,-4.05359601974487,4.45091390609741,7.58777332305908,1.32608461380005,-0.02427443675697,0.18955959379673
64,3305254880,0.748798,0.056960,0.323338,0.575769,-4.06216621398926,4.43098688125610,7.57762336730957,1.41707384586334,-0.23486205935478,0.34300526976585
65,3305271547,0.748773,0.056968,0.323352,0.575793,-4.04171180725098,4.43973827362061,7.58641147613525,1.50696158409119,-0.13639402389526,0.44062805175781
66,3305288214,0.748719,0.056979,0.323369,0.575853,-4.04645109176636,4.43130540847778,7.54171466827393,1.63174688816071,-0.23260815441608,0.43994936347008
67,3305304881,0.748661,0.057003,0.323408,0.575904,-4.05012083053589,4.45458173751831,7.55045413970947,1.76749384403229,-0.13722644746304,0.49310851097107
68,3305321548,0.748603,0.057005,0.323426,0.575968,-4.06183481216431,4.43612575531006,7.58138370513916,1.54548311233521,-0.14132447540760,0.52386933565140
69,3305338215,0.748633,0.057048,0.323433,0.575921,-4.03479862213135,4.45322132110596,7.57727622985840,1.53554534912109,-0.18240723013878,0.42673322558403
70,3305354882,0.748610,0.057014,0.323438,0.575952,-4.04867982864380,4.43957090377808,7.55175495147705,1.31674897670746,-0.10229072719812,0.23230719566345
71,3305371549,0.748586,0.056994,0.323460,0.575973,-4.05352544784546,4.41791772842407,7.58150959014893,1.40009260177612,0.01467607542872,0.36025542020798
72,3305388216,0.748547,0.057002,0.323503,0.575998,-4.05011320114136,4.46382474899292,7.57439041137695,1.71167099475861,-0.05881315842271,0.33269613981247
73,3305404883,0.748526,0.056980,0.323494,0.576032,-4.05330085754395,4.42723846435547,7.56553745269775,1.28543746471405,-0.19513677060604,0.32821393013000
74,3305421550,0.748488,0.056976,0.323505,0.576076,-4.04798412322998,4.42975854873657,7.57255220413208,1.54981160163879,-0.23271057009697,0.28189334273338
75,3305438217,0.748465,0.056974,0.323515,0.576101,-4.07018518447876,4.44727277755737,7.55998706817627,1.49409115314484,-0.19156377017498,0.31075885891914
76,3305454884,0.748428,0.056937,0.323510,0.576155,-4.04707908630371,4.46359062194824,7.55499029159546,1.25256359577179,-0.14383453130722,0.33699914813042
77,3305471551,0.748420,0.056915,0.323495,0.576176,-4.04895925521851,4.43308162689209,7.56638765335083,1.23802816867828,-0.20570199191570,0.30845373868942
78,3305488218,0.748449,0.056969,0.323497,0.576132,-4.04865550994873,4.43967247009277,7.58042287826538,1.52325141429901,-0.19666071236134,0.54955887794495
79,3305504885,0.748357,0.056961,0.323503,0.576249,-4.04291868209839,4.44395112991333,7.55810832977295,1.53238224983215,-0.27876222133636,0.55190247297287
80,3305521552,0.748334,0.056969,0.323517,0.576270,-4.04402637481689,4.41902923583984,7.58054637908936,1.51981925964355,-0.15582126379013,0.40146628022194
81,3305538219,0.748300,0.056978,0.323552,0.576294,-4.04604625701904,4.43151855468750,7.58900785446167,1.67810571193695,-0.09966542571783,0.32590883970261
82,3305554886,0.748268,0.056964,0.323604,0.576308,-4.06099987030029,4.44825744628906,7.56593942642212,1.68523895740509,0.03054314479232,0.13317325711250
83,3305571553,0.748313,0.056945,0.323588,0.576261,-4.03804826736450,4.47503852844238,7.55811023712158,1.18696951866150,-0.15802396833897,0.11299043148756
84,3305588220,0.748309,0.056878,0.323557,0.576289,-4.05692386627197,4.43829488754272,7.55772876739502,0.93412077426910,-0.12287052720785,0.22290733456612
85,3305604887,0.748283,0.056840,0.323558,0.576326,-4.04786682128906,4.42100715637207,7.57934474945068,1.26177132129669,-0.09463252872229,0.27364608645439
86,3305621554,0.748268,0.056825,0.323568,0.576342,-4.05068540573120,4.43823385238647,7.57567596435547,1.47941529750824,-0.20046420395374,0.13773229718208
87,3305638221,0.748297,0.056807,0.323554,0.576313,-4.05306673049927,4.42687511444092,7.54484128952026,1.29499101638794,-0.24380090832710,0.03430821374059
88,3305654888,0.748299,0.056810,0.323558,0.576309,-4.04897594451904,4.45171833038330,7.56748914718628,1.49425768852234,-0.24390333890915,0.17214296758175
89,3305671555,0.748283,0.056813,0.323594,0.576309,-4.05753278732300,4.45564031600952,7.58584976196289,1.63926398754120,-0.05384429544210,0.22564786672592
90,3305688222,0.748231,0.056805,0.323618,0.576364,-4.05191469192505,4.45085620880127,7.56287193298340,1.56465435028076,-0.12777537107468,0.37440648674965
91,3305704889,0.748224,0.056789,0.323616,0.576376,-4.05481624603271,4.43479871749878,7.57028961181641,1.27044117450714,-0.09753957390785,0.39010703563690
92,3305721556,0.748242,0.056758,0.323591,0.576370,-4.05599260330200,4.44298315048218,7.56773281097412,1.11040008068085,-0.18658210337162,0.22458495199680
93,3305738223,0.748188,0.056719,0.323602,0.576437,-4.05142641067505,4.40738105773926,7.55815887451172,1.37299418449402,-0.11755587905645,0.28015169501305
94,3305754890,0.748164,0.056717,0.323623,0.576456,-4.05722665786743,4.44720649719238,7.56961345672607,1.57386207580566,-0.15232513844967,0.24568982422352
95,3305771557,0.748183,0.056703,0.323635,0.576426,-4.04258584976196,4.44140815734863,7.56138134002686,1.36431157588959,-0.04648064449430,0.16211558878422
96,3305788224,0.748146,0.056693,0.323659,0.576463,-4.05693101882935,4.42869472503662,7.57968187332153,1.53982269763947,-0.09937087446451,0.32042768597603
97,3305804891,0.748185,0.056698,0.323668,0.576406,-4.04975652694702,4.46829748153687,7.56675767898560,1.38512206077576,-0.05974802002311,0.21684993803501
98,3305821558,0.748150,0.056674,0.323698,0.576436,-4.05731916427612,4.44847822189331,7.56148767471313,1.46846556663513,0.01725015230477,0.30192250013351
99,3305838225,0.748083,0.056639,0.323715,0.576518,-4.07467842102051,4.46076965332031,7.57232666015625,1.39076948165894,-0.06184826418757,0.41872921586037
100,3305854892,0.748048,0.056619,0.323712,0.576566,-4.06438064575195,4.44296264648438,7.58095884323120,1.27811217308044,-0.11548124998808,0.49500381946564
101,3305871559,0.748009,0.056621,0.323733,0.576605,-4.05361032485962,4.42013454437256,7.56633758544922,1.53049957752228,-0.10591491311789,0.45408758521080
102,3305888226,0.747983,0.056602,0.323734,0.576640,-4.04191064834595,4.41462087631226,7.56889963150024,1.36824321746826,-0.16926793754101,0.30366417765617
103,3305904893,0.747952,0.056586,0.323755,0.576671,-4.04470682144165,4.42705202102661,7.55738019943237,1.51002228260040,-0.11963052302599,0.23796758055687
104,3305921560,0.747965,0.056563,0.323751,0.576658,-4.05059719085693,4.44326972961426,7.56220960617065,1.34544789791107,-0.20699544250965,0.03592181205750
105,3305938227,0.747927,0.056542,0.323766,0.576701,-4.05992794036865,4.44302940368652,7.57264471054077,1.53421354293823,-0.21368034183979,0.13568326830864
106,3305954894,0.747944,0.056517,0.323762,0.576683,-4.06433963775635,4.46252393722534,7.56760835647583,1.34131145477295,-0.20611178874969,-0.00670412462205
107,3305971561,0.747937,0.056491,0.323749,0.576702,-4.05671882629395,4.44244241714478,7.56440305709839,1.28199231624603,-0.23919059336185,0.18170930445194
108,3305988228,0.747929,0.056457,0.323733,0.576725,-4.07021379470825,4.45317840576172,7.55862522125244,1.27379655838013,-0.27883905172348,0.09612446278334
109,3306004895,0.747934,0.056413,0.323713,0.576734,-4.02838897705078,4.41202402114868,7.54913091659546,1.11156547069550,-0.16172498464584,0.16914625465870
110,3306021562,0.747907,0.056429,0.323757,0.576743,-4.07088041305542,4.46510076522827,7.58975601196289,1.74327731132507,-0.06503705680370,0.29710736870766
111,3306038229,0.747903,0.056387,0.323749,0.576756,-4.05414199829102,4.45001077651978,7.54039812088013,1.15983259677887,-0.07999486476183,0.24148932099342
112,3306054896,0.747895,0.056353,0.323733,0.576779,-4.04974365234375,4.44507980346680,7.58927202224731,1.22829532623291,-0.23356859385967,0.17054213583469
113,3306071563,0.747885,0.056313,0.323718,0.576804,-4.05174922943115,4.44704103469849,7.56623077392578,1.15335285663605,-0.14959739148617,0.25973841547966
114,3306088230,0.747862,0.056316,0.323729,0.576828,-4.06524801254272,4.42399549484253,7.57285356521606,1.48670184612274,-0.16003455221653,0.38758417963982
115,3306104897,0.747847,0.056329,0.323745,0.576837,-4.04906320571899,4.44569730758667,7.56731271743774,1.54730165004730,-0.14803501963615,0.38308918476105
116,3306121564,0.747811,0.056303,0.323744,0.576887,-4.06057310104370,4.44907855987549,7.56983089447021,1.28651320934296,-0.12011716514826,0.41511785984039
117,3306138231,0.747771,0.056275,0.323752,0.576937,-4.04413700103760,4.42387866973877,7.56765699386597,1.34146523475647,-0.08926667273045,0.38529184460640
118,3306154898,0.747728,0.056252,0.323779,0.576979,-4.05729293823242,4.42236709594727,7.54676342010498,1.44444108009338,0.00987369660288,0.38278180360794
119,3306171565,0.747690,0.056236,0.323788,0.577025,-4.06752204895020,4.42819499969482,7.56858062744141,1.44080400466919,-0.16285192966461,0.33065995573997
120,3306188232,0.747678,0.056193,0.323772,0.577055,-4.06986713409424,4.45624685287476,7.58341264724731,1.15519690513611,-0.17262321710587,0.22778654098511
121,3306204899,0.747646,0.056140,0.323749,0.577114,-4.07012176513672,4.41864252090454,7.59091138839722,1.03796744346619,-0.12666119635105,0.40050572156906
122,3306221566,0.747618,0.056109,0.323770,0.577142,-4.05261754989624,4.44906139373779,7.58825206756592,1.40379369258881,-0.02134178020060,0.24602277576923
123,3306238233,0.747587,0.056060,0.323777,0.577182,-4.06140470504761,4.42735528945923,7.56502389907837,1.23952662944794,-0.03399445489049,0.24641980230808
124,3306254900,0.747544,0.056029,0.323821,0.577216,-4.05954265594482,4.42924833297729,7.54364395141602,1.47632861137390,0.14802858233452,0.34865283966064
125,3306271567,0.747484,0.055977,0.323852,0.577282,-4.04275178909302,4.45463800430298,7.53485202789307,1.32557237148285,0.13100895285606,0.39642053842545
126,3306288234,0.747432,0.055946,0.323884,0.577334,-4.05421209335327,4.43599271774292,7.57177066802979,1.39349722862244,0.10449980199337,0.47693407535553
127,3306304901,0.747373,0.055936,0.323925,0.577388,-4.06152153015137,4.42724323272705,7.56215476989746,1.52979540824890,0.09056650102139,0.56277501583099
128,3306321568,0.747322,0.055957,0.323999,0.577410,-4.06241559982300,4.43869543075562,7.59203052520752,1.78867554664612,0.21489053964615,0.61332172155380
129,3306338235,0.747279,0.055973,0.324066,0.577428,-4.05468559265137,4.44180011749268,7.57520294189453,1.74218833446503,0.17756000161171,0.54164439439774
130,3306354902,0.747269,0.055984,0.324112,0.577414,-4.07277631759644,4.40326595306396,7.58576583862305,1.68039798736572,0.02092557400465,0.27495232224464
131,3306371569,0.747222,0.055959,0.324170,0.577444,-4.05154657363892,4.43796539306641,7.56583023071289,1.64252972602844,0.12556625902653,0.22380375862122
132,3306388236,0.747184,0.055903,0.324235,0.577462,-4.05009460449219,4.47390508651733,7.56152105331421,1.41425645351410,0.38673898577690,0.26765269041061
133,3306404903,0.747202,0.055768,0.324181,0.577483,-4.06072616577148,4.42917919158936,7.57202148437500,0.59394574165344,-0.13324368000031,-0.22865095734596
134,3306421570,0.747204,0.055738,0.324205,0.577470,-4.06226825714111,4.38974905014038,7.55664777755737,1.45095956325531,-0.03786197304726,0.00911812204868
135,3306438237,0.747240,0.055779,0.324229,0.577405,-4.09016513824463,4.49121713638306,7.57794475555420,1.65880668163300,-0.13764907419682,0.24114356935024
136,3306454904,0.747234,0.055755,0.324220,0.577420,-4.06729936599731,4.42898130416870,7.55009508132935,1.29789793491364,-0.21125996112823,0.19729463756084
137,3306471571,0.747284,0.055730,0.324211,0.577362,-4.05721855163574,4.43023109436035,7.57753419876099,1.22823143005371,-0.14027434587479,-0.03058796934783
138,3306488238,0.747240,0.055691,0.324254,0.577400,-4.04638385772705,4.42797517776489,7.55929756164551,1.53040993213654,0.05687299743295,0.15076914429665
139,3306504905,0.747179,0.055666,0.324300,0.577455,-4.05804920196533,4.44220781326294,7.55144119262695,1.65867853164673,-0.02235348150134,0.19507913291454
140,3306521572,0.747148,0.055674,0.324339,0.577473,-4.05470848083496,4.47035217285156,7.53826379776001,1.65340244770050,-0.03235524520278,0.36352106928825
141,3306538239,0.747116,0.055648,0.324339,0.577516,-4.09779119491577,4.45894432067871,7.56280088424683,1.31240761280060,-0.14019751548767,0.36031946539879
142,3306554906,0.747080,0.055642,0.324340,0.577563,-4.05928659439087,4.44365024566650,7.59587907791138,1.38608253002167,-0.16675788164139,0.48569357395172
143,3306571573,0.747045,0.055607,0.324338,0.577613,-4.06342697143555,4.43699502944946,7.55693817138672,1.27841949462891,-0.13999260962009,0.31930074095726
144,3306588240,0.747047,0.055594,0.324323,0.577620,-4.07020378112793,4.40564346313477,7.57133054733276,1.23503160476685,-0.18977090716362,0.34443959593773
145,3306604907,0.747032,0.055608,0.324354,0.577620,-4.05421304702759,4.42872142791748,7.54793262481689,1.66208505630493,-0.10672172158957,0.28693908452988
146,3306621574,0.747031,0.055645,0.324363,0.577614,-4.04344558715820,4.44865369796753,7.57172536849976,1.67071652412415,-0.32856613397598,0.28344297409058
147,3306638241,0.747110,0.055660,0.324305,0.577541,-4.05355072021484,4.46155261993408,7.56355381011963,1.17951583862305,-0.52285116910934,0.05605338141322
148,3306654908,0.747123,0.055649,0.324248,0.577559,-4.05899429321289,4.42253255844116,7.54992103576660,1.15606772899628,-0.55362492799759,0.18097935616970
149,3306671575,0.747135,0.055658,0.324227,0.577553,-4.07812738418579,4.43564844131470,7.55343723297119,1.45892500877380,-0.44653818011284,0.10470472276211
150,3306688242,0.747115,0.055683,0.324236,0.577572,-4.07461643218994,4.41853857040405,7.56311988830566,1.64320838451385,-0.31350585818291,0.32334753870964
151,3306704909,0.747094,0.055746,0.324275,0.577572,-4.07306671142578,4.47336864471436,7.55640363693237,1.92773985862732,-0.23921619355679,0.42547816038132
152,3306721576,0.747086,0.055711,0.324240,0.577604,-4.03069114685059,4.45214986801147,7.54236316680908,1.12571656703949,-0.31687393784523,0.23690468072891
153,3306738243,0.747094,0.055682,0.324226,0.577605,-4.05297136306763,4.42995262145996,7.54515552520752,1.24687755107880,-0.21820099651814,0.11500103026628
154,3306754910,0.747125,0.055620,0.324182,0.577596,-4.05209159851074,4.45345306396484,7.55891513824463,0.97665047645569,-0.30696177482605,-0.10446778684855
155,3306771577,0.747167,0.055603,0.324135,0.577569,-4.09217500686646,4.39904975891113,7.54994535446167,1.04594576358795,-0.32459610700607,0.22048690915108
156,3306788244,0.747121,0.055631,0.324186,0.577597,-4.06739091873169,4.45069837570190,7.57701539993286,1.85765051841736,-0.08922824263573,0.38746890425682
157,3306804911,0.747102,0.055615,0.324205,0.577612,-4.05783557891846,4.45534467697144,7.56037569046021,1.43915188312531,-0.05573963373899,0.27784651517868
158,3306821578,0.747040,0.055552,0.324238,0.577681,-4.04718732833862,4.47932863235474,7.54321050643921,1.36537444591522,0.08096173405647,0.21677307784557
159,3306838245,0.747021,0.055454,0.324227,0.577720,-4.05718517303467,4.42344236373901,7.53787517547607,0.89134752750397,0.07501959055662,0.14464770257473
160,3306854912,0.746982,0.055410,0.324259,0.577758,-4.06075906753540,4.40854454040527,7.56956768035889,1.34348857402802,0.14276517927647,0.35129100084305
161,3306871579,0.746900,0.055380,0.324339,0.577822,-4.04727649688721,4.43569660186768,7.58683300018311,1.64753699302673,0.33278581500053,0.49044477939606
162,3306888246,0.746901,0.055339,0.324348,0.577819,-4.07914876937866,4.45716762542725,7.58725166320801,1.28546297550201,-0.04348396509886,0.08552080392838
163,3306904913,0.746917,0.055248,0.324309,0.577829,-4.07834529876709,4.43822908401489,7.57609176635742,0.87526279687881,-0.18827255070210,-0.12165392935276
164,3306921580,0.746856,0.055229,0.324349,0.577887,-4.07914209365845,4.40621042251587,7.53281641006470,1.63862359523773,-0.05992731824517,0.25990486145020
165,3306938247,0.746796,0.055253,0.324413,0.577927,-4.05450773239136,4.46900463104248,7.55091476440430,1.86880469322205,0.03296354040504,0.49344137310982
166,3306954914,0.746760,0.055262,0.324458,0.577947,-4.05908060073853,4.44211339950562,7.54040050506592,1.65054655075073,0.03319406136870,0.44869616627693
167,3306971581,0.746721,0.055284,0.324528,0.577956,-4.06187391281128,4.44997835159302,7.55677890777588,1.83640480041504,0.12164751440287,0.43642756342888
168,3306988248,0.746684,0.055283,0.324568,0.577982,-4.04861211776733,4.43282365798950,7.55992507934570,1.67426395416260,-0.06656101346016,0.25662645697594
169,3307004915,0.746659,0.055327,0.324629,0.577975,-4.04868030548096,4.43083477020264,7.57307910919189,1.92259156703949,-0.02426162920892,0.39530637860298
170,3307021582,0.746647,0.055361,0.324686,0.577955,-4.09341239929199,4.42677879333496,7.56449747085571,1.86781871318817,-0.02736076340079,0.27721905708313
171,3307038249,0.746637,0.055466,0.324759,0.577917,-4.08298683166504,4.45298099517822,7.55152034759521,2.22775435447693,-0.12233266234398,0.52605926990509
172,3307054916,0.746578,0.055490,0.324803,0.577967,-4.06733179092407,4.45837688446045,7.55225229263306,1.80077743530273,-0.10328959673643,0.48689734935760
173,3307071583,0.746563,0.055527,0.324817,0.577975,-4.05444765090942,4.45295810699463,7.52753257751465,1.62221872806549,-0.22115924954414,0.48883110284805
174,3307088250,0.746523,0.055515,0.324847,0.578010,-4.07308435440063,4.45482015609741,7.56165409088135,1.52635025978088,-0.02282731607556,0.36398205161095
175,3307104917,0.746500,0.055469,0.324835,0.578051,-4.09322309494019,4.45874881744385,7.56207704544067,1.19501173496246,-0.16843552887440,0.22137057781219
176,3307121584,0.746442,0.055404,0.324832,0.578134,-4.07142639160156,4.43945741653442,7.56704092025757,1.17178106307983,-0.08593701571226,0.29087063670158
177,3307138251,0.746427,0.055367,0.324837,0.578154,-4.07765531539917,4.45908164978027,7.59164094924927,1.27852201461792,-0.07222141325474,0.21486495435238
178,3307154918,0.746404,0.055320,0.324822,0.578197,-4.06651306152344,4.43406343460083,7.54613018035889,1.20593559741974,-0.21918709576130,0.16118071973324
179,3307171585,0.746415,0.055271,0.324771,0.578215,-4.06129026412964,4.46417140960693,7.55578231811523,1.01211142539978,-0.39526155591011,0.05866589024663
180,3307188252,0.746421,0.055195,0.324715,0.578246,-4.06572866439819,4.41743326187134,7.54733419418335,0.80340629816055,-0.26508504152298,0.12956182658672
181,3307204919,0.746387,0.055145,0.324717,0.578295,-4.07551336288452,4.44579982757568,7.55287218093872,1.30706739425659,-0.14946933090687,0.12340199202299
182,3307221586,0.746362,0.055087,0.324687,0.578349,-4.06626081466675,4.44874238967896,7.55335569381714,1.02254855632782,-0.19777484238148,0.28253367543221
183,3307238253,0.746405,0.055044,0.324642,0.578323,-4.05816507339478,4.44811344146729,7.56238222122192,0.91807430982590,-0.21297599375248,0.15395793318748
184,3307254920,0.746408,0.054991,0.324572,0.578363,-4.06455707550049,4.42533302307129,7.56712245941162,0.83243834972382,-0.40829840302467,0.26670497655869
185,3307271587,0.746411,0.054970,0.324535,0.578382,-4.06361770629883,4.42665100097656,7.55635166168213,1.17006504535675,-0.36639606952667,0.23091129958630
186,3307288254,0.746407,0.054919,0.324480,0.578423,-4.06136274337769,4.43081998825073,7.52858781814575,0.93723279237747,-0.35371777415276,0.24545931816101
187,3307304921,0.746393,0.054915,0.324479,0.578442,-4.05498886108398,4.43507623672485,7.55757284164429,1.43071246147156,-0.23501573503017,0.27930650115013
188,3307321588,0.746319,0.054887,0.324498,0.578529,-4.06489086151123,4.45402622222900,7.56290674209595,1.49471879005432,-0.14177270233631,0.36508342623711
189,3307338255,0.746244,0.054840,0.324497,0.578631,-4.07975053787231,4.44681119918823,7.52909183502197,1.27051794528961,-0.14314298331738,0.43088242411613
190,3307354922,0.746199,0.054827,0.324492,0.578694,-4.07531595230103,4.43428039550781,7.55951786041260,1.30076658725739,-0.15308071672916,0.58288103342056
191,3307371589,0.746135,0.054800,0.324483,0.578783,-4.08805751800537,4.43180084228516,7.57003879547119,1.20962381362915,-0.11526355147362,0.67014348506927
192,3307388256,0.746086,0.054807,0.324488,0.578843,-4.06770658493042,4.46785545349121,7.55590629577637,1.38348269462585,-0.10371223092079,0.73616021871567
193,3307404923,0.746033,0.054767,0.324469,0.578926,-4.06904220581055,4.44048261642456,7.57187128067017,1.12943053245544,-0.16937038302422,0.53329479694366
194,3307421590,0.745922,0.054686,0.324475,0.579073,-4.07845735549927,4.39467382431030,7.54796695709229,1.17376601696014,-0.02221261337399,0.48004603385925
195,3307438257,0.745874,0.054675,0.324511,0.579116,-4.05621385574341,4.41984939575195,7.54330396652222,1.54491949081421,0.01926074922085,0.42262232303619
196,3307454924,0.745864,0.054642,0.324517,0.579128,-4.07501554489136,4.43360090255737,7.55399465560913,1.29911458492279,-0.06569017469883,0.21786163747311
197,3307471591,0.745922,0.054609,0.324480,0.579078,-4.06766986846924,4.45337915420532,7.56520748138428,1.01261091232300,-0.21512745320797,0.05724438279867
198,3307488258,0.745930,0.054557,0.324449,0.579090,-4.06504583358765,4.41214704513550,7.55437135696411,1.03252470493317,-0.21198990941048,0.13257132470608
199,3307504925,0.745922,0.054516,0.324452,0.579102,-4.07876539230347,4.44785785675049,7.58005189895630,1.32707083225250,-0.14560179412365,0.02976195886731
200,3307521592,0.745902,0.054446,0.324424,0.579151,-4.07839536666870,4.42917633056641,7.56739616394043,1.03308820724487,-0.21361629664898,0.11077491939068
201,3307538259,0.745876,0.054441,0.324439,0.579176,-4.07918405532837,4.42189121246338,7.56855916976929,1.50030207633972,-0.14338627457619,0.31531789898872
202,3307554926,0.745846,0.054443,0.324440,0.579214,-4.07008361816406,4.45967674255371,7.56875610351562,1.45962929725647,-0.23715439438820,0.40505200624466
203,3307571593,0.745817,0.054415,0.324425,0.579263,-4.05497169494629,4.44813299179077,7.56670570373535,1.23276484012604,-0.21229727566242,0.35693863034248
204,3307588260,0.745810,0.054351,0.324389,0.579297,-4.05451250076294,4.43547534942627,7.53657770156860,0.95651912689209,-0.19827432930470,0.19067376852036
205,3307604927,0.745818,0.054307,0.324354,0.579311,-4.06298971176147,4.38528823852539,7.55411863327026,1.05183660984039,-0.25039616227150,0.18095372617245
206,3307621594,0.745783,0.054301,0.324415,0.579321,-4.05362081527710,4.42713069915771,7.57021999359131,1.74528789520264,0.07363651692867,0.19247944653034
207,3307638261,0.745770,0.054265,0.324425,0.579337,-4.07440519332886,4.44087362289429,7.56276273727417,1.34648525714874,-0.08895930647850,0.12986920773983
208,3307654928,0.745755,0.054231,0.324425,0.579359,-4.06858921051025,4.44751977920532,7.56828927993774,1.30810463428497,-0.14647263288498,0.16772478818893
209,3307671595,0.745760,0.054157,0.324390,0.579379,-4.05764675140381,4.45315790176392,7.57820367813110,0.99597543478012,-0.24874413013458,-0.06279592961073
210,3307688262,0.745761,0.054112,0.324380,0.579387,-4.07917356491089,4.39889240264893,7.57564353942871,1.19178462028503,-0.14695927500725,0.09571465849876
211,3307704929,0.745755,0.054138,0.324409,0.579377,-4.08523130416870,4.42507457733154,7.55733156204224,1.74504446983337,-0.20694422721863,0.20008641481400
212,3307721596,0.745690,0.054151,0.324460,0.579430,-4.07998275756836,4.42772626876831,7.56886529922485,1.84155309200287,-0.09514477849007,0.34570738673210
213,3307738263,0.745637,0.054157,0.324507,0.579472,-4.09366703033447,4.46634960174561,7.56624364852905,1.74330294132233,-0.05780146270990,0.35982003808022
214,3307754930,0.745607,0.054108,0.324514,0.579511,-4.06816911697388,4.42608356475830,7.55969810485840,1.30121481418610,-0.08629558235407,0.13561923801899
215,3307771597,0.745621,0.054080,0.324531,0.579487,-4.06086158752441,4.39551448822021,7.56309127807617,1.44326293468475,-0.10788710415363,-0.06799531728029
216,3307788264,0.745652,0.054062,0.324558,0.579433,-4.05322742462158,4.40517044067383,7.55916070938110,1.62840425968170,-0.16962650418282,-0.33101209998131
217,3307804931,0.745668,0.054060,0.324614,0.579381,-4.04202270507812,4.42720460891724,7.55542325973511,1.86754977703094,-0.10943665355444,-0.31943514943123
218,3307821598,0.745709,0.054069,0.324625,0.579321,-4.08634948730469,4.46657752990723,7.54742956161499,1.62492096424103,-0.29757472872734,-0.18411047756672
219,3307838265,0.745717,0.054088,0.324643,0.579299,-4.09371662139893,4.44272422790527,7.56893444061279,1.68119204044342,-0.26384285092354,0.07508363574743
220,3307854932,0.745709,0.054102,0.324658,0.579299,-4.08783435821533,4.49858665466309,7.56988286972046,1.61608445644379,-0.23773066699505,0.20984484255314
221,3307871599,0.745614,0.054055,0.324655,0.579428,-4.09250020980835,4.42876100540161,7.55109643936157,1.32465028762817,-0.22633302211761,0.44567376375198
222,3307888266,0.745584,0.054081,0.324664,0.579458,-4.07342386245728,4.41324853897095,7.55093240737915,1.61763417720795,-0.27256399393082,0.44388091564178
223,3307904933,0.745584,0.054108,0.324670,0.579453,-4.07808971405029,4.40592002868652,7.55124187469482,1.50977909564972,-0.19257549941540,0.45228189229965
224,3307921600,0.745584,0.054138,0.324695,0.579437,-4.05415439605713,4.42590856552124,7.55784368515015,1.63438475131989,-0.12408713251352,0.39165660738945
225,3307938267,0.745570,0.054141,0.324725,0.579437,-4.06136798858643,4.42224168777466,7.55489826202393,1.61379218101501,-0.09262192994356,0.21747744083405
226,3307954934,0.745548,0.054145,0.324763,0.579444,-4.08729171752930,4.45037841796875,7.56948137283325,1.64867663383484,-0.05270453169942,0.26434865593910
227,3307971601,0.745541,0.054119,0.324775,0.579449,-4.09297657012939,4.43722486495972,7.56547117233276,1.41247642040253,-0.11435431241989,0.09793016314507
228,3307988268,0.745521,0.054135,0.324814,0.579451,-4.09640836715698,4.42165422439575,7.55022573471069,1.68721103668213,-0.05667449533939,0.33200463652611
229,3308004935,0.745525,0.054121,0.324808,0.579451,-4.07637071609497,4.46996450424194,7.56423664093018,1.32906854152679,-0.19142290949821,0.21262381970882
230,3308021602,0.745497,0.054051,0.324786,0.579507,-4.06156158447266,4.41623830795288,7.54969835281372,1.10361278057098,-0.22810028493404,0.07074227184057
231,3308038269,0.745504,0.054051,0.324783,0.579499,-4.07265281677246,4.41921710968018,7.57620620727539,1.45693993568420,-0.27128332853317,0.13981974124908
232,3308054936,0.745512,0.054043,0.324808,0.579475,-4.06835603713989,4.43849802017212,7.54895448684692,1.56651127338409,-0.12351084500551,0.01549568306655
233,3308071603,0.745538,0.054055,0.324820,0.579434,-4.06767272949219,4.43203592300415,7.57508134841919,1.58684778213501,-0.23902413249016,0.01584145426750
234,3308088270,0.745572,0.054015,0.324790,0.579411,-4.07292842864990,4.41773080825806,7.56678438186646,1.12182343006134,-0.27600884437561,-0.04039762914181
235,3308104937,0.745538,0.054007,0.324824,0.579436,-4.07170629501343,4.42842102050781,7.56700897216797,1.61553382873535,-0.06429427862167,0.23576492071152
236,3308121604,0.745494,0.054012,0.324868,0.579467,-4.09456443786621,4.43798923492432,7.57121658325195,1.75614738464355,-0.10013924539089,0.24402497708797
237,3308138271,0.745459,0.054021,0.324897,0.579495,-4.06354618072510,4.42651224136353,7.54093551635742,1.62114298343658,-0.10238035768270,0.40167114138603
238,3308154938,0.745409,0.054055,0.324971,0.579514,-4.08564805984497,4.42665624618530,7.55419492721558,1.91397297382355,0.10521696507931,0.52864605188370
239,3308171605,0.745348,0.054077,0.325028,0.579559,-4.07151937484741,4.42634344100952,7.55344867706299,1.80431210994720,0.01357473060489,0.54138839244843
240,3308188272,0.745286,0.054069,0.325054,0.579626,-4.08914041519165,4.47704648971558,7.57310771942139,1.58080303668976,-0.12662278115749,0.40647354722023
241,3308204939,0.745257,0.053994,0.325009,0.579695,-4.07570791244507,4.41882228851318,7.57167863845825,0.90405142307281,-0.25116452574730,0.24499824643135
242,3308221606,0.745317,0.054028,0.325023,0.579607,-4.08138895034790,4.40623617172241,7.57174062728882,1.51371061801910,-0.10357136279345,0.21837389469147
243,3308238273,0.745259,0.054086,0.325107,0.579628,-4.07065963745117,4.41477203369141,7.53779268264771,2.14985322952271,-0.00397637207061,0.48174929618835
244,3308254940,0.745235,0.054141,0.325166,0.579621,-4.07519435882568,4.45727062225342,7.54916620254517,1.98116791248322,-0.09554176777601,0.38956913352013
245,3308271607,0.745229,0.054120,0.325167,0.579631,-4.07778406143188,4.46680593490601,7.55146789550781,1.35962450504303,-0.16025225818157,0.19345270097256
246,3308288274,0.745275,0.054135,0.325157,0.579576,-4.06962871551514,4.42388057708740,7.55102014541626,1.32105171680450,-0.17897513508797,0.28678536415100
247,3308304941,0.745237,0.054127,0.325198,0.579602,-4.06998968124390,4.41220903396606,7.56220674514771,1.64838218688965,-0.04030798748136,0.23709678649902
248,3308321608,0.745228,0.054121,0.325211,0.579607,-4.08033800125122,4.42845678329468,7.55203247070312,1.55174541473389,-0.22001948952675,0.09662390500307
249,3308338275,0.745215,0.054140,0.325256,0.579597,-4.08906126022339,4.43781757354736,7.53326416015625,1.73999881744385,-0.04508475959301,0.26399010419846
250,3308354942,0.745184,0.054159,0.325304,0.579608,-4.09448003768921,4.47166204452515,7.57208251953125,1.79566812515259,-0.06739341467619,0.29019188880920
251,3308371609,0.745155,0.054161,0.325325,0.579633,-4.08281898498535,4.45168256759644,7.55701303482056,1.53761994838715,-0.11376521736383,0.37070542573929
252,3308388276,0.745127,0.054150,0.325333,0.579666,-4.08405971527100,4.42405939102173,7.55200958251953,1.44853889942169,-0.16967771947384,0.31818655133247
253,3308404943,0.745076,0.054117,0.325336,0.579732,-4.06635522842407,4.44431257247925,7.55627822875977,1.37017679214478,-0.18029418587685,0.29708170890808
254,3308421610,0.745059,0.054130,0.325358,0.579740,-4.08644485473633,4.43146800994873,7.54278945922852,1.57903575897217,-0.12685330212116,0.36353385448456
255,3308438277,0.745023,0.054136,0.325366,0.579781,-4.09198474884033,4.44534826278687,7.55835056304932,1.55152761936188,-0.24809101223946,0.36791363358498
256,3308454944,0.745027,0.054146,0.325383,0.579766,-4.07787752151489,4.46555852890015,7.56420087814331,1.51399230957031,-0.11103746294975,0.29914352297783
257,3308471611,0.745054,0.054104,0.325358,0.579749,-4.06742000579834,4.44219827651978,7.55279588699341,1.10123085975647,-0.20501045882702,0.03774031251669
258,3308488278,0.745024,0.054080,0.325380,0.579778,-4.08319377899170,4.43731355667114,7.53821945190430,1.49904739856720,-0.10016486048698,0.17396146059036
259,3308504945,0.745016,0.054074,0.325393,0.579782,-4.09786033630371,4.44724893569946,7.56382608413696,1.45770835876465,-0.12763448059559,0.25167042016983
260,3308521612,0.745014,0.054100,0.325431,0.579760,-4.09962749481201,4.44940900802612,7.56100606918335,1.68294656276703,-0.03864316269755,0.34703931212425
261,3308538279,0.744972,0.054094,0.325445,0.579807,-4.09911584854126,4.45973396301270,7.56323623657227,1.45736265182495,-0.10975681245327,0.46401247382164
262,3308554946,0.744974,0.054130,0.325471,0.579786,-4.07207250595093,4.42887258529663,7.53918647766113,1.60384178161621,-0.06691959500313,0.50751572847366
263,3308571613,0.744966,0.054139,0.325487,0.579786,-4.07162714004517,4.45495128631592,7.53730010986328,1.47238457202911,-0.07366852462292,0.42952495813370
264,3308588280,0.744961,0.054141,0.325483,0.579796,-4.09123182296753,4.40563392639160,7.53414678573608,1.33990275859833,-0.16023945808411,0.44531518220901
265,3308604947,0.745034,0.054175,0.325497,0.579691,-4.07067060470581,4.43347358703613,7.55592441558838,1.45203518867493,-0.03670940175653,0.25617820024490
266,3308621614,0.745023,0.054159,0.325512,0.579698,-4.08864641189575,4.43883609771729,7.57755517959595,1.44340360164642,-0.10147111117840,0.19925399124622
267,3308638281,0.744999,0.054146,0.325523,0.579724,-4.08895540237427,4.44103002548218,7.55088567733765,1.47115504741669,-0.16387644410133,0.25033852458000
268,3308654948,0.744946,0.054130,0.325544,0.579781,-4.09680891036987,4.43048238754272,7.52826213836670,1.52743899822235,-0.13397362828255,0.32149061560631
269,3308671615,0.744932,0.054157,0.325569,0.579784,-4.07053613662720,4.42451429367065,7.55785369873047,1.65207052230835,-0.14770203828812,0.40214502811432
270,3308688282,0.744898,0.054168,0.325592,0.579813,-4.07858228683472,4.44790220260620,7.55316925048828,1.63129842281342,-0.17948737740517,0.34655261039734
271,3308704949,0.744884,0.054186,0.325600,0.579825,-4.07118701934814,4.42800188064575,7.53725576400757,1.57222282886505,-0.24632373452187,0.34296685457230
272,3308721616,0.744873,0.054204,0.325636,0.579817,-4.07168340682983,4.43937397003174,7.57938194274902,1.71850979328156,-0.12211494892836,0.21873249113560
273,3308738283,0.744866,0.054230,0.325661,0.579810,-4.09552955627441,4.41744041442871,7.53076696395874,1.63442325592041,-0.13196304440498,0.37321549654007
274,3308754950,0.744907,0.054282,0.325687,0.579737,-4.08897876739502,4.47061109542847,7.56846237182617,1.72534811496735,-0.16589985787868,0.23839020729065
275,3308771617,0.744887,0.054253,0.325677,0.579771,-4.10206699371338,4.44113636016846,7.56530952453613,1.27829158306122,-0.21058122813702,0.24251385033131
276,3308788284,0.744815,0.054260,0.325708,0.579846,-4.05572319030762,4.43899583816528,7.55575180053711,1.69506144523621,-0.16925513744354,0.47419357299805
277,3308804951,0.744777,0.054270,0.325732,0.579880,-4.06895589828491,4.43717145919800,7.54567861557007,1.65963900089264,-0.18833659589291,0.32182359695435
278,3308821618,0.744702,0.054276,0.325771,0.579954,-4.07661962509155,4.42802572250366,7.51826858520508,1.74550557136536,-0.13994139432907,0.43505734205246
279,3308838285,0.744654,0.054306,0.325795,0.579999,-4.06904506683350,4.45890045166016,7.55022907257080,1.71273410320282,-0.21657460927963,0.50720828771591
280,3308854952,0.744624,0.054370,0.325839,0.580007,-4.08926010131836,4.43280792236328,7.55660104751587,1.97600686550140,-0.23496448993683,0.44726175069809
281,3308871619,0.744602,0.054398,0.325862,0.580019,-4.08862733840942,4.47063064575195,7.55234003067017,1.75057685375214,-0.27279448509216,0.26683309674263
282,3308888286,0.744591,0.054398,0.325860,0.580035,-4.07950496673584,4.45532894134521,7.52997255325317,1.50851118564606,-0.32340517640114,0.16013060510159
283,3308904953,0.744591,0.054366,0.325853,0.580042,-4.08032846450806,4.46921014785767,7.54195404052734,1.30538976192474,-0.21535800397396,0.05976723879576
284,3308921620,0.744631,0.054361,0.325825,0.580007,-4.07033586502075,4.45270872116089,7.55361461639404,1.22316014766693,-0.29644778370857,0.15155033767223
285,3308938287,0.744628,0.054350,0.325783,0.580035,-4.08705663681030,4.43489074707031,7.55020093917847,1.25836455821991,-0.49264106154442,0.18795877695084
286,3308954954,0.744595,0.054387,0.325805,0.580062,-4.06250572204590,4.41670894622803,7.54796171188354,1.72073817253113,-0.24024075269699,0.47768968343735
287,3308971621,0.744579,0.054481,0.325883,0.580029,-4.07791042327881,4.47590589523315,7.53822231292725,2.21895599365234,-0.08112181723118,0.48203098773956
288,3308988288,0.744546,0.054461,0.325902,0.580063,-4.06798696517944,4.47862958908081,7.56528568267822,1.37870597839355,0.00412364443764,0.43608179688454
289,3309004955,0.744522,0.054465,0.325948,0.580068,-4.06193161010742,4.42117309570312,7.51369905471802,1.59496688842773,0.10314234346151,0.42906391620636
290,3309021622,0.744510,0.054461,0.325941,0.580088,-4.11289215087891,4.50020408630371,7.59461688995361,1.29454278945923,-0.15556514263153,0.47945699095726
291,3309038289,0.744547,0.054501,0.325930,0.580042,-4.07520723342896,4.41227006912231,7.50065326690674,1.29230165481567,-0.10522338002920,0.68279612064362
292,3309054956,0.744538,0.054512,0.325947,0.580043,-4.07862424850464,4.45247459411621,7.55325365066528,1.52209877967834,-0.11726134270430,0.36203554272652
293,3309071623,0.744518,0.054541,0.326015,0.580028,-4.08039760589600,4.41826295852661,7.53032159805298,1.90687823295593,0.03026140294969,0.25826567411423
294,3309088290,0.744435,0.054613,0.326159,0.580048,-4.09611177444458,4.44916582107544,7.53627967834473,2.62567281723022,0.13948675990105,0.30975997447968
295,3309104957,0.744371,0.054706,0.326307,0.580037,-4.08698940277100,4.47436666488647,7.54956817626953,2.60044455528259,0.24684239923954,0.48917698860168
296,3309121624,0.744299,0.054829,0.326452,0.580036,-4.08371639251709,4.45056819915771,7.52443599700928,2.68690037727356,0.17341078817844,0.72255992889404
297,3309138291,0.744207,0.054938,0.326636,0.580041,-4.06430816650391,4.46624994277954,7.53653621673584,2.76035761833191,0.48253041505814,0.78858941793442
298,3309154958,0.744154,0.055018,0.326763,0.580029,-4.10157442092896,4.47736692428589,7.52976608276367,2.42565083503723,0.19541208446026,0.47099190950394
299,3309171625,0.744184,0.055062,0.326763,0.579987,-4.08935499191284,4.49547481536865,7.53072357177734,1.67122876644135,-0.40714588761330,0.13701516389847
300,3309188292,0.744205,0.055067,0.326742,0.579971,-4.10078763961792,4.47000694274902,7.52884817123413,1.44213581085205,-0.43754813075066,0.03375754132867
301,3309204959,0.744183,0.055101,0.326742,0.579996,-4.09701347351074,4.47785139083862,7.53508710861206,1.68879914283752,-0.43903371691704,0.30078276991844
302,3309221626,0.744179,0.055117,0.326704,0.580021,-4.08819055557251,4.47437810897827,7.53847217559814,1.40390884876251,-0.56678980588913,0.26131352782249
303,3309238293,0.744205,0.055136,0.326617,0.580035,-4.07710886001587,4.46902751922607,7.52723693847656,1.19779074192047,-0.85730183124542,0.18164527416229
304,3309254960,0.744274,0.055074,0.326411,0.580068,-4.07500314712524,4.50749158859253,7.52373600006104,0.33806201815605,-1.33149540424347,-0.20139905810356
305,3309271627,0.744382,0.054997,0.326166,0.580075,-4.05990600585938,4.44891262054443,7.52542352676392,0.02898076921701,-1.43379259109497,-0.27444648742676
306,3309288294,0.744439,0.054987,0.326003,0.580093,-4.08864736557007,4.47594881057739,7.55239105224609,0.83885425329208,-1.31450128555298,-0.16014978289604
307,3309304961,0.744478,0.054970,0.325870,0.580121,-4.07731056213379,4.45312690734863,7.53935194015503,0.81269097328186,-0.99157643318176,0.11818981170654
308,3309321628,0.744484,0.054969,0.325808,0.580147,-4.07105827331543,4.45954656600952,7.53480911254883,1.18335807323456,-0.60441493988037,0.25164476037025
309,3309338295,0.744465,0.054929,0.325760,0.580203,-4.06014060974121,4.43349123001099,7.54114437103271,1.04648375511169,-0.39250820875168,0.30165356397629
310,3309354962,0.744479,0.054972,0.325739,0.580192,-4.08741378784180,4.45892429351807,7.54446125030518,1.52186822891235,-0.45979282259941,0.35695138573647
311,3309371629,0.744455,0.054969,0.325726,0.580231,-4.08128166198730,4.46876907348633,7.55466127395630,1.36026477813721,-0.28460189700127,0.40336155891418
312,3309388296,0.744429,0.054992,0.325720,0.580265,-4.08517932891846,4.45856380462646,7.55020618438721,1.49293875694275,-0.30995851755142,0.51614713668823
313,3309404963,0.744387,0.054986,0.325705,0.580329,-4.06799173355103,4.47914934158325,7.56719255447388,1.36748754978180,-0.31953760981560,0.44835028052330
314,3309421630,0.744366,0.054966,0.325694,0.580363,-4.05419158935547,4.41728544235229,7.55466175079346,1.32705807685852,-0.25499364733696,0.26187705993652
315,3309438297,0.744348,0.054968,0.325714,0.580374,-4.05536603927612,4.45264339447021,7.54989862442017,1.60956609249115,-0.19534164667130,0.18412970006466
316,3309454964,0.744368,0.054965,0.325712,0.580351,-4.06595468521118,4.46884775161743,7.55189752578735,1.38989877700806,-0.20288459956646,0.15609659254551
317,3309471631,0.744381,0.054957,0.325718,0.580331,-4.08302021026611,4.44374036788940,7.56726026535034,1.40959489345551,-0.14343750476837,0.15459825098515
318,3309488298,0.744378,0.054962,0.325734,0.580326,-4.07972240447998,4.45955562591553,7.53802490234375,1.54420244693756,-0.17047172784805,0.21389167010784
319,3309504965,0.744367,0.054986,0.325758,0.580324,-4.08570480346680,4.45581388473511,7.53498125076294,1.68089747428894,-0.18942514061928,0.28725925087929
320,3309521632,0.744330,0.054986,0.325759,0.580371,-4.06155443191528,4.47552633285522,7.53221750259399,1.47883880138397,-0.25250917673111,0.39375683665276
321,3309538299,0.744303,0.055037,0.325772,0.580393,-4.06909132003784,4.44774293899536,7.51856231689453,1.71185028553009,-0.29827907681465,0.56213474273682
322,3309554966,0.744328,0.055139,0.325801,0.580335,-4.06938028335571,4.46078968048096,7.54983854293823,1.88066363334656,-0.21063242852688,0.65253472328186
323,3309571633,0.744226,0.055172,0.325836,0.580443,-4.07067584991455,4.46653127670288,7.53440093994141,1.92200243473053,-0.32674759626389,0.54863685369492
324,3309588300,0.744182,0.055233,0.325879,0.580470,-4.07311344146729,4.45420074462891,7.53832864761353,1.96402001380920,-0.23382472991943,0.50373774766922
325,3309604967,0.744132,0.055288,0.325931,0.580500,-4.07201910018921,4.44451618194580,7.55074644088745,1.95887184143066,-0.14994311332703,0.53930085897446
326,3309621634,0.744024,0.055297,0.326001,0.580598,-4.06438016891479,4.48709535598755,7.54965353012085,2.01602673530579,-0.09363362193108,0.36767029762268
327,3309638301,0.744043,0.055300,0.325982,0.580584,-4.06953048706055,4.48427200317383,7.55679893493652,1.32199943065643,-0.29547449946404,0.24812300503254
328,3309654968,0.744031,0.055294,0.325978,0.580602,-4.05985450744629,4.45018815994263,7.51581192016602,1.40927481651306,-0.25211217999458,0.26328572630882
329,3309671635,0.744001,0.055284,0.325986,0.580638,-4.07108259201050,4.46048831939697,7.53362798690796,1.48923766613007,-0.21304003894329,0.26081413030624
330,3309688302,0.743983,0.055293,0.325984,0.580661,-4.05594539642334,4.45921611785889,7.52392578125000,1.50687205791473,-0.30072516202927,0.30397152900696
331,3309704969,0.743955,0.055313,0.326024,0.580671,-4.05724000930786,4.48245096206665,7.54205465316772,1.75148618221283,-0.11192109435797,0.31211638450623
332,3309721636,0.743946,0.055328,0.326047,0.580670,-4.06076335906982,4.48102521896362,7.56649208068848,1.60886156558990,-0.13625314831734,0.30362570285797
333,3309738303,0.743927,0.055333,0.326080,0.580675,-4.06414556503296,4.48300266265869,7.53274488449097,1.65236485004425,-0.10300787538290,0.22253592312336
334,3309754970,0.743910,0.055299,0.326081,0.580699,-4.05410671234131,4.49125623703003,7.53381299972534,1.30421149730682,-0.12922248244286,0.19151894748211
335,3309771637,0.743886,0.055242,0.326060,0.580747,-4.06441593170166,4.46959161758423,7.54634857177734,1.10230660438538,-0.18801642954350,0.19749952852726
336,3309788304,0.743860,0.055204,0.326070,0.580778,-4.07191276550293,4.45447969436646,7.54534149169922,1.34747135639191,-0.08562967181206,0.18176053464413
337,3309804971,0.743841,0.055194,0.326089,0.580793,-4.07630681991577,4.49019908905029,7.54050207138062,1.47255086898804,-0.07881667464972,0.29534006118774
338,3309821638,0.743859,0.055161,0.326068,0.580785,-4.06386613845825,4.47368860244751,7.55481529235840,1.13265752792358,-0.17658035457134,0.17449931800365
339,3309838305,0.743853,0.055166,0.326080,0.580784,-4.06235074996948,4.44570446014404,7.51742458343506,1.47223091125488,-0.12311384081841,0.34674471616745
340,3309854972,0.743823,0.055175,0.326127,0.580796,-4.05970716476440,4.49789094924927,7.53765439987183,1.68224215507507,0.02093838341534,0.36300882697105
341,3309871639,0.743823,0.055118,0.326102,0.580816,-4.07863473892212,4.47979450225830,7.52830457687378,0.98229819536209,-0.09263473004103,0.25877785682678
342,3309888306,0.743816,0.055110,0.326131,0.580809,-4.07340240478516,4.47728395462036,7.54617261886597,1.48362839221954,0.01769837550819,0.28532546758652
343,3309904973,0.743777,0.055077,0.326118,0.580870,-4.07090950012207,4.47829532623291,7.54704046249390,1.16859221458435,-0.12769851088524,0.50053614377975
344,3309921640,0.743768,0.055107,0.326105,0.580886,-4.04673671722412,4.44147014617920,7.53710889816284,1.39961874485016,-0.26674985885620,0.62863820791245
345,3309938307,0.743731,0.055079,0.326088,0.580946,-4.06708812713623,4.47405719757080,7.55809831619263,1.21895968914032,-0.22544939815998,0.42331391572952
346,3309954974,0.743649,0.055059,0.326112,0.581039,-4.08212709426880,4.43018817901611,7.55024242401123,1.50773012638092,-0.07809952646494,0.51936155557632
347,3309971641,0.743628,0.055072,0.326144,0.581045,-4.07261753082275,4.48952579498291,7.54374551773071,1.62207794189453,-0.05766058340669,0.37831237912178
348,3309988308,0.743615,0.055028,0.326131,0.581074,-4.06971549987793,4.49275016784668,7.53312110900879,1.17628872394562,-0.16376118361950,0.20095720887184
349,3310004975,0.743587,0.055005,0.326140,0.581107,-4.06944131851196,4.46585988998413,7.52832841873169,1.35123634338379,-0.07850933074951,0.34980544447899
350,3310021642,0.743582,0.054992,0.326127,0.581123,-4.05413770675659,4.47353887557983,7.53370237350464,1.21752524375916,-0.14661349356174,0.43482679128647
351,3310038309,0.743583,0.054996,0.326148,0.581109,-4.06930112838745,4.45974969863892,7.55142259597778,1.51332640647888,-0.07584560662508,0.27687326073647
352,3310054976,0.743576,0.054959,0.326136,0.581128,-4.07908487319946,4.46089839935303,7.55442857742310,1.19022214412689,-0.14797097444534,0.23015573620796
353,3310071643,0.743536,0.054950,0.326146,0.581174,-4.08261585235596,4.48271751403809,7.53699016571045,1.50770449638367,-0.20545868575573,0.30210179090500
354,3310088310,0.743533,0.054929,0.326120,0.581194,-4.06472206115723,4.49239158630371,7.53271579742432,1.22120070457458,-0.30637273192406,0.23626436293125
355,3310104977,0.743513,0.054912,0.326125,0.581219,-4.07354497909546,4.47364902496338,7.53829860687256,1.36281323432922,-0.12370292842388,0.32716381549835
356,3310121644,0.743502,0.054902,0.326108,0.581243,-4.06749677658081,4.46350097656250,7.55223512649536,1.29216074943542,-0.26224201917648,0.34714171290398
357,3310138311,0.743482,0.054888,0.326112,0.581268,-4.06180906295776,4.44336271286011,7.52354288101196,1.39804351329803,-0.15886916220188,0.30151268839836
358,3310154978,0.743464,0.054900,0.326142,0.581274,-4.06759834289551,4.45538139343262,7.53307533264160,1.69019496440887,-0.16666825115681,0.20193053781986
359,3310171645,0.743433,0.054886,0.326137,0.581317,-4.08339834213257,4.50787544250488,7.53841257095337,1.46327924728394,-0.33180615305901,0.18026219308376
360,3310188312,0.743465,0.054889,0.326103,0.581295,-4.07573890686035,4.46835803985596,7.53944540023804,1.18048930168152,-0.30190327763557,0.33206865191460
361,3310204979,0.743426,0.054852,0.326081,0.581361,-4.07446765899658,4.44830322265625,7.52890968322754,1.19922506809235,-0.26453435420990,0.33876636624336
362,3310221646,0.743421,0.054876,0.326082,0.581364,-4.06216955184937,4.45606756210327,7.54964590072632,1.56712579727173,-0.30883151292801,0.30821040272713
363,3310238313,0.743418,0.054882,0.326087,0.581364,-4.05749082565308,4.48121213912964,7.55321979522705,1.54815959930420,-0.28966039419174,0.15443176031113
364,3310254980,0.743412,0.054900,0.326098,0.581365,-4.07643842697144,4.45963478088379,7.53070878982544,1.57159543037415,-0.21914868056774,0.30673769116402
365,3310271647,0.743380,0.054889,0.326099,0.581405,-4.06494855880737,4.50244712829590,7.55494832992554,1.48782908916473,-0.29017269611359,0.20911489427090
366,3310288314,0.743387,0.054863,0.326067,0.581418,-4.06693029403687,4.50386047363281,7.53593254089355,1.13548791408539,-0.28406405448914,0.24663749337196
367,3310304981,0.743346,0.054823,0.326032,0.581493,-4.06494617462158,4.45176410675049,7.52905988693237,1.14087939262390,-0.33721041679382,0.33249127864838
368,3310321648,0.743385,0.054863,0.326028,0.581443,-4.07326078414917,4.44942045211792,7.52871656417847,1.51123893260956,-0.28296270966530,0.31297439336777
369,3310338315,0.743363,0.054848,0.326023,0.581474,-4.05873489379883,4.45790100097656,7.54353332519531,1.41087543964386,-0.27066856622696,0.20935821533203
370,3310354982,0.743426,0.054841,0.325985,0.581415,-4.06775617599487,4.46256494522095,7.54531240463257,1.15047132968903,-0.32928329706192,0.06269989162683
371,3310371649,0.743428,0.054807,0.325956,0.581433,-4.07677984237671,4.46178531646729,7.56739091873169,1.24578893184662,-0.38222476840019,0.00920776557177
372,3310388316,0.743425,0.054751,0.325928,0.581457,-4.07119750976562,4.47549486160278,7.56306982040405,1.12425661087036,-0.29094102978706,-0.01815300062299
373,3310404983,0.743439,0.054741,0.325909,0.581451,-4.09101152420044,4.44518089294434,7.51963853836060,1.34070944786072,-0.32906553149223,0.10873871296644
374,3310421650,0.743422,0.054719,0.325905,0.581477,-4.06440544128418,4.47519159317017,7.54325246810913,1.39138436317444,-0.25605657696724,0.14573626220226
375,3310438317,0.743420,0.054713,0.325900,0.581483,-4.08518600463867,4.44258403778076,7.53741741180420,1.36012399196625,-0.20933899283409,0.28440338373184
376,3310454984,0.743425,0.054709,0.325903,0.581476,-4.08506679534912,4.48737478256226,7.55512380599976,1.45304679870605,-0.22168430685997,0.14791333675385
377,3310471651,0.743429,0.054698,0.325901,0.581472,-4.07312393188477,4.44407415390015,7.53595066070557,1.35223519802094,-0.16490095853806,0.23231998085976
378,3310488318,0.743388,0.054681,0.325921,0.581514,-4.06438732147217,4.47038888931274,7.55246591567993,1.51474797725677,-0.13013172149658,0.26482251286507
379,3310504985,0.743380,0.054695,0.325943,0.581512,-4.05512046813965,4.46144008636475,7.54628849029541,1.57407963275909,-0.11557089537382,0.34301805496216
380,3310521652,0.743308,0.054696,0.325981,0.581583,-4.06346750259399,4.45556211471558,7.53307390213013,1.69690549373627,-0.10868109762669,0.43350777029991
381,3310538319,0.743283,0.054684,0.325985,0.581614,-4.06690120697021,4.49112558364868,7.54906368255615,1.44679737091064,-0.20830166339874,0.25927734375000
382,3310554986,0.743262,0.054648,0.325969,0.581652,-4.05153942108154,4.43882274627686,7.53017091751099,1.16298294067383,-0.16300563514233,0.33930423855782
383,3310571653,0.743272,0.054684,0.326002,0.581618,-4.06954574584961,4.43598175048828,7.58232641220093,1.71502649784088,-0.11682593077421,0.29612123966217
384,3310588320,0.743247,0.054672,0.326018,0.581642,-4.07131624221802,4.46741628646851,7.53683137893677,1.50977909564972,-0.15360575914383,0.21772074699402
385,3310604987,0.743214,0.054655,0.326013,0.581689,-4.07675361633301,4.46825456619263,7.54941272735596,1.40557372570038,-0.27210292220116,0.27175077795982
386,3310621654,0.743216,0.054626,0.325997,0.581698,-4.06576633453369,4.46033763885498,7.54493665695190,1.28717899322510,-0.27878782153130,0.06342985481024
387,3310638321,0.743210,0.054622,0.326001,0.581704,-4.06998872756958,4.45250225067139,7.54762458801270,1.40353751182556,-0.16227565705776,0.30557230114937
388,3310654988,0.743168,0.054586,0.326013,0.581754,-4.06792306900024,4.45139980316162,7.54467010498047,1.39130747318268,-0.11067887395620,0.23392076790333
389,3310671655,0.743143,0.054573,0.326030,0.581777,-4.06303310394287,4.45846319198608,7.52886962890625,1.49172198772430,-0.12448412179947,0.23951715230942
390,3310688322,0.743114,0.054553,0.326051,0.581804,-4.07942104339600,4.46720886230469,7.55972385406494,1.47339630126953,-0.07689572870731,0.24848161637783
391,3310704989,0.743115,0.054525,0.326048,0.581808,-4.07247495651245,4.47594165802002,7.55776214599609,1.31258678436279,-0.16769273579121,0.12058459222317
392,3310721656,0.743127,0.054491,0.326034,0.581803,-4.07480478286743,4.45418119430542,7.54978656768799,1.25229465961456,-0.23747456073761,0.01928636245430
393,3310738323,0.743117,0.054482,0.326037,0.581815,-4.05518150329590,4.42678022384644,7.52613019943237,1.42926549911499,-0.19612284004688,0.22772254049778
394,3310754990,0.743144,0.054534,0.326086,0.581748,-4.06773710250854,4.45771026611328,7.52615642547607,1.85766315460205,-0.06342343986034,0.22640343010426
395,3310771657,0.743133,0.054525,0.326114,0.581748,-4.07194042205811,4.47541570663452,7.55526351928711,1.57045543193817,-0.09633576869965,0.13004846870899
396,3310788324,0.743142,0.054528,0.326145,0.581719,-4.06838178634644,4.45976781845093,7.54705524444580,1.53662109375000,0.01184587273747,0.25017204880714
397,3310804991,0.743126,0.054551,0.326190,0.581711,-4.09103059768677,4.49311542510986,7.56473922729492,1.71743416786194,-0.01210840512067,0.36293193697929
398,3310821658,0.743108,0.054556,0.326170,0.581746,-4.06000280380249,4.45782327651978,7.54429340362549,1.33065664768219,-0.31509387493134,0.46644568443298
399,3310838325,0.743117,0.054579,0.326169,0.581732,-4.05138635635376,4.46449327468872,7.54679489135742,1.49567902088165,-0.25172799825668,0.34405535459518
400,3310854992,0.743138,0.054546,0.326153,0.581718,-4.07401943206787,4.44668292999268,7.53344774246216,1.15367281436920,-0.14287403225899,0.15680095553398
401,3310871659,0.743107,0.054570,0.326203,0.581727,-4.06850719451904,4.43599748611450,7.53467798233032,1.84223186969757,-0.09810303896666,0.26495060324669
402,3310888326,0.743091,0.054567,0.326254,0.581719,-4.07464933395386,4.48326873779297,7.52378988265991,1.69579112529755,0.02542060427368,0.14299570024014
403,3310904993,0.743062,0.054557,0.326311,0.581724,-4.08693361282349,4.48362541198730,7.52775812149048,1.65014946460724,0.13874399662018,0.27039328217506
404,3310921660,0.743049,0.054533,0.326329,0.581733,-4.06605958938599,4.47860193252563,7.53200244903564,1.43090474605560,-0.07035168260336,0.17123371362686
405,3310938327,0.743015,0.054480,0.326325,0.581784,-4.05963516235352,4.45793247222900,7.55169010162354,1.24782514572144,-0.15192814171314,0.14496786892414
406,3310954994,0.742995,0.054416,0.326322,0.581817,-4.05867385864258,4.46185255050659,7.55573701858521,1.21577095985413,-0.13014453649521,0.00058909208747
407,3310971661,0.743000,0.054427,0.326351,0.581793,-4.10406255722046,4.42864131927490,7.53715038299561,1.61817181110382,-0.09829512983561,0.18446263670921
408,3310988328,0.742925,0.054467,0.326433,0.581840,-4.08313083648682,4.48059606552124,7.55138921737671,2.13009309768677,-0.03661976009607,0.40311828255653
409,3311004995,0.742903,0.054469,0.326455,0.581855,-4.06453084945679,4.49820089340210,7.53027486801147,1.53640341758728,-0.09777007997036,0.34956210851669
410,3311021662,0.742914,0.054482,0.326468,0.581832,-4.04038763046265,4.46850967407227,7.52235126495361,1.48747038841248,-0.11011540144682,0.32003071904182
411,3311038329,0.742895,0.054443,0.326456,0.581867,-4.06165504455566,4.46236324310303,7.54244613647461,1.22137999534607,-0.19098749756813,0.21435269713402
412,3311054996,0.742887,0.054413,0.326448,0.581885,-4.05308961868286,4.44030427932739,7.54168653488159,1.27826571464539,-0.18639002740383,0.18731847405434
413,3311071663,0.742893,0.054456,0.326489,0.581850,-4.07777070999146,4.46184539794922,7.55648612976074,1.83648169040680,-0.14780448377132,0.22706937789917
414,3311088330,0.742864,0.054476,0.326526,0.581865,-4.08010053634644,4.45973110198975,7.53785133361816,1.74784910678864,-0.14003103971481,0.29184392094612
415,3311104997,0.742857,0.054496,0.326572,0.581846,-4.05701541900635,4.49336481094360,7.51786422729492,1.78140187263489,-0.07373256236315,0.18042868375778
416,3311121664,0.742805,0.054425,0.326559,0.581926,-4.06994342803955,4.45590162277222,7.51664161682129,1.21533548831940,-0.24828311800957,0.04350317269564
417,3311138331,0.742829,0.054412,0.326558,0.581897,-4.08002233505249,4.49782705307007,7.54261922836304,1.37538921833038,-0.18407206237316,0.05336406081915
418,3311154998,0.742865,0.054414,0.326558,0.581851,-4.08923721313477,4.46485376358032,7.53049516677856,1.32395875453949,-0.10097166150808,0.26328572630882
419,3311171665,0.742820,0.054457,0.326610,0.581876,-4.08397197723389,4.45693683624268,7.55037975311279,1.88606798648834,-0.08497653901577,0.50322550535202
420,3311188332,0.742784,0.054489,0.326666,0.581887,-4.07131910324097,4.48011541366577,7.51874732971191,1.81677269935608,0.02093837969005,0.49036794900894
421,3311204999,0.742767,0.054476,0.326699,0.581892,-4.06109571456909,4.46555423736572,7.54002809524536,1.51148211956024,0.01643054559827,0.25642153620720
422,3311221666,0.742776,0.054429,0.326707,0.581880,-4.06460666656494,4.49535465240479,7.53528547286987,1.22595191001892,0.01675070635974,0.09246184676886
423,3311238333,0.742740,0.054369,0.326714,0.581928,-4.07449007034302,4.43868827819824,7.56737136840820,1.28338837623596,-0.09426113963127,0.08189661055803
424,3311255000,0.742748,0.054388,0.326760,0.581889,-4.08127546310425,4.44675397872925,7.55856561660767,1.71086442470551,0.00216427328996,0.19460530579090
425,3311271667,0.742762,0.054447,0.326812,0.581837,-4.08746242523193,4.47153520584106,7.52906417846680,1.85963559150696,-0.02709183283150,0.40666565299034
426,3311288334,0.742738,0.054470,0.326841,0.581849,-4.09530687332153,4.49368810653687,7.54458856582642,1.66250765323639,-0.11802972853184,0.41774314641953
427,3311305001,0.742707,0.054474,0.326871,0.581871,-4.09988069534302,4.46898794174194,7.51610708236694,1.54366445541382,-0.01331220008433,0.46155360341072
428,3311321668,0.742667,0.054468,0.326892,0.581912,-4.07675409317017,4.45693778991699,7.51476049423218,1.51068818569183,-0.09298050403595,0.41279989480972
429,3311338335,0.742635,0.054441,0.326896,0.581952,-4.06482362747192,4.47555446624756,7.50657510757446,1.33164262771606,-0.11858039349318,0.32704856991768
430,3311355002,0.742664,0.054447,0.326898,0.581914,-4.07735919952393,4.46314477920532,7.51711702346802,1.33609926700592,-0.07430884987116,0.34505429863930
431,3311371669,0.742588,0.054399,0.326926,0.581999,-4.08404588699341,4.46028089523315,7.54256772994995,1.42496252059937,0.00002561270230,0.32339876890182
432,3311388336,0.742563,0.054390,0.326978,0.582002,-4.08954763412476,4.44439983367920,7.54772520065308,1.64725506305695,0.08116664737463,0.23475320637226
433,3311405003,0.742583,0.054417,0.327022,0.581950,-4.07475328445435,4.49314308166504,7.53507852554321,1.70881533622742,0.00064031756483,0.22398309409618
434,3311421670,0.742606,0.054417,0.327036,0.581914,-4.08300828933716,4.48081159591675,7.52933120727539,1.43579661846161,-0.07797146588564,0.19089144468307
435,3311438337,0.742592,0.054434,0.327062,0.581915,-4.08549165725708,4.48740959167480,7.52742099761963,1.59231603145599,-0.07825320214033,0.39944285154343
436,3311455004,0.742582,0.054406,0.327054,0.581934,-4.07469797134399,4.48999214172363,7.53547811508179,1.25550889968872,-0.16333858668804,0.25900843739510
437,3311471671,0.742546,0.054383,0.327053,0.581983,-4.09038782119751,4.45628261566162,7.52036190032959,1.30724644660950,-0.12974752485752,0.41998422145844
438,3311488338,0.742530,0.054381,0.327058,0.582001,-4.06860828399658,4.46260213851929,7.54283285140991,1.43967711925507,-0.17898795008659,0.34013664722443
439,3311505005,0.742547,0.054419,0.327078,0.581965,-4.07335805892944,4.44803094863892,7.51842021942139,1.55072093009949,-0.07012116909027,0.49422267079353
440,3311521672,0.742524,0.054424,0.327116,0.581972,-4.07156324386597,4.48747539520264,7.52286815643311,1.63640809059143,-0.03235524520278,0.29957896471024
441,3311538339,0.742507,0.054412,0.327117,0.581995,-4.08023118972778,4.45112514495850,7.51159524917603,1.37928235530853,-0.17211094498634,0.32337316870689
442,3311555006,0.742433,0.054406,0.327165,0.582062,-4.08689594268799,4.46193933486938,7.50423336029053,1.71561563014984,-0.03001168183982,0.39330866932869
443,3311571673,0.742405,0.054362,0.327166,0.582101,-4.06466436386108,4.51790380477905,7.54639673233032,1.25435638427734,-0.09077781438828,0.23255050182343
444,3311588340,0.742375,0.054321,0.327161,0.582146,-4.07997846603394,4.43616485595703,7.52651405334473,1.19531905651093,-0.08210791647434,0.35609334707260
445,3311605007,0.742346,0.054339,0.327188,0.582167,-4.08355236053467,4.50008869171143,7.53971862792969,1.60577547550201,-0.09596438705921,0.47999480366707
446,3311621674,0.742313,0.054334,0.327196,0.582204,-4.09171152114868,4.47569513320923,7.54168510437012,1.43897271156311,-0.14543530344963,0.42218691110611
447,3311638341,0.742253,0.054299,0.327201,0.582282,-4.08308029174805,4.48329067230225,7.54643487930298,1.38288092613220,-0.17731033265591,0.32668998837471
448,3311655008,0.742248,0.054280,0.327189,0.582297,-4.07968139648438,4.43102359771729,7.52735757827759,1.31185698509216,-0.24764281511307,0.19352956116199
449,3311671675,0.742298,0.054321,0.327221,0.582211,-4.07271337509155,4.46697902679443,7.54110336303711,1.69225656986237,-0.08319645375013,0.16106547415257
450,3311688342,0.742312,0.054358,0.327254,0.582170,-4.07455587387085,4.49189710617065,7.51319026947021,1.73230230808258,-0.13732889294624,0.24867372214794
451,3311705009,0.742304,0.054393,0.327286,0.582160,-4.06937456130981,4.50752401351929,7.51771640777588,1.70297563076019,-0.10960315167904,0.40487277507782
452,3311721676,0.742334,0.054382,0.327278,0.582127,-4.08502578735352,4.48018264770508,7.54634952545166,1.25226891040802,-0.11954086273909,0.22650590538979
453,3311738343,0.742313,0.054399,0.327308,0.582135,-4.06389522552490,4.47119045257568,7.51034307479858,1.65014934539795,-0.10521057248116,0.36615917086601
454,3311755010,0.742299,0.054365,0.327299,0.582162,-4.06616830825806,4.48755979537964,7.52167892456055,1.22865390777588,-0.15267090499401,0.25608852505684
455,3311771677,0.742320,0.054368,0.327291,0.582139,-4.09092092514038,4.45963048934937,7.52746248245239,1.38819539546967,-0.25293183326721,0.18135072290897
456,3311788344,0.742263,0.054369,0.327314,0.582198,-4.10283327102661,4.47302055358887,7.55354452133179,1.59004926681519,-0.14407783746719,0.44800454378128
457,3311805011,0.742214,0.054391,0.327340,0.582244,-4.06877899169922,4.49117898941040,7.52422904968262,1.66688752174377,-0.16596391797066,0.52675080299377
458,3311821678,0.742193,0.054438,0.327374,0.582248,-4.07402086257935,4.49378538131714,7.51985883712769,1.74912965297699,-0.12112885713577,0.54657500982285
459,3311838345,0.742148,0.054436,0.327371,0.582307,-4.06961345672607,4.46888017654419,7.53546762466431,1.39867103099823,-0.20809678733349,0.54637008905411
460,3311855012,0.742107,0.054438,0.327414,0.582335,-4.07987260818481,4.46455526351929,7.51488876342773,1.65404260158539,-0.00242680357769,0.37375333905220
461,3311871679,0.742082,0.054424,0.327411,0.582370,-4.08891868591309,4.51176881790161,7.54491758346558,1.32933747768402,-0.16068767011166,0.41040506958961
462,3311888346,0.742069,0.054410,0.327393,0.582397,-4.08700561523438,4.43831682205200,7.51468038558960,1.28274810314178,-0.27299937605858,0.31360191106796
463,3311905013,0.742049,0.054421,0.327427,0.582402,-4.07617712020874,4.45172643661499,7.53607988357544,1.66230273246765,-0.09125165641308,0.28509500622749
464,3311921680,0.742033,0.054438,0.327447,0.582411,-4.08732223510742,4.48603391647339,7.52809333801270,1.59550464153290,-0.16168656945229,0.35916689038277
465,3311938347,0.742003,0.054414,0.327453,0.582447,-4.09747648239136,4.49625492095947,7.52319955825806,1.48949372768402,-0.25819525122643,0.08231922239065
466,3311955014,0.742029,0.054427,0.327458,0.582411,-4.09521293640137,4.46647548675537,7.50994873046875,1.46567392349243,-0.17322510480881,0.22112725675106
467,3311971681,0.741964,0.054402,0.327473,0.582487,-4.08479070663452,4.51838922500610,7.51829910278320,1.43958735466003,-0.11137041449547,0.42301931977272
468,3311988348,0.741943,0.054357,0.327442,0.582536,-4.07124805450439,4.49183654785156,7.51379585266113,1.11366581916809,-0.28205347061157,0.23814690113068
469,3312005015,0.741930,0.054353,0.327457,0.582544,-4.07631826400757,4.46610593795776,7.52524995803833,1.44468426704407,-0.08295312523842,0.34509268403053
470,3312021682,0.741860,0.054299,0.327472,0.582629,-4.07511854171753,4.46651220321655,7.52617406845093,1.31760704517365,-0.02905120700598,0.34597638249397
471,3312038349,0.741846,0.054287,0.327480,0.582645,-4.09332752227783,4.46698904037476,7.51487731933594,1.44322443008423,-0.17102240025997,0.21323852241039
472,3312055016,0.741815,0.054270,0.327506,0.582671,-4.08241605758667,4.47247171401978,7.54569578170776,1.52199614048004,-0.06351309269667,0.24119479954243
473,3312071683,0.741718,0.054236,0.327531,0.582784,-4.08866643905640,4.47031879425049,7.53545665740967,1.54718625545502,-0.14515355229378,0.37573826313019
474,3312088350,0.741725,0.054259,0.327543,0.582766,-4.08386182785034,4.49437761306763,7.53435039520264,1.55700874328613,-0.18677419424057,0.31699556112289
475,3312105017,0.741717,0.054250,0.327523,0.582788,-4.08425188064575,4.49007034301758,7.52264070510864,1.25597000122070,-0.25416120886803,0.38549673557281
476,3312121684,0.741694,0.054236,0.327531,0.582814,-4.08001661300659,4.48445320129395,7.53810596466064,1.41850817203522,-0.13775150477886,0.30602055788040
477,3312138351,0.741650,0.054191,0.327522,0.582880,-4.07743072509766,4.48650121688843,7.52980566024780,1.25449728965759,-0.19973424077034,0.25158077478409
478,3312155018,0.741620,0.054159,0.327518,0.582922,-4.06254529953003,4.49150657653809,7.52605581283569,1.23832285404205,-0.11103746294975,0.38052788376808
479,3312171685,0.741604,0.054120,0.327519,0.582946,-4.08582592010498,4.48029661178589,7.51986837387085,1.27829134464264,-0.10243158787489,0.18313080072403
480,3312188352,0.741577,0.054086,0.327504,0.582992,-4.07649993896484,4.48890733718872,7.52149200439453,1.24261295795441,-0.23724400997162,0.25891879200935
481,3312205019,0.741561,0.054059,0.327512,0.583010,-4.10029745101929,4.46683168411255,7.55299425125122,1.37660586833954,-0.12183322012424,0.17922487854958
482,3312221686,0.741556,0.054058,0.327507,0.583020,-4.08911180496216,4.47633600234985,7.51986265182495,1.40930032730103,-0.24779649078846,0.28362223505974
483,3312238353,0.741562,0.054108,0.327529,0.582995,-4.08126592636108,4.49175930023193,7.53532028198242,1.69403684139252,-0.17754083871841,0.44581466913223
484,3312255020,0.741557,0.054097,0.327520,0.583007,-4.08492660522461,4.47442102432251,7.51077413558960,1.32311356067657,-0.21506342291832,0.29149812459946
485,3312271687,0.741537,0.054117,0.327541,0.583019,-4.07746791839600,4.47720384597778,7.53861141204834,1.62782800197601,-0.17154745757580,0.38052791357040
486,3312288354,0.741527,0.054118,0.327544,0.583029,-4.07694959640503,4.49558639526367,7.52543401718140,1.46070516109467,-0.21288636326790,0.28100976347923
487,3312305021,0.741529,0.054108,0.327549,0.583025,-4.07778453826904,4.48970746994019,7.52423763275146,1.38555741310120,-0.13657332956791,0.23600822687149
488,3312321688,0.741485,0.054080,0.327560,0.583078,-4.07775592803955,4.46887540817261,7.55171060562134,1.38115215301514,-0.09920439124107,0.34061050415039
489,3312338355,0.741446,0.054085,0.327578,0.583116,-4.08495521545410,4.45387029647827,7.52800798416138,1.57041704654694,-0.16265986859798,0.40114611387253
490,3312355022,0.741420,0.054086,0.327603,0.583136,-4.07936859130859,4.50628852844238,7.52397155761719,1.58394050598145,-0.12424079328775,0.29400816559792
491,3312371689,0.741454,0.054094,0.327590,0.583100,-4.07979202270508,4.47075319290161,7.52005720138550,1.28935611248016,-0.17413434386253,0.33124905824661
492,3312388356,0.741421,0.054070,0.327589,0.583144,-4.08968544006348,4.48355436325073,7.53377389907837,1.38436639308929,-0.22368209064007,0.23107779026031
493,3312405023,0.741395,0.054059,0.327591,0.583177,-4.06288433074951,4.45931243896484,7.53013944625854,1.40631651878357,-0.19171747565269,0.34162217378616
494,3312421690,0.741393,0.054082,0.327612,0.583166,-4.07670688629150,4.48471546173096,7.51928615570068,1.57158255577087,-0.10874512046576,0.40042898058891
495,3312438357,0.741370,0.054075,0.327612,0.583195,-4.07932615280151,4.48405599594116,7.53901243209839,1.47517621517181,-0.27086067199707,0.22540454566479
496,3312455024,0.741282,0.054103,0.327643,0.583287,-4.07969427108765,4.45311307907104,7.53990936279297,1.82199776172638,-0.27566304802895,0.56145596504211
497,3312471691,0.741250,0.054126,0.327671,0.583311,-4.09562444686890,4.52787542343140,7.52843379974365,1.69274318218231,-0.16445273160934,0.40032646059990
498,3312488358,0.741301,0.054119,0.327641,0.583263,-4.08116626739502,4.48486232757568,7.50112962722778,1.12508904933929,-0.20465186238289,0.24580504000187
499,3312505025,0.741279,0.054103,0.327623,0.583303,-4.07752132415771,4.47127580642700,7.53323936462402,1.27245163917542,-0.26220360398293,0.37765923142433
500,3312521692,0.741249,0.054106,0.327605,0.583350,-4.07209920883179,4.47661113739014,7.51694536209106,1.35911238193512,-0.33426496386528,0.46314162015915
501,3312538359,0.741212,0.054125,0.327607,0.583394,-4.08502721786499,4.48107767105103,7.53056859970093,1.57071161270142,-0.31103423237801,0.44526395201683
502,3312555026,0.741208,0.054095,0.327578,0.583418,-4.07744836807251,4.47423648834229,7.52578687667847,1.22180259227753,-0.35233473777771,0.11961131542921
503,3312571693,0.741244,0.054118,0.327587,0.583366,-4.07255792617798,4.47146701812744,7.53849649429321,1.57373380661011,-0.23764099180698,0.09869852662086
504,3312588360,0.741242,0.054103,0.327594,0.583366,-4.09097146987915,4.49006748199463,7.53706502914429,1.47844183444977,-0.22201727330685,0.04378491267562
505,3312605027,0.741197,0.054084,0.327600,0.583421,-4.08429336547852,4.48581600189209,7.49993848800659,1.44560647010803,-0.20548427104950,0.30139744281769
506,3312621694,0.741173,0.054057,0.327595,0.583457,-4.08343410491943,4.51375961303711,7.52782344818115,1.32548284530640,-0.19212725758553,0.25724115967751
507,3312638361,0.741167,0.054001,0.327536,0.583502,-4.06786441802979,4.45243883132935,7.52402925491333,0.89840382337570,-0.36228522658348,0.23134669661522
508,3312655028,0.741141,0.053972,0.327531,0.583541,-4.08056926727295,4.46966409683228,7.54378509521484,1.34343731403351,-0.22698612511158,0.19715374708176
509,3312671695,0.741157,0.053977,0.327521,0.583526,-4.08792924880981,4.46510314941406,7.51923227310181,1.37911581993103,-0.25738841295242,0.24300047755241
510,3312688362,0.741117,0.054010,0.327569,0.583546,-4.08900117874146,4.48318099975586,7.54271507263184,1.83664786815643,-0.09290364384651,0.42405658960342
511,3312705029,0.741056,0.054012,0.327609,0.583602,-4.08404254913330,4.50866794586182,7.53732395172119,1.73467135429382,-0.12716066837311,0.32759925723076
512,3312721696,0.741011,0.053971,0.327589,0.583673,-4.08268976211548,4.48673057556152,7.53091049194336,1.20745956897736,-0.25244519114494,0.31748223304749
513,3312738363,0.740985,0.053899,0.327544,0.583739,-4.08311510086060,4.47555732727051,7.51655387878418,0.93450498580933,-0.28268095850945,0.20176404714584
514,3312755030,0.740977,0.053903,0.327544,0.583749,-4.07108020782471,4.43694114685059,7.51597023010254,1.46037220954895,-0.24492783844471,0.28159883618355
515,3312771697,0.740973,0.053924,0.327577,0.583733,-4.05674409866333,4.46593618392944,7.54109954833984,1.67572367191315,-0.09112357348204,0.27874299883842
516,3312788364,0.740916,0.053955,0.327622,0.583778,-4.08375644683838,4.49807500839233,7.53818702697754,1.88810396194458,-0.18947632610798,0.39277073740959
517,3312805031,0.740876,0.053967,0.327647,0.583813,-4.07648897171021,4.49216270446777,7.53375577926636,1.65148138999939,-0.16806414723396,0.37900394201279
518,3312821698,0.740831,0.053999,0.327685,0.583845,-4.07454204559326,4.46367311477661,7.53109502792358,1.79165935516357,-0.14863689243793,0.46860995888710
519,3312838365,0.740837,0.054076,0.327747,0.583796,-4.07285404205322,4.47278451919556,7.52152490615845,1.97893929481506,-0.01452880259603,0.50029277801514
520,3312855032,0.740796,0.054085,0.327791,0.583823,-4.10261726379395,4.50505399703979,7.52294158935547,1.75728726387024,-0.09239140152931,0.27725747227669
521,3312871699,0.740778,0.054070,0.327795,0.583845,-4.08434152603149,4.51251411437988,7.51288604736328,1.42348992824554,-0.19899144768715,0.22302256524563
522,3312888366,0.740773,0.054026,0.327769,0.583871,-4.07211780548096,4.49241685867310,7.54238224029541,1.07347953319550,-0.17842447757721,0.25694662332535
523,3312905033,0.740741,0.053991,0.327753,0.583923,-4.06869983673096,4.47114276885986,7.53389310836792,1.18996608257294,-0.17778417468071,0.37960582971573
524,3312921700,0.740728,0.053989,0.327773,0.583929,-4.08120727539062,4.46031999588013,7.52899122238159,1.52476239204407,-0.11747904121876,0.25254121422768
525,3312938367,0.740667,0.053986,0.327795,0.583993,-4.07129287719727,4.47068452835083,7.52451705932617,1.60540401935577,-0.18066558241844,0.38803237676620
526,3312955034,0.740651,0.053963,0.327783,0.584023,-4.05913066864014,4.49384832382202,7.53258514404297,1.36482393741608,-0.30974075198174,0.12636025249958
527,3312971701,0.740667,0.053922,0.327745,0.584027,-4.06473588943481,4.49128484725952,7.50326585769653,1.04976212978363,-0.27636742591858,0.13226397335529
528,3312988368,0.740694,0.053888,0.327710,0.584016,-4.08268642425537,4.50483655929565,7.52642965316772,1.12870037555695,-0.31364670395851,0.03113223612309
529,3313005035,0.740719,0.053876,0.327694,0.583995,-4.07422208786011,4.46077775955200,7.53960561752319,1.18051493167877,-0.13868635892868,0.32458978891373
530,3313021702,0.740670,0.053867,0.327717,0.584044,-4.07910680770874,4.48837900161743,7.53361749649048,1.54686629772186,-0.10610701888800,0.37753120064735
531,3313038369,0.740630,0.053864,0.327731,0.584088,-4.06851673126221,4.49966812133789,7.52707433700562,1.49548697471619,-0.14519199728966,0.41498973965645
532,3313055036,0.740598,0.053855,0.327734,0.584127,-4.07616615295410,4.46603393554688,7.52247714996338,1.38389265537262,-0.15107011795044,0.43307235836983
533,3313071703,0.740559,0.053824,0.327756,0.584167,-4.07357215881348,4.49640750885010,7.51971817016602,1.46905469894409,-0.07876545190811,0.20144388079643
534,3313088370,0.740529,0.053783,0.327764,0.584204,-4.07255554199219,4.47278261184692,7.52896499633789,1.30975651741028,-0.07265682518482,0.22353482246399
535,3313105037,0.740534,0.053760,0.327767,0.584198,-4.07548713684082,4.48750543594360,7.53920125961304,1.33101522922516,-0.11987385153770,0.15293344855309
536,3313121704,0.740506,0.053744,0.327769,0.584235,-4.06805896759033,4.48113727569580,7.55105781555176,1.36957514286041,-0.14701050519943,0.36621040105820
537,3313138371,0.740531,0.053770,0.327783,0.584193,-4.09599733352661,4.47462606430054,7.52870225906372,1.49418079853058,-0.09397939592600,0.37288248538971
538,3313155038,0.740472,0.053756,0.327798,0.584260,-4.07815408706665,4.50029897689819,7.51990079879761,1.51978075504303,-0.18163885176182,0.36143359541893
539,3313171705,0.740461,0.053770,0.327809,0.584267,-4.07431840896606,4.46316051483154,7.53870391845703,1.48431992530823,-0.13196302950382,0.45185929536819
540,3313188372,0.740459,0.053770,0.327828,0.584259,-4.07619380950928,4.49083566665649,7.52634382247925,1.49648594856262,-0.08235123008490,0.26675626635551
541,3313205039,0.740441,0.053746,0.327852,0.584269,-4.08017683029175,4.46314668655396,7.51424884796143,1.39480364322662,0.04085225239396,0.30024483799934
542,3313221706,0.740432,0.053755,0.327879,0.584265,-4.08095264434814,4.48324346542358,7.53266763687134,1.54952979087830,-0.04131968691945,0.37196043133736
543,3313238373,0.740438,0.053784,0.327914,0.584236,-4.07392787933350,4.48945474624634,7.55062770843506,1.57730674743652,0.05208341404796,0.51309919357300
544,3313255040,0.740434,0.053828,0.327997,0.584191,-4.08832025527954,4.49603891372681,7.52842569351196,1.93498814105988,0.18753618001938,0.39026072621346
545,3313271707,0.740393,0.053775,0.328020,0.584234,-4.07629871368408,4.52018356323242,7.55156278610229,1.28297853469849,0.09424192458391,0.28786116838455
546,3313288374,0.740372,0.053689,0.328006,0.584276,-4.08511161804199,4.48623895645142,7.50968551635742,0.97650980949402,-0.01874209381640,0.13181577622890
547,3313305041,0.740347,0.053649,0.328018,0.584305,-4.07304525375366,4.46571683883667,7.53217554092407,1.31238186359406,-0.02518368698657,0.22975870966911
548,3313321708,0.740315,0.053863,0.328099,0.584281,-4.06438732147217,4.45219659805298,7.52972269058228,3.00460052490234,-0.70298546552658,0.53758496046066
549,3313338375,0.740284,0.054978,0.328408,0.584042,-4.01375102996826,4.46972227096558,7.55399370193481,8.99086761474609,-3.24233174324036,1.38955330848694
550,3313355042,0.740323,0.056219,0.328394,0.583882,-4.15202045440674,4.51299047470093,7.51464128494263,8.13075447082520,-5.52275896072388,1.91160452365875
551,3313371709,0.740488,0.057071,0.327956,0.583837,-4.05418634414673,4.58992528915405,7.57700490951538,4.10685682296753,-6.31641912460327,1.34576833248138
552,3313388376,0.740671,0.057398,0.327332,0.583922,-4.04075479507446,4.51268339157104,7.51696681976318,0.49646377563477,-5.27790021896362,0.60558670759201
553,3313405043,0.740724,0.057428,0.326782,0.584160,-4.03528451919556,4.53112506866455,7.51988124847412,-0.60024011135101,-3.82001304626465,0.44299733638763
554,3313421710,0.740842,0.057492,0.326438,0.584197,-4.01092815399170,4.53670454025269,7.53021287918091,0.11089018732309,-2.31123256683350,0.51069164276123
555,3313438377,0.740905,0.057437,0.326146,0.584285,-4.00556612014771,4.53052473068237,7.49637794494629,-0.18610829114914,-1.65393376350403,0.32855975627899
556,3313455044,0.740937,0.057285,0.325930,0.584380,-3.99577116966248,4.51271009445190,7.57488870620728,-0.34764754772186,-0.84313803911209,0.17799545824528
557,3313471711,0.740995,0.057363,0.325689,0.584434,-4.03018665313721,4.47524166107178,7.52597713470459,0.81240928173065,-1.96735644340515,0.39101630449295
558,3313488378,0.741124,0.057407,0.325223,0.584525,-4.02180051803589,4.56732320785522,7.56148958206177,-0.37793460488319,-3.12143898010254,0.30605897307396
559,3313505045,0.741255,0.057205,0.324643,0.584702,-3.98449349403381,4.50156784057617,7.50745725631714,-2.29298329353333,-2.68421697616577,0.23575209081173
560,3313521712,0.741297,0.057027,0.324308,0.584852,-4.00397300720215,4.49680566787720,7.53852748870850,-1.09325873851776,-1.32957434654236,0.43674772977829
561,3313538379,0.741365,0.057595,0.324428,0.584643,-3.97737932205200,4.43571090698242,7.37112283706665,5.30759239196777,-2.18003129959106,0.02644511312246
562,3313555046,0.741294,0.057580,0.324356,0.584774,-3.99448299407959,4.63646411895752,7.78497552871704,1.05809903144836,-0.60440212488174,0.71099573373795
563,3313571713,0.741432,0.057438,0.323885,0.584874,-3.97715425491333,4.34322309494019,7.56831836700439,-1.34341824054718,-2.44787621498108,-0.15844656527042
564,3313588380,0.741462,0.057650,0.323733,0.584900,-4.01507043838501,4.54408311843872,7.60483694076538,1.87442696094513,-1.94895350933075,0.72428870201111
565,3313605047,0.741553,0.057503,0.323233,0.585075,-3.94755172729492,4.53042268753052,7.53361225128174,-1.65895366668701,-2.40794587135315,0.46170729398727
566,3313621714,0.741618,0.057380,0.322905,0.585186,-3.97860932350159,4.48748636245728,7.52203273773193,-0.73567998409271,-1.55491495132446,0.31292316317558
567,3313638381,0.741674,0.057710,0.322928,0.585070,-3.96414208412170,4.51125049591064,7.66061353683472,3.46278595924377,-1.61267173290253,0.13403125107288
568,3313655048,0.741789,0.057572,0.322545,0.585149,-3.97480869293213,4.41802406311035,7.61013364791870,-0.98060154914856,-1.89729273319244,-0.06994188576937
569,3313671715,0.741934,0.057777,0.321972,0.585260,-4.00103712081909,4.43467044830322,7.68765830993652,0.14352077245712,-4.54728507995605,0.39443561434746
570,3313688382,0.742203,0.058889,0.321603,0.585012,-3.91537117958069,4.49724245071411,7.48112583160400,6.16735982894897,-7.38242101669312,0.31319212913513
571,3313705049,0.742363,0.058978,0.320968,0.585148,-3.95025229454041,4.66036510467529,7.58881235122681,-0.92394614219666,-4.23655223846436,0.55240190029144
572,3313721716,0.742487,0.058795,0.320554,0.585237,-3.88709735870361,4.37802171707153,7.57868957519531,-1.37510108947754,-1.86979758739471,-0.09985751658678
573,3313738383,0.742479,0.058660,0.320512,0.585283,-3.94674897193909,4.44316911697388,7.61599493026733,0.54581940174103,0.07070384919643,0.11021143943071
574,3313755050,0.742436,0.058647,0.320705,0.585233,-3.94156694412231,4.49299907684326,7.60986948013306,2.19174289703369,0.98136341571808,0.21221403777599
575,3313771717,0.742372,0.058607,0.320911,0.585205,-3.93708682060242,4.52875185012817,7.58637189865112,2.15077567100525,1.12921285629272,0.19160862267017
576,3313788384,0.742305,0.058548,0.321035,0.585228,-3.91634416580200,4.48709154129028,7.59557008743286,1.74676036834717,0.64715605974197,0.18784353137016
577,3313805051,0.742271,0.058562,0.321220,0.585168,-3.93677711486816,4.50308609008789,7.57615089416504,2.15139007568359,1.00214815139771,0.51664662361145
578,3313821718,0.742197,0.058455,0.321278,0.585241,-3.92342352867126,4.48924303054810,7.60649681091309,1.08674681186676,0.59951651096344,0.48044303059578
579,3313838385,0.742162,0.058375,0.321295,0.585284,-3.94091510772705,4.48191165924072,7.59056806564331,1.04588174819946,0.24881458282471,0.35769414901733
580,3313855052,0.742143,0.058259,0.321251,0.585344,-3.96094274520874,4.48450326919556,7.61198949813843,0.54648536443710,0.08619953691959,0.38028451800346
581,3313871719,0.742162,0.058203,0.321205,0.585350,-3.95475602149963,4.45714378356934,7.63666820526123,0.86702829599380,-0.17628580331802,0.25565314292908
582,3313888386,0.742160,0.058190,0.321141,0.585390,-3.95275425910950,4.47925138473511,7.61224937438965,1.04425537586212,-0.49600908160210,0.41030260920525
583,3313905053,0.742148,0.058085,0.321066,0.585456,-3.94992089271545,4.51629543304443,7.61431741714478,0.49123880267143,-0.16447834670544,0.37315142154694
584,3313921720,0.742126,0.057976,0.321001,0.585531,-3.93009757995605,4.46040248870850,7.58160114288330,0.53764897584915,-0.12677645683289,0.34958770871162
585,3313938387,0.742184,0.057828,0.320748,0.585611,-3.92073369026184,4.46428585052490,7.64183807373047,-0.42115601897240,-1.13087105751038,-0.02432565949857
586,3313955054,0.742308,0.057769,0.320459,0.585618,-3.93372774124146,4.46863269805908,7.58475208282471,-0.27903115749359,-1.51385784149170,0.13595220446587
587,3313971721,0.742371,0.057677,0.320300,0.585634,-3.93477582931519,4.46259546279907,7.58639144897461,0.25245156884193,-0.78162914514542,-0.04742831364274
588,3313988388,0.742409,0.057635,0.320292,0.585594,-3.96111917495728,4.43177318572998,7.63591527938843,1.19362866878510,-0.11183144152164,-0.05816003680229
589,3314005055,0.742424,0.057633,0.320306,0.585568,-3.95589518547058,4.43680572509766,7.63893413543701,1.50013577938080,-0.14421871304512,0.09973584860563
590,3314021722,0.742505,0.057631,0.320198,0.585524,-3.93479776382446,4.49115705490112,7.60113716125488,0.80742752552032,-0.67237812280655,0.22540454566479
591,3314038389,0.742496,0.057569,0.320131,0.585578,-3.92853307723999,4.50687885284424,7.61731433868408,0.84397679567337,-0.39357113838196,0.23973487317562
592,3314055056,0.742483,0.057459,0.320044,0.585653,-3.93296623229980,4.45407342910767,7.59328222274780,0.51476401090622,-0.33923381567001,0.17898154258728
593,3314071723,0.742457,0.057387,0.319976,0.585730,-3.93911695480347,4.45364093780518,7.65301275253296,0.80764526128769,-0.38463228940964,0.27820512652397
594,3314088390,0.742447,0.057330,0.319878,0.585802,-3.94244122505188,4.43089294433594,7.63972759246826,0.66507214307785,-0.51684504747391,0.43586409091949
595,3314105057,0.742415,0.057260,0.319813,0.585885,-3.94757819175720,4.48260498046875,7.63000440597534,0.83656209707260,-0.37756323814392,0.31344822049141
596,3314121724,0.742392,0.057231,0.319770,0.585941,-3.93239784240723,4.44900846481323,7.61907434463501,1.09257376194000,-0.35328239202499,0.39627966284752
597,3314138391,0.742403,0.057194,0.319734,0.585949,-3.92983055114746,4.47910737991333,7.61520051956177,1.05898261070251,-0.24668228626251,0.22920802235603
598,3314155058,0.742404,0.057016,0.319629,0.586023,-3.92521643638611,4.44884490966797,7.59632539749146,0.05313354358077,-0.14191356301308,0.04457889869809
599,3314171725,0.742437,0.056876,0.319435,0.586101,-3.92680788040161,4.43942499160767,7.61563730239868,-0.15528339147568,-0.78890311717987,0.10900764912367
600,3314188392,0.742473,0.056787,0.319275,0.586151,-3.95148015022278,4.40233278274536,7.64595603942871,0.23704552650452,-0.76414847373962,0.17998044192791
601,3314205059,0.742464,0.056728,0.319186,0.586216,-3.94594025611877,4.42823648452759,7.66566944122314,0.76466709375381,-0.52910077571869,0.27193003892899
602,3314221726,0.742468,0.056729,0.319103,0.586256,-3.92589569091797,4.44252872467041,7.61070394515991,1.02672338485718,-0.64944195747375,0.45718666911125
603,3314238393,0.742487,0.056692,0.318962,0.586313,-3.93249797821045,4.49578905105591,7.61483049392700,0.58126741647720,-0.85868501663208,0.35774540901184
604,3314255060,0.742510,0.056585,0.318806,0.586379,-3.93448543548584,4.43619203567505,7.61213874816895,0.13262255489826,-0.63098800182343,0.28099691867828
605,3314271727,0.742540,0.056422,0.318559,0.586490,-3.91004300117493,4.43479681015015,7.63262462615967,-0.57001703977585,-0.93357652425766,0.27647629380226
606,3314288394,0.742590,0.056284,0.318244,0.586611,-3.92490410804749,4.40997934341431,7.65506935119629,-0.71812254190445,-1.45658791065216,0.27912721037865
607,3314305061,0.742658,0.056246,0.317978,0.586673,-3.93021488189697,4.40264987945557,7.66608762741089,0.02269284985960,-1.56729865074158,0.27400463819504
608,3314321728,0.742674,0.056260,0.317864,0.586714,-3.92928934097290,4.42179298400879,7.65416526794434,0.99714082479477,-0.92389494180679,0.39533200860023
609,3314338395,0.742657,0.056242,0.317819,0.586761,-3.92646503448486,4.41590976715088,7.62719964981079,1.15770685672760,-0.42734152078629,0.34433713555336
610,3314355062,0.742625,0.056269,0.317802,0.586808,-3.90124893188477,4.42321348190308,7.63105821609497,1.56523060798645,-0.49048960208893,0.39412826299667
611,3314371729,0.742609,0.056271,0.317838,0.586809,-3.91748547554016,4.44788980484009,7.60170984268188,1.58888375759125,0.00694104144350,0.33159479498863
612,3314388396,0.742558,0.056294,0.317960,0.586805,-3.90240287780762,4.39612722396851,7.62635421752930,2.10436511039734,0.38020774722099,0.37518763542175
613,3314405063,0.742559,0.056436,0.318137,0.586695,-3.92084383964539,4.41522121429443,7.64290237426758,3.02126145362854,0.17626662552357,0.11743423342705
614,3314421730,0.742604,0.056601,0.318146,0.586616,-3.92783451080322,4.46550846099854,7.70881700515747,2.42980003356934,-0.91911816596985,0.09804540872574
615,3314438397,0.742616,0.056480,0.318026,0.586678,-3.94160270690918,4.44526863098145,7.63593912124634,0.31723889708519,-0.48529016971588,0.06317371875048
616,3314455064,0.742565,0.056483,0.318068,0.586720,-3.94099855422974,4.42347192764282,7.62163686752319,1.60193347930908,0.04445083811879,0.54594749212265
617,3314471731,0.742495,0.056513,0.318136,0.586768,-3.90782618522644,4.46681165695190,7.66365909576416,1.90202462673187,0.05208342522383,0.59616118669510
618,3314488398,0.742441,0.056450,0.318081,0.586872,-3.89146399497986,4.42660999298096,7.62360525131226,0.81783908605576,-0.23680861294270,0.61670255661011
619,3314505065,0.742446,0.056405,0.317998,0.586915,-3.91140246391296,4.43476581573486,7.64715719223022,0.76745897531509,-0.44830545783043,0.40156871080399
620,3314521732,0.742449,0.056302,0.317885,0.586983,-3.90882682800293,4.39722585678101,7.66808557510376,0.41717967391014,-0.48877358436584,0.18044145405293
621,3314538399,0.742468,0.056256,0.317752,0.587036,-3.92185664176941,4.41025686264038,7.62569332122803,0.55671763420105,-0.74697518348694,0.37359961867332
622,3314555066,0.742428,0.056145,0.317643,0.587156,-3.93266582489014,4.44229698181152,7.67134904861450,0.46088778972626,-0.50748366117477,0.27734711766243
623,3314571733,0.742423,0.056093,0.317606,0.587187,-3.92393541336060,4.38736343383789,7.63783168792725,1.01425004005432,-0.23582252860069,0.20969115197659
624,3314588400,0.742391,0.056080,0.317675,0.587191,-3.91211104393005,4.42137908935547,7.64286136627197,1.68233168125153,0.22124248743057,0.28673413395882
625,3314605067,0.742340,0.056146,0.317842,0.587158,-3.92863225936890,4.44343709945679,7.65198135375977,2.50999307632446,0.49687358736992,0.41715404391289
626,3314621734,0.742309,0.056128,0.317866,0.587186,-3.91807770729065,4.45065498352051,7.63830184936523,1.41321909427643,0.02554866671562,0.43042141199112
627,3314638401,0.742258,0.056101,0.317894,0.587239,-3.93247199058533,4.44061660766602,7.65724897384644,1.36381232738495,0.10994251817465,0.54948204755783
628,3314655068,0.742216,0.056031,0.317870,0.587312,-3.89274048805237,4.41549301147461,7.63352441787720,0.95778697729111,-0.07272085547447,0.41629606485367
629,3314671735,0.742189,0.055987,0.317876,0.587346,-3.91161632537842,4.41832876205444,7.64842271804810,1.24730002880096,-0.01930557191372,0.29758113622665
630,3314688402,0.742182,0.055978,0.317932,0.587326,-3.89753913879395,4.36869382858276,7.62368488311768,1.55054152011871,0.22879824042320,0.33965000510216
631,3314705069,0.742192,0.055998,0.317976,0.587287,-3.91867971420288,4.42755174636841,7.67602920532227,1.77704763412476,-0.08762746304274,0.07898957282305
632,3314721736,0.742223,0.055941,0.317865,0.587313,-3.90168809890747,4.41463756561279,7.66134309768677,0.61662572622299,-0.59498935937881,0.20433810353279
633,3314738403,0.742220,0.055853,0.317776,0.587375,-3.93659591674805,4.47825574874878,7.64192628860474,0.60937732458115,-0.41307520866394,0.20204576849937
634,3314755070,0.742220,0.055796,0.317765,0.587385,-3.93505096435547,4.40755844116211,7.65819835662842,1.01993608474731,0.02127134427428,0.28582486510277
635,3314771737,0.742167,0.055820,0.317872,0.587393,-3.92802643775940,4.41436147689819,7.65906143188477,2.05696892738342,0.27277523279190,0.38687983155251
636,3314788404,0.742146,0.055840,0.317911,0.587396,-3.89947175979614,4.41192007064819,7.63035058975220,1.70387208461761,-0.05634153634310,0.37205010652542
637,3314805071,0.742158,0.055802,0.317880,0.587402,-3.90555214881897,4.43241357803345,7.62019348144531,1.07976746559143,-0.22680683434010,0.19705131649971
638,3314821738,0.742107,0.055733,0.317902,0.587460,-3.91512870788574,4.43516540527344,7.62550592422485,1.19788038730621,0.15406039357185,0.33795958757401
639,3314838405,0.742067,0.055717,0.317973,0.587473,-3.91616153717041,4.39450263977051,7.66058158874512,1.67776000499725,0.24844320118427,0.31544601917267
640,3314855072,0.741983,0.055787,0.318165,0.587469,-3.91395425796509,4.41959238052368,7.64617824554443,2.66610288619995,0.59591788053513,0.53732883930206
641,3314871739,0.741885,0.055833,0.318392,0.587465,-3.93855714797974,4.45235824584961,7.66305971145630,2.71767377853394,0.87089574337006,0.47508993744850
642,3314888406,0.741844,0.055832,0.318406,0.587510,-3.93416976928711,4.43828916549683,7.66295576095581,1.45637655258179,-0.09677117317915,0.53312832117081
643,3314905073,0.741814,0.055811,0.318379,0.587564,-3.94002842903137,4.48211050033569,7.62718391418457,1.20844566822052,-0.28565204143524,0.43024215102196
644,3314921740,0.741813,0.055722,0.318285,0.587625,-3.91668367385864,4.42656135559082,7.65707445144653,0.53378140926361,-0.39377599954605,0.27023959159851
645,3314938407,0.741798,0.055611,0.318085,0.587763,-3.91837406158447,4.40803766250610,7.61707353591919,-0.04507194831967,-0.91554516553879,0.48030209541321
646,3314955074,0.741797,0.055520,0.317950,0.587846,-3.93021249771118,4.45249986648560,7.64065647125244,0.34540006518364,-0.61848908662796,0.34093064069748
647,3314971741,0.741770,0.055467,0.317974,0.587872,-3.90747547149658,4.40732336044312,7.64447879791260,1.25701999664307,0.14060091972351,0.27638661861420
648,3314988408,0.741722,0.055479,0.318078,0.587875,-3.93499016761780,4.38748311996460,7.67044639587402,2.00738239288330,0.28296908736229,0.30048814415932
649,3315005075,0.741720,0.055508,0.318145,0.587838,-3.91160821914673,4.42534017562866,7.64484214782715,1.80993402004242,0.13851346075535,0.34154528379440
650,3315021742,0.741685,0.055379,0.318012,0.587966,-3.92380380630493,4.44915580749512,7.65509700775146,0.30684012174606,-0.62849080562592,0.16819857060909
651,3315038409,0.741701,0.055279,0.317837,0.588050,-3.92856931686401,4.42033624649048,7.63880109786987,0.09403702616692,-0.77919596433640,0.33582091331482
652,3315055076,0.741680,0.055184,0.317757,0.588129,-3.92142939567566,4.42686176300049,7.64846658706665,0.55304211378098,-0.26845309138298,0.38160356879234
653,3315071743,0.741608,0.055177,0.317783,0.588207,-3.92189788818359,4.38931798934937,7.66045761108398,1.44645154476166,0.03373192623258,0.75177121162415
654,3315088410,0.741588,0.055210,0.317759,0.588241,-3.90463995933533,4.39876794815063,7.65447282791138,1.49776673316956,-0.48741611838341,0.46849474310875
655,3315105077,0.741583,0.055220,0.317743,0.588255,-3.94240260124207,4.41835260391235,7.65691423416138,1.45512139797211,-0.38782107830048,0.25001835823059
656,3315121744,0.741620,0.055177,0.317693,0.588241,-3.91497874259949,4.40602445602417,7.65816593170166,1.00643825531006,-0.36263102293015,0.00750452140346
657,3315138411,0.741586,0.055197,0.317752,0.588249,-3.92799520492554,4.38798236846924,7.64919042587280,1.89792644977570,-0.06425585597754,0.19773000478745
658,3315155078,0.741594,0.055210,0.317688,0.588273,-3.88795232772827,4.40600061416626,7.65952348709106,1.23615860939026,-0.66017383337021,0.30106452107430
659,3315171745,0.741538,0.055200,0.317644,0.588368,-3.92501068115234,4.42972373962402,7.64837455749512,1.30950045585632,-0.56864666938782,0.38685420155525
660,3315188412,0.741530,0.055161,0.317622,0.588393,-3.90597629547119,4.42246818542480,7.64707136154175,1.13745999336243,-0.18939952552319,0.25665205717087
661,3315205079,0.741520,0.055106,0.317582,0.588433,-3.91953778266907,4.39022302627563,7.65904521942139,1.06860017776489,-0.34105229377747,0.07816995680332
662,3315221746,0.741529,0.055030,0.317477,0.588485,-3.92294836044312,4.42091464996338,7.65626573562622,0.61907184123993,-0.57065737247467,0.13456913828850
663,3315238413,0.741512,0.054951,0.317426,0.588541,-3.91235804557800,4.41942024230957,7.66638326644897,0.79325097799301,-0.19317738711834,0.28847584128380
664,3315255080,0.741498,0.054864,0.317338,0.588615,-3.90359473228455,4.38299226760864,7.64428234100342,0.55582118034363,-0.34924834966660,0.37568706274033
665,3315271747,0.741458,0.054853,0.317378,0.588645,-3.91832661628723,4.43325614929199,7.65574645996094,1.50865209102631,0.10772702097893,0.48780667781830
666,3315288414,0.741426,0.054814,0.317376,0.588690,-3.91634345054626,4.38812255859375,7.64696884155273,1.20699846744537,-0.05618786439300,0.40783101320267
667,3315305081,0.741421,0.054737,0.317286,0.588752,-3.91266393661499,4.40731430053711,7.66919422149658,0.64951246976852,-0.44360557198524,0.24863527715206
668,3315321748,0.741443,0.054695,0.317232,0.588756,-3.92515850067139,4.40704488754272,7.67430448532104,0.85297971963882,-0.22173553705215,0.36313682794571
669,3315338415,0.741372,0.054699,0.317256,0.588833,-3.91481471061707,4.35350227355957,7.67012310028076,1.57139050960541,-0.10412203520536,0.62697327136993
670,3315355082,0.741350,0.054728,0.317253,0.588859,-3.89705872535706,4.41852521896362,7.63328886032104,1.53685164451599,-0.30769175291061,0.50658077001572
671,3315371749,0.741342,0.054642,0.317176,0.588919,-3.90871953964233,4.40923118591309,7.67960500717163,0.68949383497238,-0.37447687983513,0.16796809434891
672,3315388416,0.741387,0.054565,0.317118,0.588901,-3.89983963966370,4.40733575820923,7.64680385589600,0.76369380950928,-0.23273618519306,-0.03194543719292
673,3315405083,0.741381,0.054538,0.317136,0.588901,-3.92752027511597,4.38847970962524,7.66618108749390,1.40074574947357,-0.03080567717552,0.15831211209297
674,3315421750,0.741330,0.054617,0.317262,0.588891,-3.94378042221069,4.38939142227173,7.65076446533203,2.39058685302734,0.20935823023319,0.52751922607422
675,3315438417,0.741289,0.054601,0.317264,0.588942,-3.90427541732788,4.42479658126831,7.68078136444092,1.40796864032745,-0.19388173520565,0.35678490996361
676,3315455084,0.741291,0.054544,0.317183,0.588989,-3.90261745452881,4.43410301208496,7.65795803070068,0.74694317579269,-0.42927524447441,0.32067099213600
677,3315471751,0.741291,0.054453,0.317126,0.589028,-3.91055059432983,4.39104270935059,7.61815118789673,0.70030248165131,-0.17651632428169,0.18432179093361
678,3315488418,0.741287,0.054393,0.317084,0.589061,-3.90480279922485,4.36940193176270,7.64844512939453,0.95800459384918,-0.23857587575912,0.19911311566830
679,3315505085,0.741312,0.054362,0.317035,0.589058,-3.90832304954529,4.40265035629272,7.68411731719971,1.06021201610565,-0.38081598281860,0.11186345666647
680,3315521752,0.741290,0.054362,0.317050,0.589079,-3.92706727981567,4.43346452713013,7.65772199630737,1.56402659416199,-0.21088854968548,0.22878541052341
681,3315538419,0.741274,0.054383,0.317124,0.589056,-3.92477989196777,4.40557050704956,7.67336130142212,1.87930607795715,0.12438806146383,0.26021221280098
682,3315555086,0.741220,0.054442,0.317270,0.589041,-3.92958259582520,4.38550949096680,7.64438056945801,2.43325757980347,0.34190392494202,0.35786065459251
683,3315571753,0.741181,0.054483,0.317315,0.589062,-3.89849734306335,4.41020917892456,7.67741346359253,1.90398395061493,-0.18493008613586,0.37751838564873
684,3315588420,0.741176,0.054466,0.317274,0.589091,-3.89305591583252,4.41623067855835,7.63734579086304,1.16851532459259,-0.39341747760773,0.30888918042183
685,3315605087,0.741188,0.054388,0.317225,0.589110,-3.91406583786011,4.43009471893311,7.64090681076050,0.77772957086563,-0.14964859187603,0.17976272106171
686,3315621754,0.741174,0.054338,0.317234,0.589128,-3.91274905204773,4.38712644577026,7.67231464385986,1.21701300144196,0.03467959538102,0.22646749019623
687,3315638421,0.741147,0.054365,0.317336,0.589103,-3.93289065361023,4.38744306564331,7.66160440444946,1.98287117481232,0.31869882345200,0.38020771741867
688,3315655088,0.741100,0.054455,0.317465,0.589085,-3.91344594955444,4.39877891540527,7.67566061019897,2.48388123512268,0.15539222955704,0.48206943273544
689,3315671755,0.741072,0.054481,0.317509,0.589094,-3.94291448593140,4.43754768371582,7.67772912979126,1.69443368911743,0.01458643097430,0.52865886688232
690,3315688422,0.741040,0.054440,0.317453,0.589169,-3.90010285377502,4.41256284713745,7.65546655654907,1.00501668453217,-0.41561084985733,0.38999176025391
691,3315705089,0.741047,0.054402,0.317351,0.589218,-3.90723848342896,4.43570137023926,7.62739753723145,0.72293126583099,-0.58934181928635,0.42062452435493
692,3315721756,0.741046,0.054276,0.317239,0.589292,-3.89912104606628,4.40258646011353,7.67341089248657,0.29015344381332,-0.37306818366051,0.17549820244312
693,3315738423,0.741056,0.054230,0.317219,0.589294,-3.92994856834412,4.36372900009155,7.65050315856934,1.01882183551788,-0.04814546927810,0.31031069159508
694,3315755090,0.741006,0.054254,0.317306,0.589307,-3.92653155326843,4.38376283645630,7.66421270370483,1.95123922824860,0.17725268006325,0.44014140963554
695,3315771757,0.740924,0.054308,0.317428,0.589340,-3.92660355567932,4.40180349349976,7.69430255889893,2.33457207679749,0.19246664643288,0.49102106690407
696,3315788424,0.740874,0.054267,0.317416,0.589413,-3.91355657577515,4.42127418518066,7.65428876876831,1.26095151901245,-0.23259532451630,0.30667364597321
697,3315805091,0.740844,0.054207,0.317400,0.589465,-3.91595220565796,4.42927694320679,7.66563415527344,1.12163126468658,-0.14064574241638,0.20675851404667
698,3315821758,0.740812,0.054142,0.317390,0.589516,-3.90470981597900,4.36761951446533,7.65806341171265,1.07504189014435,-0.04755638167262,0.27236548066139
699,3315838425,0.740791,0.054133,0.317427,0.589524,-3.91167211532593,4.40437555313110,7.65063762664795,1.61885070800781,-0.04142213985324,0.17187403142452
700,3315855092,0.740855,0.054147,0.317409,0.589452,-3.91255760192871,4.40200710296631,7.66803026199341,1.37792491912842,-0.32171472907066,0.03359105810523
701,3315871759,0.740873,0.054237,0.317473,0.589387,-3.90541887283325,4.39401388168335,7.63996791839600,2.09199404716492,-0.09648944437504,0.41116067767143
702,3315888426,0.740842,0.054188,0.317473,0.589429,-3.92529559135437,4.43347263336182,7.66725397109985,1.25917160511017,-0.11090940237045,0.18647328019142
703,3315905093,0.740862,0.054157,0.317424,0.589434,-3.92408728599548,4.39970731735229,7.66340827941895,0.99291461706161,-0.31066283583641,0.27564385533333
704,3315921760,0.740828,0.054126,0.317399,0.589494,-3.92101836204529,4.42419815063477,7.66173887252808,1.20696008205414,-0.28708633780479,0.34679594635963
705,3315938427,0.740775,0.054152,0.317450,0.589529,-3.91260981559753,4.37391614913940,7.63158035278320,1.80858945846558,-0.03541595861316,0.50163745880127
706,3315955094,0.740705,0.054207,0.317558,0.589555,-3.91393208503723,4.40067863464355,7.65148210525513,2.26736426353455,0.10797034204006,0.46136155724525
707,3315971761,0.740656,0.054274,0.317704,0.589531,-3.91655015945435,4.40280675888062,7.64868354797363,2.47317504882812,0.31494653224945,0.35806554555893
708,3315988428,0.740616,0.054333,0.317802,0.589523,-3.93005418777466,4.40443229675293,7.68661737442017,2.27370333671570,0.00490483222529,0.25382187962532
709,3316005095,0.740595,0.054361,0.317830,0.589532,-3.94678115844727,4.45787429809570,7.65077590942383,1.78608894348145,-0.25992408394814,0.22008994221687
710,3316021762,0.740603,0.054265,0.317745,0.589576,-3.92483735084534,4.42794895172119,7.65178537368774,0.50852733850479,-0.27339634299278,0.24412742257118
711,3316038429,0.740558,0.054249,0.317770,0.589622,-3.92354702949524,4.38836240768433,7.65218114852905,1.46622467041016,-0.00893242936581,0.45174401998520
712,3316055096,0.740526,0.054298,0.317845,0.589616,-3.87937068939209,4.39299392700195,7.64791107177734,2.01698708534241,0.03178535774350,0.42524763941765
713,3316071763,0.740490,0.054366,0.317997,0.589573,-3.92800474166870,4.42089796066284,7.66029024124146,2.52456688880920,0.32238706946373,0.23048868775368
714,3316088430,0.740462,0.054378,0.318068,0.589569,-3.93273901939392,4.40243959426880,7.67636489868164,1.84638094902039,0.10519134998322,0.25601172447205
715,3316105097,0.740430,0.054440,0.318145,0.589562,-3.93783426284790,4.42571163177490,7.64945840835571,2.08295297622681,-0.00438617449254,0.45737883448601
716,3316121764,0.740354,0.054395,0.318174,0.589646,-3.92663288116455,4.47697687149048,7.63094949722290,1.43196749687195,0.00732523202896,0.35627263784409
717,3316138431,0.740340,0.054324,0.318133,0.589693,-3.90626978874207,4.40372371673584,7.63665008544922,0.88201171159744,-0.16652736067772,0.27286490797997
718,3316155098,0.740259,0.054287,0.318132,0.589797,-3.92154145240784,4.40159320831299,7.64746618270874,1.39447057247162,-0.24704086780548,0.35577318072319
719,3316171765,0.740203,0.054326,0.318211,0.589822,-3.92413759231567,4.37521791458130,7.65675067901611,2.02404379844666,0.03615232929587,0.45036089420319
720,3316188432,0.740173,0.054408,0.318271,0.589820,-3.92132306098938,4.42278432846069,7.65519666671753,2.17294311523438,-0.24540168046951,0.40915009379387
721,3316205099,0.740167,0.054367,0.318194,0.589873,-3.94025707244873,4.44409513473511,7.65667819976807,0.90370565652847,-0.52984356880188,0.27917841076851
722,3316221766,0.740221,0.054332,0.318107,0.589855,-3.92377901077271,4.41791391372681,7.62979173660278,0.77196663618088,-0.47194597125053,0.18004445731640
723,3316238433,0.740239,0.054262,0.318046,0.589872,-3.90211224555969,4.38314485549927,7.65965127944946,0.80307334661484,-0.29395052790642,0.11316971480846
724,3316255100,0.740229,0.054268,0.318049,0.589882,-3.92374444007874,4.41292715072632,7.66105651855469,1.49843263626099,-0.24027912318707,0.28380152583122
725,3316271767,0.740178,0.054206,0.318030,0.589962,-3.93039774894714,4.42681741714478,7.64167308807373,1.16993677616119,-0.24001020193100,0.17234785854816
726,3316288434,0.740164,0.054194,0.318040,0.589976,-3.94277858734131,4.41645336151123,7.63636398315430,1.41793179512024,-0.11199792474508,0.30521371960640
727,3316305101,0.740134,0.054160,0.318039,0.590017,-3.93086862564087,4.42901515960693,7.64512395858765,1.21427249908447,-0.04715938493609,0.43412241339684
728,3316321768,0.740149,0.054225,0.318082,0.589969,-3.91425108909607,4.39593172073364,7.64231252670288,1.87577140331268,-0.13075920939445,0.38869825005531
729,3316338435,0.740135,0.054245,0.318115,0.589966,-3.91127991676331,4.40460395812988,7.64987707138062,1.73278892040253,-0.15304230153561,0.23567527532578
730,3316355102,0.740138,0.054276,0.318159,0.589936,-3.91584897041321,4.39763879776001,7.66873168945312,1.79696154594421,-0.08998382091522,0.21719570457935
731,3316371769,0.740156,0.054253,0.318141,0.589925,-3.91773962974548,4.40738487243652,7.66060876846313,1.21262037754059,-0.21246373653412,0.16014339029789
732,3316388436,0.740140,0.054242,0.318168,0.589931,-3.92431139945984,4.43575239181519,7.65451812744141,1.56301510334015,-0.08720484375954,0.16196191310883
733,3316405103,0.740072,0.054202,0.318209,0.589999,-3.92242884635925,4.40381908416748,7.63437747955322,1.52741324901581,0.04223533719778,0.27143058180809
734,3316421770,0.740038,0.054194,0.318289,0.590000,-3.93015241622925,4.42859125137329,7.64672040939331,1.77878928184509,0.24878898262978,0.25916209816933
735,3316438437,0.739987,0.054169,0.318358,0.590028,-3.91103005409241,4.40076541900635,7.65297842025757,1.62668836116791,0.26459199190140,0.35827046632767
736,3316455104,0.740005,0.054197,0.318376,0.589993,-3.92825126647949,4.42410993576050,7.64117908477783,1.53616011142731,-0.08113463222980,0.41857555508614
737,3316471771,0.740016,0.054110,0.318290,0.590034,-3.93175387382507,4.43232250213623,7.65456056594849,0.62880456447601,-0.40461015701294,0.09913394600153
738,3316488438,0.739979,0.054042,0.318279,0.590092,-3.93487644195557,4.42549037933350,7.64969968795776,1.03184604644775,-0.00936784595251,0.34733381867409
739,3316505105,0.739966,0.054039,0.318322,0.590086,-3.92823624610901,4.38288450241089,7.63645696640015,1.61614847183228,0.04252988472581,0.25346323847771
740,3316521772,0.739902,0.054064,0.318418,0.590112,-3.92335200309753,4.41279125213623,7.66154956817627,2.03734922409058,0.17927609384060,0.42286565899849
741,3316538439,0.739853,0.054062,0.318510,0.590124,-3.92951679229736,4.40779209136963,7.68113517761230,1.88618326187134,0.26660257577896,0.29107549786568
742,3316555106,0.739828,0.054135,0.318621,0.590088,-3.93722009658813,4.41452550888062,7.62354326248169,2.25544166564941,0.19112198054790,0.45408758521080
743,3316571773,0.739767,0.054163,0.318736,0.590100,-3.92951512336731,4.44103431701660,7.64460277557373,2.14862394332886,0.26885652542114,0.36833623051643
744,3316588440,0.739735,0.054194,0.318816,0.590094,-3.92463183403015,4.40811300277710,7.63853073120117,1.96818220615387,0.10613901913166,0.33989331126213
745,3316605107,0.739708,0.054247,0.318938,0.590058,-3.93925595283508,4.42925691604614,7.64762163162231,2.24812936782837,0.27812832593918,0.32681804895401
746,3316621774,0.739666,0.054203,0.318960,0.590102,-3.93041586875916,4.41430473327637,7.64301109313965,1.34782981872559,0.03651090338826,0.28988453745842
747,3316638441,0.739641,0.054210,0.319001,0.590111,-3.93598866462708,4.44641399383545,7.61494541168213,1.68630182743073,-0.04840160161257,0.27752640843391
748,3316655108,0.739596,0.054175,0.319053,0.590142,-3.91315126419067,4.41076040267944,7.64171218872070,1.51543939113617,0.18825332820415,0.30107727646828
749,3316671775,0.739555,0.054197,0.319128,0.590150,-3.93619728088379,4.41910171508789,7.64974117279053,1.93644809722900,0.07713264971972,0.31887811422348
750,3316688442,0.739559,0.054128,0.319017,0.590213,-3.92304086685181,4.42122459411621,7.63656663894653,0.59768515825272,-0.60869216918945,0.23782670497894
751,3316705109,0.739629,0.054109,0.318906,0.590187,-3.92776226997375,4.42964601516724,7.64184093475342,0.70376014709473,-0.62631374597549,0.24825105071068
752,3316721776,0.739652,0.054029,0.318785,0.590230,-3.92740154266357,4.42106103897095,7.62694501876831,0.47708776593208,-0.58526939153671,0.17054216563702
753,3316738443,0.739665,0.053951,0.318684,0.590276,-3.93331670761108,4.40156745910645,7.64924287796021,0.58066546916962,-0.49353742599487,0.17901994287968
754,3316755110,0.739649,0.053848,0.318595,0.590354,-3.93435764312744,4.40772962570190,7.66192722320557,0.54373198747635,-0.36689549684525,0.21066445112228
755,3316771777,0.739684,0.053802,0.318486,0.590373,-3.94396686553955,4.40569257736206,7.65041351318359,0.63739764690399,-0.57475537061691,0.28446742892265
756,3316788444,0.739710,0.053750,0.318381,0.590401,-3.92715954780579,4.44319343566895,7.62972784042358,0.70227456092834,-0.62523794174194,0.15637832880020
757,3316805111,0.739686,0.053692,0.318360,0.590448,-3.93855834007263,4.42304039001465,7.63518810272217,1.14255690574646,-0.21807292103767,0.10941746085882
758,3316821778,0.739655,0.053702,0.318453,0.590435,-3.93797683715820,4.40400409698486,7.65745019912720,1.96925795078278,0.20333921909332,0.17579273879528
759,3316838445,0.739662,0.053713,0.318418,0.590445,-3.92938947677612,4.38435411453247,7.67493009567261,1.35673022270203,-0.48563596606255,0.25498721003532
760,3316855112,0.739706,0.053747,0.318370,0.590413,-3.94347000122070,4.44806575775146,7.65263509750366,1.31480228900909,-0.53951233625412,0.29404658079147
761,3316871779,0.739703,0.053592,0.318198,0.590523,-3.93060588836670,4.44125270843506,7.64366388320923,-0.09568265080452,-0.63366460800171,0.15832491219044
762,3316888446,0.739705,0.053533,0.318112,0.590572,-3.93888020515442,4.38482666015625,7.64018392562866,0.72432714700699,-0.45153272151947,0.31330737471581
763,3316905113,0.739631,0.053547,0.318149,0.590643,-3.93108439445496,4.38391780853271,7.65942478179932,1.67683780193329,-0.06414060294628,0.64117550849915
764,3316921780,0.739561,0.053659,0.318277,0.590652,-3.92144966125488,4.38304042816162,7.64848947525024,2.60095643997192,0.05522097647190,0.63580954074860
765,3316938447,0.739540,0.053697,0.318348,0.590637,-3.93829584121704,4.43703222274780,7.66833972930908,1.98525297641754,-0.00213225744665,0.26295277476311
766,3316955114,0.739557,0.053631,0.318272,0.590663,-3.94143009185791,4.39487600326538,7.65194892883301,0.77812665700912,-0.42059251666069,0.09922359138727
767,3316971781,0.739550,0.053613,0.318236,0.590692,-3.94661831855774,4.44531059265137,7.63914394378662,1.23860454559326,-0.41155129671097,0.19944608211517
768,3316988448,0.739551,0.053591,0.318180,0.590724,-3.91296792030334,4.42177677154541,7.64323949813843,1.07755184173584,-0.46125265955925,0.28077921271324
769,3317005115,0.739533,0.053706,0.318222,0.590713,-3.92672562599182,4.38525533676147,7.66725206375122,2.18267607688904,-0.38811564445496,0.58133143186569
770,3317021782,0.739484,0.053765,0.318252,0.590752,-3.89822721481323,4.40839004516602,7.66753196716309,1.91110420227051,-0.32389178872108,0.52858203649521
771,3317038449,0.739502,0.053763,0.318182,0.590767,-3.93418216705322,4.42087650299072,7.64884233474731,1.11027216911316,-0.61152237653732,0.25575560331345
772,3317055116,0.739510,0.053687,0.318078,0.590821,-3.91960191726685,4.45509243011475,7.65286540985107,0.60312777757645,-0.53937137126923,0.17716303467751
