sep=,
DeviceTag:,A
FirmwareVersion:,3.0.0
AppVersion:,2023.6.0
StartTime: ,2024-03-14_11:56:34_000 EDT
© Movella Technologies B. V. 2005-2024

PacketCounter,SampleTimeFine,Quat_W,Quat_X,Quat_Y,Quat_Z,Acc_X,Acc_Y,Acc_Z,Gyr_X,Gyr_Y,Gyr_Z
0,3656111897,0.805575,-0.065052,0.314426,-0.497949,0.00000000000000,0.00000000000000,0.00000000000000,0.00000000000000,0.00000000000000,0.00000000000000
1,3656128564,0.805578,-0.064952,0.314390,-0.497981,-4.36964416503906,-4.13357448577881,7.87825393676758,1.71749174594879,0.77715969085693,0.97632414102554
2,3656145231,0.805561,-0.065008,0.314422,-0.497981,-4.37152051925659,-4.13567495346069,7.92124652862549,0.50757324695587,0.62211322784424,0.82677149772644
3,3656161898,0.805544,-0.065005,0.314423,-0.498008,-4.38846492767334,-4.14213275909424,7.92553091049194,1.01100373268127,0.67315936088562,0.77111512422562
4,3656178565,0.805523,-0.065033,0.314429,-0.498035,-4.42960166931152,-4.14544391632080,7.93609952926636,0.79408967494965,0.58519256114960,0.73608976602554
5,3656195232,0.805495,-0.065077,0.314473,-0.498046,-4.37327957153320,-4.16663265228271,7.90766286849976,0.57379484176636,0.77334344387054,0.72621601819992
6,3656211899,0.805468,-0.065054,0.314480,-0.498088,-4.40484809875488,-4.18652629852295,7.89943599700928,1.13768410682678,0.81602704524994,0.68497961759567
7,3656228566,0.805425,-0.065023,0.314470,-0.498169,-4.39871406555176,-4.12771701812744,7.92682647705078,1.32543802261353,0.79812371730804,0.41650733351707
8,3656245233,0.805365,-0.065178,0.314546,-0.498196,-4.37748813629150,-4.15944719314575,7.89121866226196,-0.14263711869717,0.64380717277527,0.31424862146378
9,3656261900,0.805334,-0.065086,0.314507,-0.498284,-4.35734033584595,-4.11089468002319,7.88934803009033,1.78743958473206,0.83266240358353,0.53146976232529
10,3656278567,0.805296,-0.065215,0.314616,-0.498259,-4.38743352890015,-4.14216995239258,7.89723873138428,-0.19314536452293,0.86040097475052,0.72134965658188
11,3656295234,0.805289,-0.065207,0.314637,-0.498258,-4.39382266998291,-4.19865131378174,7.87822675704956,0.92685323953629,0.77818435430527,0.95806235074997
12,3656311901,0.805274,-0.065184,0.314655,-0.498275,-4.40616750717163,-4.16455936431885,7.92288732528687,1.06202399730682,0.85106515884399,0.85302442312241
13,3656328568,0.805261,-0.065205,0.314687,-0.498273,-4.39294624328613,-4.13591146469116,7.91495513916016,0.72779130935669,0.76048588752747,0.87844520807266
14,3656345235,0.805261,-0.065231,0.314710,-0.498255,-4.37903022766113,-4.16143655776978,7.90079450607300,0.68521016836166,0.63313955068588,1.02769041061401
15,3656361902,0.805257,-0.065246,0.314710,-0.498259,-4.37486648559570,-4.14555788040161,7.89293575286865,0.86626631021500,0.56174415349960,0.92372834682465
16,3656378569,0.805259,-0.065229,0.314708,-0.498259,-4.36357021331787,-4.13293647766113,7.88618707656860,1.05837428569794,0.66176170110703,0.99922192096710
17,3656395236,0.805249,-0.065290,0.314784,-0.498219,-4.36538171768188,-4.17687368392944,7.87929058074951,0.26982340216637,0.83496761322021,1.04190540313721
18,3656411903,0.805240,-0.065352,0.314826,-0.498199,-4.39968204498291,-4.21484804153442,7.89408588409424,0.41910701990128,0.65255397558212,0.92425352334976
19,3656428570,0.805225,-0.065277,0.314786,-0.498258,-4.40053462982178,-4.14947557449341,7.90392446517944,1.62399208545685,0.70593076944351,0.72503775358200
20,3656445237,0.805195,-0.065396,0.314872,-0.498238,-4.39870023727417,-4.16249847412109,7.90491724014282,-0.04935567453504,0.74442672729492,0.74720567464828
21,3656461904,0.805164,-0.065386,0.314885,-0.498280,-4.38610649108887,-4.16051101684570,7.92103719711304,1.03776895999908,0.80985432863235,0.65060734748840
22,3656478571,0.805141,-0.065441,0.314918,-0.498290,-4.38710260391235,-4.16089582443237,7.88026189804077,0.53511971235275,0.64503669738770,0.75529927015305
23,3656495238,0.805127,-0.065408,0.314930,-0.498309,-4.34285306930542,-4.15570545196533,7.88362026214600,1.14283227920532,0.85014307498932,0.85430520772934
24,3656511905,0.805129,-0.065376,0.314962,-0.498290,-4.38561773300171,-4.15154838562012,7.86984777450562,0.96391481161118,0.87202924489975,1.18785941600800
25,3656528572,0.805121,-0.065361,0.314965,-0.498303,-4.39524173736572,-4.13248109817505,7.92782402038574,1.05117726325989,0.70956784486771,0.89016294479370
26,3656545239,0.805107,-0.065404,0.315004,-0.498295,-4.38290834426880,-4.15535640716553,7.92112636566162,0.55087149143219,0.70586681365967,0.90162467956543
27,3656561906,0.805113,-0.065391,0.315013,-0.498281,-4.37868595123291,-4.18008852005005,7.91746711730957,0.96328717470169,0.68985885381699,1.09679341316223
28,3656578573,0.805110,-0.065401,0.315019,-0.498281,-4.41532802581787,-4.18757438659668,7.90532207489014,0.89120030403137,0.63459950685501,0.90982079505920
29,3656595240,0.805116,-0.065362,0.314971,-0.498307,-4.39410257339478,-4.14777851104736,7.89983034133911,1.39153158664703,0.47612085938454,0.91245877742767
30,3656611907,0.805124,-0.065401,0.314973,-0.498288,-4.35934400558472,-4.13651847839355,7.87044715881348,0.71169376373291,0.48222956061363,0.97702848911285
31,3656628574,0.805146,-0.065391,0.314983,-0.498247,-4.35291147232056,-4.15992927551270,7.86862468719482,0.89600276947021,0.64364081621170,1.29159092903137
32,3656645241,0.805162,-0.065362,0.314963,-0.498238,-4.39379358291626,-4.17522287368774,7.90929317474365,1.17557811737061,0.57124650478363,1.10470771789551
33,3656661908,0.805158,-0.065362,0.314948,-0.498254,-4.42018032073975,-4.14369010925293,7.92546463012695,1.05250906944275,0.56388282775879,0.82504260540009
34,3656678575,0.805147,-0.065447,0.314969,-0.498247,-4.40855216979980,-4.16722536087036,7.90521049499512,0.39614522457123,0.46877002716064,0.78630346059799
35,3656695242,0.805163,-0.065444,0.314912,-0.498258,-4.35784053802490,-4.14514112472534,7.90401411056519,1.20414900779724,0.28037583827972,0.92983710765839
36,3656711909,0.805175,-0.065454,0.314885,-0.498253,-4.38534736633301,-4.12661552429199,7.90520286560059,0.97196996212006,0.39614525437355,1.00889062881470
37,3656728576,0.805191,-0.065553,0.314907,-0.498200,-4.37254810333252,-4.15217924118042,7.87322998046875,0.24090664088726,0.35968554019928,1.07493293285370
38,3656745243,0.805215,-0.065576,0.314867,-0.498184,-4.36646842956543,-4.16991567611694,7.85105752944946,0.93504929542542,0.24812944233418,1.07102704048157
39,3656761910,0.805247,-0.065516,0.314803,-0.498180,-4.37553930282593,-4.13311100006104,7.87610673904419,1.51789176464081,0.40400832891464,1.18678355216980
40,3656778577,0.805261,-0.065608,0.314852,-0.498116,-4.40231323242188,-4.16554784774780,7.92955398559570,0.13676540553570,0.50426918268204,1.20478951931000
41,3656795244,0.805274,-0.065640,0.314837,-0.498099,-4.39760971069336,-4.22392416000366,7.92198085784912,0.79939162731171,0.39373767375946,1.01661300659180
42,3656811911,0.805274,-0.065573,0.314765,-0.498153,-4.39470195770264,-4.17680883407593,7.89019727706909,1.67996895313263,0.46111178398132,0.79314202070236
43,3656828578,0.805278,-0.065566,0.314728,-0.498173,-4.39181756973267,-4.15097141265869,7.89103746414185,1.16978955268860,0.43839329481125,0.85162860155106
44,3656845245,0.805283,-0.065535,0.314708,-0.498180,-4.35054397583008,-4.15131711959839,7.88065338134766,1.22004187107086,0.61088210344315,0.98084473609924
45,3656861912,0.805287,-0.065513,0.314691,-0.498188,-4.37368345260620,-4.14552879333496,7.88363456726074,1.15314137935638,0.60236597061157,0.96609187126160
46,3656878579,0.805292,-0.065475,0.314659,-0.498204,-4.35960006713867,-4.12406063079834,7.91428661346436,1.31421971321106,0.56627762317657,0.95845931768417
47,3656895246,0.805290,-0.065516,0.314701,-0.498176,-4.38885211944580,-4.17058706283569,7.90151119232178,0.51664018630981,0.69080650806427,1.05332875251770
48,3656911913,0.805303,-0.065432,0.314679,-0.498181,-4.38063192367554,-4.13411617279053,7.92344141006470,1.51769971847534,0.76185613870621,1.13923370838165
49,3656928580,0.805311,-0.065461,0.314718,-0.498139,-4.37597990036011,-4.18905925750732,7.89694976806641,0.57513958215714,0.70655840635300,1.16240048408508
50,3656945247,0.805306,-0.065445,0.314715,-0.498150,-4.38895177841187,-4.20204973220825,7.89524841308594,1.07354998588562,0.66685867309570,0.91838818788528
51,3656961914,0.805271,-0.065440,0.314706,-0.498213,-4.40258502960205,-4.13655614852905,7.90845489501953,1.13197255134583,0.68602973222733,0.50674086809158
52,3656978581,0.805226,-0.065541,0.314773,-0.498230,-4.38819932937622,-4.15990114212036,7.88569498062134,0.20540744066238,0.76466071605682,0.48166596889496
53,3656995248,0.805189,-0.065568,0.314793,-0.498274,-4.38043451309204,-4.17891502380371,7.90454339981079,0.82161062955856,0.73920178413391,0.54094666242599
54,3657011915,0.805168,-0.065588,0.314817,-0.498290,-4.38890218734741,-4.15326786041260,7.88774347305298,0.79251462221146,0.74353027343750,0.74716728925705
55,3657028582,0.805150,-0.065655,0.314852,-0.498289,-4.40103626251221,-4.14765930175781,7.92042875289917,0.46018981933594,0.62420070171356,0.76646649837494
56,3657045249,0.805142,-0.065720,0.314868,-0.498282,-4.38280725479126,-4.17178916931152,7.89926528930664,0.50658714771271,0.48773619532585,0.86362814903259
57,3657061916,0.805139,-0.065771,0.314888,-0.498268,-4.37752819061279,-4.16643476486206,7.89734220504761,0.56830096244812,0.54637658596039,0.92887657880783
58,3657078583,0.805129,-0.065791,0.314890,-0.498281,-4.39229488372803,-4.16521167755127,7.89909458160400,0.86954480409622,0.60122615098953,0.80187600851059
59,3657095250,0.805100,-0.065865,0.314949,-0.498280,-4.37217569351196,-4.18204879760742,7.87333059310913,0.32462173700333,0.74685984849930,0.73173552751541
60,3657111917,0.805065,-0.065942,0.315031,-0.498276,-4.37478399276733,-4.19725418090820,7.90750503540039,0.22931686043739,0.88292735815048,0.72639530897141
61,3657128584,0.805032,-0.065897,0.315054,-0.498320,-4.39559698104858,-4.17735958099365,7.91386413574219,1.20884907245636,0.99698084592819,0.70855617523193
62,3657145251,0.804977,-0.065966,0.315157,-0.498334,-4.39599752426147,-4.15117359161377,7.91332006454468,0.22409191727638,1.07599616050720,0.58526945114136
63,3657161918,0.804911,-0.066098,0.315265,-0.498356,-4.36071729660034,-4.19495201110840,7.88685894012451,-0.12320989370346,0.92362588644028,0.36720284819603
64,3657178585,0.804841,-0.066226,0.315331,-0.498410,-4.40178871154785,-4.17780399322510,7.91071271896362,0.10498005151749,0.71481835842133,0.17583756148815
65,3657195252,0.804766,-0.066340,0.315383,-0.498482,-4.36554765701294,-4.16421794891357,7.87217283248901,0.28379511833191,0.72499948740005,0.05408761650324
66,3657211919,0.804695,-0.066491,0.315495,-0.498506,-4.34739208221436,-4.19392490386963,7.87641572952271,-0.26529633998871,0.86909657716751,0.34120601415634
67,3657228586,0.804645,-0.066564,0.315556,-0.498539,-4.36819410324097,-4.19373083114624,7.88227844238281,0.42443448305130,0.85403627157211,0.42973628640175
68,3657245253,0.804583,-0.066653,0.315597,-0.498601,-4.38505744934082,-4.17496728897095,7.92509698867798,0.42644506692886,0.70575159788132,0.22368215024471
69,3657261920,0.804487,-0.066896,0.315717,-0.498646,-4.40404510498047,-4.23305654525757,7.89018535614014,-0.73668521642685,0.68282818794250,-0.10844416171312
70,3657278587,0.804394,-0.067031,0.315772,-0.498744,-4.38269233703613,-4.22581815719604,7.88345193862915,0.21403892338276,0.72225892543793,-0.19744829833508
71,3657295254,0.804319,-0.067096,0.315794,-0.498842,-4.37569952011108,-4.17413377761841,7.89340353012085,0.69786286354065,0.72848272323608,0.02152106910944
72,3657311921,0.804272,-0.067199,0.315839,-0.498876,-4.35830974578857,-4.15336418151855,7.90323591232300,0.29050564765930,0.64414018392563,0.38727039098740
73,3657328588,0.804261,-0.067279,0.315844,-0.498880,-4.35822725296021,-4.16355037689209,7.88186216354370,0.50452524423599,0.39367353916168,0.73130011558533
74,3657345255,0.804260,-0.067448,0.315840,-0.498860,-4.38146924972534,-4.18325090408325,7.90189456939697,-0.00991211552173,0.01263346429914,0.68926978111267
75,3657361922,0.804264,-0.067667,0.315852,-0.498817,-4.37472057342529,-4.22150373458862,7.86491394042969,-0.39408984780312,-0.09895467758179,0.75066345930099
76,3657378589,0.804273,-0.067808,0.315833,-0.498795,-4.37084054946899,-4.24031972885132,7.86444091796875,0.23691105842590,0.03527509421110,0.73138982057571
77,3657395256,0.804287,-0.067879,0.315805,-0.498780,-4.38083553314209,-4.21381759643555,7.86126375198364,0.62646740674973,0.17529973387718,0.93657326698303
78,3657411923,0.804305,-0.067908,0.315768,-0.498771,-4.36615657806396,-4.21625041961670,7.86965513229370,0.91925907135010,0.27197486162186,0.98085755109787
79,3657428590,0.804333,-0.067906,0.315723,-0.498755,-4.36232805252075,-4.19989109039307,7.88904762268066,1.11016321182251,0.31820577383041,1.10737144947052
80,3657445257,0.804355,-0.067954,0.315726,-0.498711,-4.35053205490112,-4.21678161621094,7.85594892501831,0.59337586164474,0.40502002835274,1.17223572731018
81,3657461924,0.804366,-0.067944,0.315697,-0.498713,-4.36219406127930,-4.21336793899536,7.88753461837769,1.12521076202393,0.47188198566437,0.99161487817764
82,3657478591,0.804347,-0.067953,0.315714,-0.498732,-4.37002515792847,-4.20284080505371,7.87755680084229,0.87491071224213,0.73159480094910,0.77275437116623
83,3657495258,0.804319,-0.068001,0.315762,-0.498740,-4.36786174774170,-4.25843763351440,7.88042449951172,0.52926725149155,0.77393257617950,0.75173920392990
84,3657511925,0.804289,-0.067934,0.315759,-0.498799,-4.37946367263794,-4.24405860900879,7.86203813552856,1.43755757808685,0.91527622938156,0.68921852111816
85,3657528592,0.804231,-0.067888,0.315770,-0.498892,-4.37485837936401,-4.20289278030396,7.87704610824585,1.33469688892365,0.99969565868378,0.37196680903435
86,3657545259,0.804169,-0.067870,0.315803,-0.498974,-4.35640907287598,-4.20114707946777,7.87434244155884,1.09767699241638,1.03486180305481,0.33376550674438
87,3657561926,0.804111,-0.067869,0.315857,-0.499034,-4.35811567306519,-4.21805000305176,7.86836433410645,0.88515573740005,1.08570313453674,0.44096747040749
88,3657578593,0.804055,-0.067820,0.315872,-0.499120,-4.36904335021973,-4.20098447799683,7.86985301971436,1.34726011753082,1.03860151767731,0.39638856053352
89,3657595260,0.804005,-0.067810,0.315924,-0.499169,-4.35389375686646,-4.20038890838623,7.88342571258545,0.90797656774521,1.06463658809662,0.57543414831161
90,3657611927,0.803958,-0.067837,0.316008,-0.499188,-4.36355638504028,-4.22674942016602,7.88145589828491,0.54101061820984,1.10601389408112,0.66557800769806
91,3657628594,0.803930,-0.067754,0.316022,-0.499236,-4.37093210220337,-4.21543073654175,7.90078592300415,1.45292508602142,1.06028258800507,0.78471541404724
92,3657645261,0.803896,-0.067698,0.316035,-0.499290,-4.38127470016479,-4.19414138793945,7.89777040481567,1.32309436798096,0.98256081342697,0.67186599969864
93,3657661928,0.803856,-0.067723,0.316097,-0.499311,-4.38480949401855,-4.21118879318237,7.88400602340698,0.64006775617599,0.97535079717636,0.66780632734299
94,3657678595,0.803825,-0.067687,0.316118,-0.499353,-4.35940742492676,-4.20796155929565,7.85966587066650,1.16082501411438,0.94708716869354,0.71171927452087
95,3657695262,0.803793,-0.067621,0.316131,-0.499405,-4.36906099319458,-4.20182085037231,7.88534259796143,1.36794233322144,1.00691843032837,0.71376830339432
96,3657711929,0.803774,-0.067628,0.316212,-0.499384,-4.37071895599365,-4.18731021881104,7.86629199981689,0.59255617856979,1.07485616207123,1.02265751361847
97,3657728596,0.803739,-0.067645,0.316251,-0.499412,-4.39212179183960,-4.22499942779541,7.87874937057495,0.77531564235687,0.86808478832245,0.66432297229767
98,3657745263,0.803721,-0.067656,0.316258,-0.499436,-4.39990615844727,-4.24988365173340,7.88435602188110,0.90850150585175,0.66200494766235,0.75419795513153
99,3657761930,0.803692,-0.067647,0.316261,-0.499482,-4.38071584701538,-4.21204280853271,7.88820600509644,1.05088269710541,0.72613924741745,0.67194283008575
100,3657778597,0.803679,-0.067694,0.316266,-0.499494,-4.38493633270264,-4.18940353393555,7.85874176025391,0.71679055690765,0.53563195466995,0.72177225351334
101,3657795264,0.803666,-0.067756,0.316263,-0.499507,-4.36952590942383,-4.21269083023071,7.86574363708496,0.64143800735474,0.41798004508018,0.70829999446869
102,3657811931,0.803665,-0.067784,0.316246,-0.499516,-4.37040233612061,-4.20669078826904,7.84133768081665,0.88459229469299,0.43411606550217,0.83531343936920
103,3657828598,0.803662,-0.067831,0.316257,-0.499507,-4.37036228179932,-4.23832845687866,7.86107492446899,0.62151139974594,0.50848257541656,0.92531645298004
104,3657845265,0.803669,-0.067811,0.316226,-0.499519,-4.36668395996094,-4.21610116958618,7.89111757278442,1.20466136932373,0.50471740961075,0.94010776281357
105,3657861932,0.803667,-0.067840,0.316239,-0.499510,-4.37932205200195,-4.20414495468140,7.87589597702026,0.72631853818893,0.59076333045959,0.94877761602402
106,3657878599,0.803682,-0.067827,0.316253,-0.499479,-4.35757398605347,-4.20304822921753,7.85937309265137,0.92625123262405,0.69142115116119,1.21593093872070
107,3657895266,0.803704,-0.067842,0.316276,-0.499428,-4.36950826644897,-4.23855876922607,7.88467359542847,0.70586675405502,0.63718640804291,1.26500475406647
108,3657911933,0.803696,-0.067812,0.316259,-0.499455,-4.38420772552490,-4.23471689224243,7.88418865203857,1.24068558216095,0.66364425420761,0.82768076658249
109,3657928600,0.803666,-0.067873,0.316281,-0.499481,-4.38701248168945,-4.23022413253784,7.87997770309448,0.58757448196411,0.61596620082855,0.58277207612991
110,3657945267,0.803613,-0.067923,0.316300,-0.499548,-4.37936639785767,-4.19770765304565,7.89958000183105,0.73270887136459,0.68937218189240,0.31684830784798
111,3657961934,0.803568,-0.067995,0.316346,-0.499580,-4.36360740661621,-4.19905900955200,7.86510896682739,0.44272190332413,0.73419439792633,0.49849352240562
112,3657978601,0.803534,-0.068082,0.316416,-0.499579,-4.36558389663696,-4.24399423599243,7.85408592224121,0.21912303566933,0.78175723552704,0.69477647542953
113,3657995268,0.803511,-0.068019,0.316401,-0.499634,-4.36619901657104,-4.22575569152832,7.86882352828979,1.44776427745819,0.81226199865341,0.73511654138565
114,3658011935,0.803479,-0.068072,0.316463,-0.499639,-4.36828708648682,-4.20755958557129,7.88806962966919,0.44988065958023,0.84858071804047,0.72697162628174
115,3658028602,0.803450,-0.068116,0.316502,-0.499655,-4.35385465621948,-4.26582431793213,7.85166454315186,0.59264588356018,0.74492615461349,0.71253889799118
116,3658045269,0.803432,-0.068030,0.316454,-0.499726,-4.37465476989746,-4.19775819778442,7.87090158462524,1.74181079864502,0.72337299585342,0.66126227378845
117,3658061936,0.803419,-0.068140,0.316509,-0.499697,-4.36992645263672,-4.20923614501953,7.87057924270630,0.08893369138241,0.55970793962479,0.86634314060211
118,3658078603,0.803414,-0.068229,0.316534,-0.499677,-4.37308883666992,-4.26001024246216,7.87626695632935,0.34786528348923,0.46144476532936,0.84705674648285
119,3658095270,0.803407,-0.068232,0.316504,-0.499706,-4.37332773208618,-4.21989631652832,7.87654542922974,1.09772837162018,0.47426399588585,0.74833273887634
120,3658111937,0.803403,-0.068330,0.316523,-0.499688,-4.37654018402100,-4.21679830551147,7.87198114395142,0.32458335161209,0.39649099111557,0.82342910766602
121,3658128604,0.803395,-0.068385,0.316526,-0.499691,-4.37668752670288,-4.23537588119507,7.84724378585815,0.62476414442062,0.45144301652908,0.82222521305084
122,3658145271,0.803393,-0.068385,0.316513,-0.499703,-4.34915637969971,-4.22142982482910,7.86757183074951,1.02537238597870,0.55134540796280,0.88630831241608
123,3658161938,0.803393,-0.068442,0.316554,-0.499669,-4.34180307388306,-4.22848272323608,7.86022710800171,0.42502352595329,0.63205093145370,1.04999887943268
124,3658178605,0.803408,-0.068425,0.316527,-0.499664,-4.36630439758301,-4.22882556915283,7.87033843994141,1.14466357231140,0.49682870507240,1.05175352096558
125,3658195272,0.803388,-0.068479,0.316564,-0.499666,-4.37114810943604,-4.21671295166016,7.91632318496704,0.51665288209915,0.67878127098083,0.78694373369217
126,3658211939,0.803364,-0.068586,0.316631,-0.499647,-4.37328004837036,-4.27651309967041,7.87310886383057,0.06661222875118,0.64548486471176,0.80886822938919
127,3658228606,0.803361,-0.068579,0.316632,-0.499653,-4.35074138641357,-4.25465059280396,7.85329103469849,1.00793015956879,0.66391324996948,0.92903017997742
128,3658245273,0.803364,-0.068546,0.316622,-0.499658,-4.37871122360229,-4.22923803329468,7.87021541595459,1.19496703147888,0.67956262826920,0.98983484506607
129,3658261940,0.803366,-0.068558,0.316660,-0.499629,-4.36319971084595,-4.24325180053711,7.87110614776611,0.70334398746490,0.76896369457245,1.10577070713043
130,3658278607,0.803366,-0.068520,0.316667,-0.499629,-4.36301469802856,-4.21944093704224,7.86723232269287,1.13454675674438,0.78641885519028,1.05658149719238
131,3658295274,0.803367,-0.068509,0.316695,-0.499612,-4.35652971267700,-4.22995328903198,7.85414552688599,0.88336277008057,0.80003196001053,1.09661424160004
132,3658311941,0.803372,-0.068470,0.316716,-0.499597,-4.36777591705322,-4.22067356109619,7.85531949996948,1.06648063659668,0.84435462951660,1.15671432018280
133,3658328608,0.803365,-0.068455,0.316762,-0.499580,-4.37975978851318,-4.22786235809326,7.85894870758057,0.84088420867920,0.93691891431808,1.07945358753204
134,3658345275,0.803355,-0.068431,0.316804,-0.499573,-4.38445615768433,-4.24522209167480,7.88986873626709,0.92709660530090,0.94607555866241,1.03228795528412
135,3658361942,0.803345,-0.068360,0.316814,-0.499594,-4.38049888610840,-4.22824859619141,7.88776779174805,1.35376560688019,0.95090341567993,0.97722047567368
136,3658378609,0.803317,-0.068369,0.316867,-0.499603,-4.38995456695557,-4.23967313766479,7.87373733520508,0.71996659040451,0.94096571207047,0.83232945203781
137,3658395276,0.803293,-0.068349,0.316884,-0.499633,-4.37175559997559,-4.22984457015991,7.86542940139771,1.06955432891846,0.84963095188141,0.75326317548752
138,3658411943,0.803281,-0.068367,0.316913,-0.499633,-4.38464689254761,-4.21906518936157,7.86668872833252,0.73834359645844,0.73720395565033,0.90060013532639
139,3658428610,0.803260,-0.068397,0.316962,-0.499631,-4.35802507400513,-4.23064231872559,7.88617086410522,0.60829520225525,0.82496577501297,0.85571384429932
140,3658445277,0.803252,-0.068380,0.316976,-0.499637,-4.36186933517456,-4.24582672119141,7.88063240051270,1.01919972896576,0.78795552253723,0.92803138494492
141,3658461944,0.803254,-0.068329,0.316976,-0.499641,-4.38535165786743,-4.24656915664673,7.86695384979248,1.24527025222778,0.78804516792297,1.06435513496399
142,3658478611,0.803247,-0.068338,0.317012,-0.499629,-4.37100076675415,-4.22196626663208,7.86937665939331,0.76432776451111,0.80432200431824,0.98126733303070
143,3658495278,0.803256,-0.068335,0.317047,-0.499591,-4.38234424591064,-4.24894428253174,7.85694694519043,0.77545654773712,0.78723829984665,1.20956611633301
144,3658511945,0.803270,-0.068279,0.317036,-0.499584,-4.39702033996582,-4.24187707901001,7.85420274734497,1.29922318458557,0.72259181737900,1.15720081329346
145,3658528612,0.803264,-0.068307,0.317093,-0.499553,-4.37470102310181,-4.24545621871948,7.86354255676270,0.51049315929413,0.81230032444000,1.11960148811340
146,3658545279,0.803265,-0.068322,0.317120,-0.499533,-4.39202737808228,-4.26611328125000,7.87828302383423,0.74861449003220,0.71246206760406,1.03131461143494
147,3658561946,0.803261,-0.068281,0.317105,-0.499554,-4.38400888442993,-4.23392868041992,7.85964393615723,1.30361592769623,0.72178506851196,0.87051796913147
148,3658578613,0.803242,-0.068339,0.317168,-0.499536,-4.38395309448242,-4.23623085021973,7.87422418594360,0.36004415154457,0.79063206911087,0.90766930580139
149,3658595280,0.803241,-0.068362,0.317189,-0.499522,-4.38421869277954,-4.25583076477051,7.87107610702515,0.75998640060425,0.68147063255310,0.94520461559296
150,3658611947,0.803241,-0.068331,0.317172,-0.499537,-4.37894821166992,-4.23096656799316,7.87023401260376,1.21115398406982,0.63386946916580,0.94356548786163
151,3658628614,0.803222,-0.068393,0.317209,-0.499535,-4.38235187530518,-4.22867393493652,7.85960721969604,0.49315327405930,0.67021381855011,0.75477415323257
152,3658645281,0.803201,-0.068430,0.317235,-0.499547,-4.38811349868774,-4.23633623123169,7.84799480438232,0.66821616888046,0.67344105243683,0.76997536420822
153,3658661948,0.803183,-0.068469,0.317263,-0.499553,-4.37890768051147,-4.23687076568604,7.85495901107788,0.62176752090454,0.66037863492966,0.83156120777130
154,3658678615,0.803171,-0.068499,0.317271,-0.499564,-4.38499927520752,-4.24990892410278,7.85832500457764,0.79287314414978,0.59908747673035,0.77851724624634
155,3658695282,0.803153,-0.068554,0.317298,-0.499567,-4.38702154159546,-4.25026655197144,7.84820747375488,0.54800289869308,0.60962706804276,0.78349882364273
156,3658711949,0.803150,-0.068584,0.317303,-0.499566,-4.38809776306152,-4.25544166564941,7.84287786483765,0.75947415828705,0.53964036703110,0.91226673126221
157,3658728616,0.803147,-0.068576,0.317303,-0.499571,-4.36273527145386,-4.22246789932251,7.86263608932495,1.00634217262268,0.65096592903137,0.94825255870819
158,3658745283,0.803141,-0.068668,0.317369,-0.499527,-4.37969207763672,-4.26985740661621,7.84164476394653,0.11257421970367,0.64933955669403,1.02276003360748
159,3658761950,0.803155,-0.068587,0.317344,-0.499531,-4.36185121536255,-4.24368858337402,7.85740423202515,1.51065599918365,0.74072551727295,1.14287054538727
160,3658778617,0.803166,-0.068677,0.317414,-0.499456,-4.37591218948364,-4.25937795639038,7.84169101715088,0.05704588070512,0.63016843795776,1.24784433841705
161,3658795284,0.803168,-0.068704,0.317420,-0.499445,-4.39569282531738,-4.27991056442261,7.86260509490967,0.76116466522217,0.54732418060303,0.97585028409958
162,3658811951,0.803147,-0.068710,0.317413,-0.499482,-4.40895223617554,-4.23956155776978,7.87836074829102,1.01246356964111,0.61824578046799,0.67387652397156
163,3658828618,0.803113,-0.068796,0.317461,-0.499496,-4.37598371505737,-4.24240779876709,7.85075330734253,0.28738087415695,0.62700521945953,0.67673230171204
164,3658845285,0.803084,-0.068840,0.317502,-0.499510,-4.35429048538208,-4.26380729675293,7.82639217376709,0.57554936408997,0.74738496541977,0.72425675392151
165,3658861952,0.803095,-0.068806,0.317496,-0.499500,-4.35387849807739,-4.24831199645996,7.84619522094727,1.15179681777954,0.67956256866455,1.11944794654846
166,3658878619,0.803092,-0.068790,0.317510,-0.499499,-4.38682317733765,-4.22990560531616,7.86766719818115,0.99422734975815,0.75660550594330,0.99079525470734
167,3658895286,0.803097,-0.068811,0.317540,-0.499470,-4.37836408615112,-4.23518276214600,7.84201240539551,0.67271113395691,0.68383985757828,1.11027848720551
168,3658911953,0.803105,-0.068835,0.317552,-0.499445,-4.38066530227661,-4.26909685134888,7.85841894149780,0.74102032184601,0.58598661422729,1.06215226650238
169,3658928620,0.803110,-0.068808,0.317536,-0.499451,-4.39158630371094,-4.24983406066895,7.86485576629639,1.17135214805603,0.61334097385406,0.99348461627960
170,3658945287,0.803109,-0.068831,0.317545,-0.499444,-4.38071298599243,-4.22061538696289,7.87361764907837,0.78744322061539,0.58776664733887,0.94464111328125
171,3658961954,0.803107,-0.068910,0.317604,-0.499398,-4.36859941482544,-4.27399778366089,7.84599351882935,0.21740698814392,0.66361862421036,1.05660700798035
172,3658978621,0.803116,-0.068847,0.317560,-0.499421,-4.37201499938965,-4.26456356048584,7.83614301681519,1.50564873218536,0.57807219028473,0.98668432235718
173,3658995288,0.803101,-0.068853,0.317569,-0.499438,-4.37321138381958,-4.20544958114624,7.88980770111084,0.91393160820007,0.68003642559052,0.82237899303436
174,3659011955,0.803089,-0.068954,0.317628,-0.499406,-4.37910270690918,-4.25921058654785,7.84364938735962,0.14328384399414,0.62799131870270,0.86704748868942
175,3659028622,0.803084,-0.068900,0.317592,-0.499443,-4.36996316909790,-4.24950504302979,7.81221103668213,1.42988657951355,0.61154806613922,0.87661391496658
176,3659045289,0.803076,-0.068879,0.317612,-0.499447,-4.36748218536377,-4.23092985153198,7.86096382141113,1.00344789028168,0.81644958257675,0.97837305068970
177,3659061956,0.803075,-0.068843,0.317649,-0.499430,-4.39225625991821,-4.24422454833984,7.85531616210938,0.96864026784897,0.91427731513977,1.18426072597504
178,3659078623,0.803077,-0.068826,0.317664,-0.499420,-4.40006446838379,-4.25833892822266,7.87248945236206,0.96573317050934,0.73730641603470,1.08862292766571
179,3659095290,0.803068,-0.068838,0.317685,-0.499420,-4.36874008178711,-4.23828029632568,7.83779048919678,0.82408225536346,0.72987872362137,0.87954646348953
180,3659111957,0.803052,-0.068843,0.317706,-0.499430,-4.39158725738525,-4.26505470275879,7.87039947509766,0.87055647373199,0.74677032232285,0.85928684473038
181,3659128624,0.803041,-0.068838,0.317709,-0.499447,-4.38770532608032,-4.22149038314819,7.83621168136597,1.00650870800018,0.69452035427094,0.82659226655960
182,3659145291,0.803031,-0.068901,0.317773,-0.499414,-4.37906885147095,-4.26215934753418,7.84831237792969,0.30788385868073,0.74951088428497,1.01465344429016
183,3659161958,0.803032,-0.068845,0.317763,-0.499427,-4.38123369216919,-4.26878595352173,7.83287763595581,1.33203327655792,0.76617181301117,1.00057923793793
184,3659178625,0.803040,-0.068804,0.317757,-0.499424,-4.36849975585938,-4.23090744018555,7.87066793441772,1.20024311542511,0.71113026142120,1.08744490146637
185,3659195292,0.803055,-0.068832,0.317792,-0.499373,-4.36833429336548,-4.25143766403198,7.85931539535522,0.57940411567688,0.65797108411789,1.24445068836212
186,3659211959,0.803080,-0.068766,0.317782,-0.499348,-4.37705278396606,-4.26790428161621,7.82641983032227,1.31597411632538,0.72471773624420,1.31926524639130
187,3659228626,0.803108,-0.068712,0.317750,-0.499331,-4.38422012329102,-4.25144147872925,7.85588264465332,1.34094631671906,0.55969506502151,1.25241601467133
188,3659245293,0.803144,-0.068657,0.317740,-0.499287,-4.38131475448608,-4.22371673583984,7.85150527954102,1.19675958156586,0.63219177722931,1.47606611251831
189,3659261960,0.803198,-0.068611,0.317731,-0.499212,-4.39591312408447,-4.26948738098145,7.85400772094727,1.10898506641388,0.58090239763260,1.63587665557861
190,3659278627,0.803267,-0.068518,0.317672,-0.499152,-4.39247512817383,-4.25918054580688,7.82689189910889,1.57147359848022,0.43475639820099,1.70097160339355
191,3659295294,0.803340,-0.068448,0.317608,-0.499085,-4.38486528396606,-4.22226095199585,7.87154340744019,1.47171235084534,0.33710798621178,1.67282319068909
192,3659311961,0.803388,-0.068445,0.317590,-0.499019,-4.36599302291870,-4.22949218750000,7.84896278381348,0.91764533519745,0.39199596643448,1.48235440254211
193,3659328628,0.803442,-0.068396,0.317532,-0.498977,-4.37251091003418,-4.24928951263428,7.83619308471680,1.35895192623138,0.32669636607170,1.45838046073914
194,3659345295,0.803490,-0.068383,0.317534,-0.498899,-4.37658166885376,-4.24355745315552,7.86755609512329,0.86604857444763,0.53015083074570,1.59688127040863
195,3659361962,0.803540,-0.068335,0.317504,-0.498844,-4.38785266876221,-4.26084423065186,7.83809518814087,1.24909925460815,0.49716168642044,1.49286818504333
196,3659378629,0.803577,-0.068261,0.317458,-0.498824,-4.38889169692993,-4.23447608947754,7.86231899261475,1.49627459049225,0.52780729532242,1.32770454883575
197,3659395296,0.803587,-0.068270,0.317469,-0.498799,-4.39699172973633,-4.22490501403809,7.86609649658203,0.81082761287689,0.60962700843811,1.13412380218506
198,3659411963,0.803596,-0.068272,0.317463,-0.498789,-4.39804553985596,-4.26163673400879,7.86453771591187,0.96022653579712,0.56303757429123,1.02473211288452
199,3659428630,0.803578,-0.068262,0.317456,-0.498823,-4.38758039474487,-4.23454523086548,7.84975767135620,1.10319674015045,0.67595112323761,0.71533066034317
200,3659445297,0.803543,-0.068294,0.317488,-0.498855,-4.38407945632935,-4.23367261886597,7.85533618927002,0.70899164676666,0.76134395599365,0.63006603717804
201,3659461964,0.803521,-0.068303,0.317506,-0.498879,-4.38961648941040,-4.24348831176758,7.83777046203613,0.88655149936676,0.74947243928909,0.74214714765549
202,3659478631,0.803498,-0.068309,0.317516,-0.498908,-4.38877201080322,-4.22790908813477,7.86895847320557,0.92563652992249,0.69613397121429,0.74023902416229
203,3659495298,0.803470,-0.068340,0.317541,-0.498933,-4.38305473327637,-4.24922037124634,7.85672664642334,0.74175012111664,0.72648495435715,0.66714036464691
204,3659511965,0.803448,-0.068332,0.317547,-0.498965,-4.39222717285156,-4.23769426345825,7.85280656814575,1.03953611850739,0.73751121759415,0.73890715837479
205,3659528632,0.803438,-0.068361,0.317562,-0.498969,-4.38897562026978,-4.24159622192383,7.88113641738892,0.74784594774246,0.62769687175751,0.83924496173859
206,3659545299,0.803431,-0.068369,0.317564,-0.498977,-4.38294649124146,-4.24272155761719,7.84107065200806,0.92397177219391,0.63115453720093,0.86315435171127
207,3659561966,0.803410,-0.068392,0.317556,-0.499013,-4.39161634445190,-4.21880960464478,7.83721637725830,0.92011708021164,0.55161434412003,0.64789247512817
208,3659578633,0.803398,-0.068472,0.317597,-0.498995,-4.37125110626221,-4.23474168777466,7.83265399932861,0.32395580410957,0.57982671260834,0.87144005298615
209,3659595300,0.803394,-0.068491,0.317595,-0.499000,-4.38319921493530,-4.26919794082642,7.82475996017456,0.86640715599060,0.55151182413101,0.88067346811295
210,3659611967,0.803383,-0.068493,0.317585,-0.499023,-4.38177204132080,-4.23922872543335,7.86408758163452,1.01822650432587,0.58328437805176,0.79894334077835
211,3659628634,0.803371,-0.068511,0.317611,-0.499023,-4.39433193206787,-4.23117589950562,7.84170722961426,0.75479984283447,0.72690761089325,0.89057272672653
212,3659645301,0.803344,-0.068563,0.317668,-0.499024,-4.36160993576050,-4.24433088302612,7.85800790786743,0.46672096848488,0.81292790174484,0.77060288190842
213,3659661968,0.803347,-0.068531,0.317672,-0.499022,-4.38202476501465,-4.25082015991211,7.85933732986450,1.09963643550873,0.72750961780548,1.08294975757599
214,3659678635,0.803346,-0.068418,0.317654,-0.499050,-4.36667299270630,-4.18877506256104,7.85684871673584,1.70450580120087,0.92344671487808,1.03511810302734
215,3659695302,0.803320,-0.068524,0.317771,-0.499002,-4.38636541366577,-4.24915409088135,7.87808227539062,-0.17699654400349,0.90980786085129,1.01064503192902
216,3659711969,0.803304,-0.068494,0.317785,-0.499022,-4.40283203125000,-4.29659557342529,7.85278081893921,1.10633420944214,0.83933460712433,0.87099194526672
217,3659728636,0.803280,-0.068460,0.317772,-0.499074,-4.43437004089355,-4.21947956085205,7.88178777694702,1.29967153072357,0.74687272310257,0.64919865131378
218,3659745303,0.803241,-0.068560,0.317866,-0.499063,-4.38315725326538,-4.22499704360962,7.84803056716919,0.04321503266692,0.87763845920563,0.70334404706955
219,3659761970,0.803225,-0.068557,0.317916,-0.499059,-4.37395238876343,-4.27487182617188,7.84236526489258,0.80012154579163,0.95037835836411,0.92886382341385
220,3659778637,0.803234,-0.068449,0.317903,-0.499067,-4.36833095550537,-4.23071479797363,7.83489465713501,1.61771726608276,0.90513360500336,1.17856192588806
221,3659795304,0.803239,-0.068416,0.317930,-0.499046,-4.38135766983032,-4.22912168502808,7.85107469558716,1.00466454029083,0.86658656597137,1.16619110107422
222,3659811971,0.803232,-0.068453,0.317976,-0.499023,-4.38104248046875,-4.23301553726196,7.85684490203857,0.52288967370987,0.73278570175171,1.03975391387939
223,3659828638,0.803233,-0.068459,0.317974,-0.499022,-4.37795829772949,-4.25174236297607,7.83426761627197,0.92792880535126,0.58441132307053,0.95181268453598
224,3659845305,0.803236,-0.068454,0.317968,-0.499022,-4.39532709121704,-4.24568462371826,7.85060358047485,0.98220211267471,0.57668912410736,1.01560115814209
225,3659861972,0.803237,-0.068471,0.317992,-0.499002,-4.39192533493042,-4.25177240371704,7.87286281585693,0.73583370447159,0.67217326164246,1.05627417564392
226,3659878639,0.803229,-0.068481,0.318017,-0.498998,-4.40795993804932,-4.24179887771606,7.86331033706665,0.80876582860947,0.74611723423004,0.93178367614746
227,3659895306,0.803224,-0.068482,0.318033,-0.498995,-4.39534664154053,-4.24062871932983,7.85070466995239,0.88748651742935,0.71664977073669,0.95279890298843
228,3659911973,0.803202,-0.068532,0.318083,-0.498992,-4.39116954803467,-4.24903964996338,7.86099624633789,0.49790447950363,0.78023320436478,0.79763710498810
229,3659928640,0.803185,-0.068547,0.318114,-0.498998,-4.40757608413696,-4.26713657379150,7.84525871276855,0.77231889963150,0.76998817920685,0.86202734708786
230,3659945307,0.803163,-0.068538,0.318129,-0.499025,-4.37723493576050,-4.23059368133545,7.83401823043823,1.00186002254486,0.79747062921524,0.75304538011551
231,3659961974,0.803167,-0.068597,0.318199,-0.498966,-4.37427377700806,-4.26063060760498,7.84618234634399,0.27238467335701,0.77389413118362,1.19678544998169
232,3659978641,0.803180,-0.068490,0.318174,-0.498976,-4.39250087738037,-4.25456857681274,7.85244989395142,1.61212086677551,0.77850449085236,1.24217128753662
233,3659995308,0.803178,-0.068465,0.318174,-0.498982,-4.41929960250854,-4.22427082061768,7.86646509170532,1.09725451469421,0.70527774095535,0.99393278360367
234,3660011975,0.803160,-0.068545,0.318239,-0.498959,-4.38840866088867,-4.23753261566162,7.85708236694336,0.23105855286121,0.72862362861633,0.87789446115494
235,3660028642,0.803157,-0.068579,0.318273,-0.498937,-4.37988710403442,-4.28371286392212,7.84777879714966,0.60283970832825,0.68724632263184,1.01275813579559
236,3660045309,0.803158,-0.068487,0.318244,-0.498967,-4.38850927352905,-4.22906112670898,7.84254884719849,1.62997293472290,0.78184688091278,0.98822110891342
237,3660061976,0.803155,-0.068514,0.318295,-0.498936,-4.39482402801514,-4.22042274475098,7.86226463317871,0.57006829977036,0.80835604667664,1.07388281822205
238,3660078643,0.803158,-0.068525,0.318323,-0.498911,-4.39433145523071,-4.25403213500977,7.85138416290283,0.74264669418335,0.71008008718491,1.09945714473724
239,3660095310,0.803170,-0.068453,0.318313,-0.498909,-4.38461017608643,-4.23304176330566,7.84544944763184,1.41665744781494,0.81075078248978,1.11785972118378
240,3660111977,0.803176,-0.068470,0.318358,-0.498867,-4.37944602966309,-4.24300098419189,7.81680870056152,0.59981739521027,0.76318794488907,1.22973620891571
241,3660128644,0.803183,-0.068414,0.318376,-0.498852,-4.39296293258667,-4.25299692153931,7.83779621124268,1.17834424972534,0.89218634366989,1.18744945526123
242,3660145311,0.803200,-0.068392,0.318400,-0.498813,-4.39638996124268,-4.23519372940063,7.85802173614502,0.91939991712570,0.76994985342026,1.28571271896362
243,3660161978,0.803186,-0.068382,0.318451,-0.498805,-4.39375734329224,-4.25403165817261,7.84310102462769,0.81333768367767,0.95902270078659,1.00830149650574
244,3660178645,0.803182,-0.068374,0.318485,-0.498790,-4.39253330230713,-4.25232315063477,7.84165382385254,0.84275382757187,0.83626091480255,1.06815838813782
245,3660195312,0.803182,-0.068347,0.318523,-0.498770,-4.40223360061646,-4.25480031967163,7.85821819305420,0.93877601623535,0.91420054435730,1.13411128520966
246,3660211979,0.803182,-0.068294,0.318535,-0.498768,-4.40479373931885,-4.24724960327148,7.85359859466553,1.18011140823364,0.84873437881470,1.12541556358337
247,3660228646,0.803177,-0.068298,0.318584,-0.498745,-4.38211584091187,-4.24682569503784,7.83526945114136,0.71589416265488,0.87543559074402,1.08284735679626
248,3660245313,0.803181,-0.068248,0.318604,-0.498733,-4.40778875350952,-4.24786233901978,7.85472583770752,1.13960504531860,0.88673079013824,1.15862238407135
249,3660261980,0.803173,-0.068234,0.318658,-0.498713,-4.40530204772949,-4.23166465759277,7.85088634490967,0.79753470420837,0.97241818904877,1.09729290008545
250,3660278647,0.803172,-0.068218,0.318694,-0.498693,-4.40827655792236,-4.24357461929321,7.84199380874634,0.87564063072205,0.86490887403488,1.12236773967743
251,3660295314,0.803173,-0.068224,0.318725,-0.498672,-4.41439294815063,-4.25460767745972,7.84893035888672,0.77198594808578,0.75034320354462,1.08941686153412
252,3660311981,0.803169,-0.068216,0.318754,-0.498661,-4.42296695709229,-4.25361299514771,7.87024736404419,0.87341231107712,0.80735725164413,1.03966438770294
253,3660328648,0.803153,-0.068214,0.318807,-0.498653,-4.40978956222534,-4.24935245513916,7.84408187866211,0.75957661867142,0.95300382375717,0.97751504182816
254,3660345315,0.803137,-0.068213,0.318829,-0.498665,-4.40254831314087,-4.25118923187256,7.82888889312744,0.89574652910233,0.77312576770782,0.85868501663208
255,3660361982,0.803124,-0.068227,0.318865,-0.498660,-4.39663410186768,-4.24978971481323,7.81319952011108,0.71886515617371,0.77932393550873,0.95566737651825
256,3660378649,0.803128,-0.068203,0.318877,-0.498650,-4.40617179870605,-4.23804426193237,7.86033344268799,1.02962410449982,0.75852656364441,1.09007012844086
257,3660395316,0.803137,-0.068175,0.318901,-0.498624,-4.41027927398682,-4.22455358505249,7.86426162719727,0.96025216579437,0.79986548423767,1.22457528114319
258,3660411983,0.803139,-0.068197,0.318935,-0.498596,-4.40605735778809,-4.25230216979980,7.82993793487549,0.65825283527374,0.71139913797379,1.09318208694458
259,3660428650,0.803153,-0.068133,0.318926,-0.498588,-4.40621662139893,-4.24633073806763,7.84177350997925,1.33003544807434,0.76213788986206,1.17817771434784
260,3660445317,0.803160,-0.068153,0.318957,-0.498555,-4.40132951736450,-4.22838306427002,7.84840631484985,0.67333865165710,0.68537670373917,1.13781225681305
261,3660461984,0.803167,-0.068201,0.318995,-0.498512,-4.41517877578735,-4.25172948837280,7.85987472534180,0.48124346137047,0.64218091964722,1.11983215808868
262,3660478651,0.803166,-0.068198,0.319008,-0.498506,-4.41821479797363,-4.25867366790771,7.83974838256836,0.91422605514526,0.69737619161606,0.99977260828018
263,3660495318,0.803154,-0.068243,0.319038,-0.498498,-4.40291881561279,-4.22338581085205,7.85182380676270,0.55989998579025,0.63527822494507,0.90796387195587
264,3660511985,0.803159,-0.068310,0.319067,-0.498463,-4.40149879455566,-4.27057600021362,7.85869789123535,0.44690951704979,0.55485427379608,0.97518432140350
265,3660528652,0.803150,-0.068354,0.319084,-0.498461,-4.39895486831665,-4.26340150833130,7.81491613388062,0.66974008083344,0.59840869903564,0.81460553407669
266,3660545319,0.803140,-0.068345,0.319069,-0.498488,-4.42103862762451,-4.21690082550049,7.86095762252808,1.11706578731537,0.60921722650528,0.77849155664444
267,3660561986,0.803117,-0.068504,0.319158,-0.498446,-4.38998651504517,-4.26060056686401,7.84383916854858,-0.32134974002838,0.60819268226624,0.79287308454514
268,3660578653,0.803127,-0.068436,0.319139,-0.498451,-4.39053249359131,-4.27824544906616,7.82308721542358,1.41175282001495,0.72088861465454,1.10446441173553
269,3660595320,0.803130,-0.068365,0.319133,-0.498461,-4.37885665893555,-4.21043252944946,7.85941839218140,1.39562940597534,0.83927041292191,1.06129407882690
270,3660611987,0.803119,-0.068491,0.319209,-0.498413,-4.41808176040649,-4.25508165359497,7.84718418121338,-0.10844416171312,0.60373610258102,0.94360375404358
271,3660628654,0.803098,-0.068533,0.319205,-0.498442,-4.42855453491211,-4.27722549438477,7.85001611709595,0.78572714328766,0.51318240165710,0.64227050542831
272,3660645321,0.803056,-0.068630,0.319218,-0.498489,-4.42393302917480,-4.24201488494873,7.84377002716064,0.46043303608894,0.47063973546028,0.35079789161682
273,3660661988,0.803014,-0.068744,0.319260,-0.498514,-4.40956020355225,-4.26191997528076,7.85506772994995,0.18911775946617,0.53600329160690,0.49248737096786
274,3660678655,0.802999,-0.068780,0.319244,-0.498544,-4.40149736404419,-4.27980566024780,7.82636690139771,0.87229806184769,0.45396587252617,0.66016089916229
275,3660695322,0.802998,-0.068790,0.319205,-0.498569,-4.38330411911011,-4.24400234222412,7.83181810379028,1.10007190704346,0.39381450414658,0.76095974445343
276,3660711989,0.803009,-0.068873,0.319219,-0.498530,-4.38462162017822,-4.23852777481079,7.79870843887329,0.36706197261810,0.36909815669060,1.03744876384735
277,3660728656,0.803033,-0.068893,0.319195,-0.498504,-4.38146018981934,-4.25429773330688,7.83741712570190,0.88224869966507,0.35125893354416,1.13158822059631
278,3660745323,0.803062,-0.068912,0.319160,-0.498478,-4.40853500366211,-4.24348402023315,7.85732841491699,0.92765986919403,0.28771385550499,1.14225602149963
279,3660761990,0.803075,-0.068966,0.319162,-0.498448,-4.41391611099243,-4.23801231384277,7.83661460876465,0.60015034675598,0.41150003671646,1.03709030151367
280,3660778657,0.803093,-0.069028,0.319138,-0.498426,-4.41845703125000,-4.27033996582031,7.84573888778687,0.68923139572144,0.25540345907211,0.93717515468597
281,3660795324,0.803091,-0.069095,0.319140,-0.498419,-4.39857912063599,-4.28486347198486,7.83100414276123,0.55626296997070,0.39392969012260,0.85407459735870
282,3660811991,0.803085,-0.069081,0.319122,-0.498441,-4.40301990509033,-4.26772403717041,7.84328937530518,1.12401974201202,0.57607442140579,0.86834090948105
283,3660828658,0.803076,-0.069126,0.319110,-0.498457,-4.39139986038208,-4.25055408477783,7.82841491699219,0.76440459489822,0.41030901670456,0.76485282182693
284,3660845325,0.803065,-0.069155,0.319110,-0.498471,-4.40275955200195,-4.25235986709595,7.80311250686646,0.83372539281845,0.56517624855042,0.75627267360687
285,3660861992,0.803046,-0.069162,0.319135,-0.498485,-4.36741781234741,-4.24671888351440,7.80588436126709,0.86038827896118,0.78087365627289,0.80412989854813
286,3660878659,0.803056,-0.069182,0.319171,-0.498443,-4.38674831390381,-4.28996181488037,7.81916618347168,0.63766020536423,0.71720045804977,1.19126594066620
287,3660895326,0.803060,-0.069065,0.319122,-0.498483,-4.41065979003906,-4.26048421859741,7.85376834869385,1.85102355480194,0.75061219930649,0.99808210134506
288,3660911993,0.803034,-0.069061,0.319152,-0.498506,-4.42429113388062,-4.23976564407349,7.86774969100952,0.91121661663055,0.86010640859604,0.77208840847015
289,3660928660,0.802994,-0.069069,0.319201,-0.498539,-4.39032936096191,-4.27390098571777,7.83001899719238,0.78138577938080,0.95191502571106,0.67346668243408
290,3660945327,0.802984,-0.068997,0.319195,-0.498569,-4.39200973510742,-4.27851629257202,7.82135105133057,1.43110311031342,0.86584365367889,0.91487920284271
291,3660961994,0.802980,-0.068923,0.319184,-0.498593,-4.39948511123657,-4.23743534088135,7.84153652191162,1.45943069458008,0.83676040172577,0.96735948324203
292,3660978661,0.802980,-0.068913,0.319216,-0.498574,-4.40059232711792,-4.25719213485718,7.84628677368164,0.87646001577377,0.84056395292282,1.07242274284363
293,3660995328,0.802998,-0.068825,0.319188,-0.498574,-4.39417123794556,-4.26067829132080,7.84157943725586,1.55374944210052,0.72949445247650,1.18350505828857
294,3661011995,0.803006,-0.068811,0.319200,-0.498556,-4.41872882843018,-4.25707244873047,7.84904479980469,0.95611560344696,0.71055388450623,1.12439107894897
295,3661028662,0.803020,-0.068765,0.319199,-0.498541,-4.40178155899048,-4.28185653686523,7.82523441314697,1.18536210060120,0.72604954242706,1.19720792770386
296,3661045329,0.803011,-0.068744,0.319200,-0.498557,-4.41436195373535,-4.26296806335449,7.83424377441406,1.06110215187073,0.69235605001450,0.95190232992172
297,3661061996,0.802999,-0.068680,0.319174,-0.498602,-4.40757513046265,-4.25964546203613,7.84333848953247,1.47680902481079,0.72255343198776,0.81974077224731
298,3661078663,0.802992,-0.068687,0.319176,-0.498611,-4.40903377532959,-4.24241018295288,7.85912990570068,0.92739105224609,0.63014286756516,0.87019783258438
299,3661095330,0.802971,-0.068667,0.319166,-0.498654,-4.40456724166870,-4.25318098068237,7.83082389831543,1.18373584747314,0.69596749544144,0.69330382347107
300,3661111997,0.802956,-0.068659,0.319190,-0.498663,-4.38854312896729,-4.24842500686646,7.84101581573486,0.93472898006439,0.82349318265915,0.88158279657364
301,3661128664,0.802941,-0.068661,0.319227,-0.498664,-4.39296817779541,-4.26562643051147,7.83496809005737,0.79391038417816,0.83051091432571,0.95072412490845
302,3661145331,0.802927,-0.068596,0.319243,-0.498685,-4.40628576278687,-4.25663661956787,7.83493614196777,1.28986191749573,0.96328717470169,0.96237790584564
303,3661161998,0.802908,-0.068575,0.319281,-0.498694,-4.41783475875854,-4.26906919479370,7.82749652862549,0.97102218866348,0.96313351392746,0.87063324451447
304,3661178665,0.802887,-0.068542,0.319300,-0.498720,-4.41555213928223,-4.25925064086914,7.82804059982300,1.12332820892334,0.90381461381912,0.81612956523895
305,3661195332,0.802859,-0.068540,0.319333,-0.498744,-4.39925050735474,-4.26128816604614,7.83882427215576,0.87491047382355,0.86102837324142,0.78937691450119
306,3661211999,0.802835,-0.068510,0.319334,-0.498788,-4.39985084533691,-4.23582935333252,7.82750463485718,1.22219300270081,0.81351691484451,0.66936868429184
307,3661228666,0.802821,-0.068513,0.319358,-0.498794,-4.40508031845093,-4.23779535293579,7.83766365051270,0.85344725847244,0.76919418573380,0.89700162410736
308,3661245333,0.802817,-0.068508,0.319368,-0.498795,-4.39800310134888,-4.24283456802368,7.81841611862183,0.95497590303421,0.69988626241684,0.95708900690079
309,3661262000,0.802829,-0.068498,0.319360,-0.498783,-4.40690755844116,-4.23853397369385,7.84142017364502,1.01368021965027,0.57339793443680,1.09193992614746
310,3661278667,0.802845,-0.068556,0.319369,-0.498743,-4.41999959945679,-4.25693655014038,7.82307243347168,0.52474665641785,0.41677623987198,1.10461795330048
311,3661295334,0.802868,-0.068543,0.319332,-0.498731,-4.41681623458862,-4.24622297286987,7.82898807525635,1.12058758735657,0.38541352748871,1.15147662162781
312,3661312001,0.802887,-0.068581,0.319330,-0.498695,-4.41926288604736,-4.26817989349365,7.83430337905884,0.69125479459763,0.42689329385757,1.12708044052124
313,3661328668,0.802901,-0.068602,0.319291,-0.498696,-4.40787172317505,-4.26629877090454,7.83174085617065,0.96999776363373,0.29167103767395,0.95734512805939
314,3661345335,0.802916,-0.068636,0.319274,-0.498678,-4.40142393112183,-4.24404716491699,7.85106420516968,0.79572892189026,0.36301517486572,1.02003216743469
315,3661362002,0.802907,-0.068708,0.319283,-0.498677,-4.40438413619995,-4.24447774887085,7.83067560195923,0.51880443096161,0.44268348813057,0.78282010555267
316,3661378669,0.802895,-0.068779,0.319286,-0.498684,-4.39720821380615,-4.29228925704956,7.83113241195679,0.55275410413742,0.40507128834724,0.74548965692520
317,3661395336,0.802888,-0.068819,0.319274,-0.498698,-4.40967607498169,-4.27811717987061,7.83510398864746,0.82138007879257,0.46094536781311,0.73340046405792
318,3661412003,0.802859,-0.068850,0.319274,-0.498740,-4.41478204727173,-4.25767421722412,7.84092283248901,0.84154999256134,0.57716298103333,0.59224879741669
319,3661428670,0.802840,-0.068895,0.319314,-0.498738,-4.39988231658936,-4.27113056182861,7.82268428802490,0.58260565996170,0.74693673849106,0.79083687067032
320,3661445337,0.802836,-0.068813,0.319317,-0.498755,-4.38746833801270,-4.26484680175781,7.81338119506836,1.43205082416534,0.93100237846375,1.03601443767548
321,3661462004,0.802824,-0.068765,0.319337,-0.498768,-4.39478826522827,-4.27539825439453,7.80547761917114,1.15320539474487,0.90190643072128,1.00133502483368
322,3661478671,0.802817,-0.068701,0.319332,-0.498790,-4.40953016281128,-4.27488994598389,7.83605432510376,1.36160314083099,0.82971698045731,0.96569472551346
323,3661495338,0.802784,-0.068695,0.319359,-0.498828,-4.41434383392334,-4.24728393554688,7.86705684661865,0.96210908889771,0.87398862838745,0.67331308126450
324,3661512005,0.802755,-0.068694,0.319389,-0.498855,-4.39842844009399,-4.24460744857788,7.84725332260132,0.90039527416229,0.86986488103867,0.72137528657913
325,3661528672,0.802746,-0.068707,0.319425,-0.498845,-4.39711856842041,-4.27648162841797,7.84846067428589,0.73940664529800,0.79123389720917,0.96792310476303
326,3661545339,0.802739,-0.068623,0.319425,-0.498868,-4.39926338195801,-4.27874803543091,7.81744623184204,1.44483160972595,0.91090923547745,1.03709018230438
327,3661562006,0.802742,-0.068552,0.319428,-0.498870,-4.40659475326538,-4.24118709564209,7.84597778320312,1.34231674671173,0.87004411220551,1.12214994430542
328,3661578673,0.802762,-0.068575,0.319480,-0.498802,-4.39738035202026,-4.26987695693970,7.83628082275391,0.50197684764862,0.74321007728577,1.38433432579041
329,3661595340,0.802792,-0.068493,0.319426,-0.498799,-4.39572334289551,-4.25474452972412,7.83786058425903,1.60337424278259,0.54025512933731,1.23484587669373
330,3661612007,0.802808,-0.068442,0.319395,-0.498800,-4.41048336029053,-4.18705987930298,7.82667207717896,1.35175502300262,0.58619141578674,1.10609078407288
331,3661628674,0.802812,-0.068595,0.319485,-0.498716,-4.38886165618896,-4.25536489486694,7.84586286544800,-0.37593042850494,0.54236817359924,1.14255058765411
332,3661645341,0.802820,-0.068645,0.319495,-0.498689,-4.43467044830322,-4.31166267395020,7.84166955947876,0.59361910820007,0.47837477922440,1.02246534824371
333,3661662008,0.802830,-0.068623,0.319459,-0.498700,-4.40716695785522,-4.27461338043213,7.85187244415283,1.22349929809570,0.47814419865608,0.96896034479141
334,3661678675,0.802823,-0.068719,0.319504,-0.498668,-4.41215753555298,-4.27878713607788,7.85594272613525,0.19246022403240,0.53089356422424,0.93223184347153
335,3661695342,0.802810,-0.068704,0.319476,-0.498709,-4.40489816665649,-4.26446247100830,7.83468723297119,1.21961915493011,0.55472624301910,0.71558684110641
336,3661712009,0.802809,-0.068723,0.319483,-0.498704,-4.38496398925781,-4.22761058807373,7.82783937454224,0.84475171566010,0.62399578094482,0.89098268747330
337,3661728676,0.802801,-0.068782,0.319554,-0.498663,-4.39210891723633,-4.28195667266846,7.81665849685669,0.28821328282356,0.80501353740692,1.07038664817810
338,3661745343,0.802808,-0.068685,0.319533,-0.498679,-4.41479349136353,-4.26510524749756,7.83671569824219,1.61395227909088,0.83330285549164,1.08631789684296
339,3661762010,0.802784,-0.068712,0.319575,-0.498686,-4.42973184585571,-4.26478099822998,7.81295061111450,0.67697572708130,0.83110004663467,0.77144807577133
340,3661778677,0.802749,-0.068707,0.319620,-0.498716,-4.41942739486694,-4.27597999572754,7.82080650329590,0.86980092525482,0.97106069326401,0.72316819429398
341,3661795344,0.802721,-0.068707,0.319651,-0.498740,-4.42615032196045,-4.25413227081299,7.84414196014404,0.88889515399933,0.85509926080704,0.75276356935501
342,3661812011,0.802703,-0.068683,0.319665,-0.498764,-4.41145038604736,-4.25517129898071,7.83124876022339,1.08015799522400,0.82960176467896,0.82234054803848
343,3661828678,0.802692,-0.068682,0.319685,-0.498768,-4.40609693527222,-4.24240016937256,7.84634256362915,0.89463245868683,0.75686168670654,0.91359865665436
344,3661845345,0.802684,-0.068715,0.319712,-0.498759,-4.39571619033813,-4.26324939727783,7.85553550720215,0.65035128593445,0.65265643596649,0.94669026136398
345,3661862012,0.802694,-0.068676,0.319681,-0.498769,-4.40139436721802,-4.25560712814331,7.82366228103638,1.30036330223083,0.56430548429489,1.00909554958344
346,3661878679,0.802695,-0.068711,0.319716,-0.498740,-4.40526151657104,-4.25515317916870,7.83372974395752,0.57757276296616,0.67814099788666,1.06354808807373
347,3661895346,0.802704,-0.068712,0.319739,-0.498711,-4.42845726013184,-4.27575969696045,7.83273839950562,0.80856090784073,0.70696812868118,1.16574275493622
348,3661912013,0.802713,-0.068679,0.319708,-0.498721,-4.41517972946167,-4.26471328735352,7.86939764022827,1.26841127872467,0.54746502637863,0.99142277240753
349,3661928680,0.802712,-0.068704,0.319713,-0.498715,-4.40893745422363,-4.25966691970825,7.84073734283447,0.79138761758804,0.55771011114120,0.93799471855164
350,3661945347,0.802719,-0.068726,0.319720,-0.498696,-4.39620256423950,-4.26342773437500,7.82130050659180,0.77756953239441,0.56621354818344,1.03372228145599
351,3661962014,0.802723,-0.068752,0.319733,-0.498679,-4.41310834884644,-4.26681900024414,7.82197999954224,0.72692048549652,0.58375829458237,1.02245259284973
352,3661978681,0.802724,-0.068755,0.319747,-0.498668,-4.41042900085449,-4.25063896179199,7.81710863113403,0.86953192949295,0.67420947551727,1.02501380443573
353,3661995348,0.802706,-0.068805,0.319770,-0.498675,-4.43299341201782,-4.26699638366699,7.82747983932495,0.57357716560364,0.58543592691422,0.81527143716812
354,3662012015,0.802700,-0.068832,0.319774,-0.498678,-4.41739416122437,-4.27975702285767,7.82985639572144,0.79693275690079,0.56147521734238,0.87018501758575
355,3662028682,0.802694,-0.068848,0.319764,-0.498693,-4.40008783340454,-4.26701927185059,7.82672405242920,0.92854350805283,0.53072708845139,0.82056045532227
356,3662045349,0.802688,-0.068852,0.319745,-0.498714,-4.40927124023438,-4.25830221176147,7.82662057876587,1.04554247856140,0.52274876832962,0.79791879653931
357,3662062016,0.802688,-0.068894,0.319764,-0.498696,-4.40078496932983,-4.27320814132690,7.82445812225342,0.62735104560852,0.57832837104797,0.95804953575134
358,3662078683,0.802688,-0.068930,0.319767,-0.498689,-4.41037845611572,-4.27021789550781,7.82208251953125,0.73004513978958,0.51379722356796,0.92785209417343
359,3662095350,0.802689,-0.068929,0.319765,-0.498688,-4.40195655822754,-4.26724195480347,7.80586576461792,0.96186578273773,0.60555464029312,0.97152161598206
360,3662112017,0.802687,-0.068934,0.319754,-0.498698,-4.40655946731567,-4.26970148086548,7.80948734283447,0.99151241779327,0.54902750253677,0.87964904308319
361,3662128684,0.802685,-0.068940,0.319760,-0.498696,-4.41214609146118,-4.27155303955078,7.81892156600952,0.90199607610703,0.64040076732635,0.94745868444443
362,3662145351,0.802675,-0.068953,0.319774,-0.498702,-4.41211271286011,-4.29473018646240,7.81900215148926,0.85408753156662,0.68737447261810,0.84968215227127
363,3662162018,0.802673,-0.068907,0.319752,-0.498726,-4.41772603988647,-4.26236486434937,7.82370615005493,1.34282922744751,0.67108476161957,0.91318881511688
364,3662178685,0.802657,-0.068940,0.319776,-0.498730,-4.39555597305298,-4.25492620468140,7.83702230453491,0.69457161426544,0.67864048480988,0.81635999679565
365,3662195352,0.802649,-0.068941,0.319764,-0.498752,-4.41003561019897,-4.29518175125122,7.80914592742920,1.05668401718140,0.59552735090256,0.77060300111771
366,3662212019,0.802630,-0.068905,0.319744,-0.498800,-4.41114425659180,-4.23666763305664,7.82796907424927,1.29677736759186,0.67828190326691,0.72724062204361
367,3662228686,0.802608,-0.068993,0.319778,-0.498801,-4.42774724960327,-4.27379369735718,7.85530900955200,0.35536983609200,0.56109106540680,0.68769466876984
368,3662245353,0.802593,-0.069007,0.319774,-0.498826,-4.41584062576294,-4.27955198287964,7.84004783630371,0.94124758243561,0.59210801124573,0.74819177389145
369,3662262020,0.802581,-0.069034,0.319772,-0.498843,-4.38543939590454,-4.28009891510010,7.81869268417358,0.84563529491425,0.55540496110916,0.75569623708725
370,3662278687,0.802587,-0.069034,0.319752,-0.498847,-4.40681934356689,-4.26317882537842,7.81440353393555,0.99700635671616,0.45668086409569,1.01364183425903
371,3662295354,0.802594,-0.068986,0.319728,-0.498858,-4.40467929840088,-4.25331830978394,7.82846641540527,1.33029150962830,0.64346140623093,1.02281117439270
372,3662312021,0.802609,-0.068989,0.319720,-0.498838,-4.40545415878296,-4.25786638259888,7.82441186904907,0.90409636497498,0.49552255868912,1.15371763706207
373,3662328688,0.802629,-0.068936,0.319718,-0.498814,-4.39624452590942,-4.24061536788940,7.80421257019043,1.21294689178467,0.74026459455490,1.26949977874756
374,3662345355,0.802659,-0.068977,0.319742,-0.498745,-4.41624546051025,-4.29761123657227,7.81813478469849,0.51281106472015,0.51065963506699,1.36508655548096
375,3662362022,0.802676,-0.068878,0.319660,-0.498783,-4.43273973464966,-4.27227926254272,7.84491348266602,1.86915731430054,0.48184534907341,0.99306201934814
376,3662378689,0.802656,-0.068905,0.319648,-0.498820,-4.43490266799927,-4.23938703536987,7.85647058486938,0.90372496843338,0.50380820035934,0.65155506134033
377,3662395356,0.802627,-0.069002,0.319689,-0.498827,-4.41318225860596,-4.27153635025024,7.82293367385864,0.26777437329292,0.56594455242157,0.65403944253922
378,3662412023,0.802617,-0.068965,0.319661,-0.498866,-4.37492895126343,-4.27253532409668,7.82231569290161,1.33477377891541,0.62773519754410,0.78271764516830
379,3662428690,0.802629,-0.068958,0.319684,-0.498833,-4.39633083343506,-4.24586820602417,7.82136726379395,0.84438031911850,0.72748392820358,1.21450948715210
380,3662445357,0.802636,-0.068908,0.319681,-0.498829,-4.40563106536865,-4.26303625106812,7.82631778717041,1.23908472061157,0.75870573520660,1.10504066944122
381,3662462024,0.802650,-0.068864,0.319663,-0.498825,-4.41680622100830,-4.25662422180176,7.84826564788818,1.27892541885376,0.65384745597839,1.09324610233307
382,3662478691,0.802652,-0.068896,0.319643,-0.498830,-4.39824342727661,-4.27376937866211,7.86078023910522,0.83914238214493,0.38484999537468,0.88405430316925
383,3662495358,0.802655,-0.068884,0.319632,-0.498834,-4.40953874588013,-4.26895952224731,7.82631778717041,1.05750358104706,0.57873815298080,0.99970853328705
384,3662512025,0.802645,-0.068911,0.319643,-0.498839,-4.39459705352783,-4.25696277618408,7.80540609359741,0.79191267490387,0.63162839412689,0.81308162212372
385,3662528692,0.802627,-0.068984,0.319683,-0.498834,-4.41789865493774,-4.28384256362915,7.84052848815918,0.41407415270805,0.63662290573120,0.75935900211334
386,3662545359,0.802614,-0.068983,0.319677,-0.498857,-4.40919589996338,-4.28005886077881,7.83376741409302,1.03838372230530,0.64143806695938,0.76449435949326
387,3662562026,0.802602,-0.068984,0.319668,-0.498883,-4.40783071517944,-4.25337886810303,7.83792400360107,1.02812576293945,0.60017591714859,0.77106392383575
388,3662578693,0.802589,-0.069068,0.319688,-0.498879,-4.41254425048828,-4.27397775650024,7.85861635208130,0.41025781631470,0.47304731607437,0.76046019792557
389,3662595360,0.802580,-0.069046,0.319678,-0.498903,-4.40117597579956,-4.26645326614380,7.83045673370361,1.13635230064392,0.64899373054504,0.87561488151550
390,3662612027,0.802580,-0.069071,0.319696,-0.498889,-4.39907503128052,-4.24017047882080,7.83263587951660,0.74212163686752,0.63684058189392,0.96855074167252
391,3662628694,0.802576,-0.069088,0.319742,-0.498863,-4.40595960617065,-4.27263164520264,7.84314155578613,0.64808452129364,0.81442618370056,1.07420301437378
392,3662645361,0.802572,-0.069116,0.319757,-0.498856,-4.40747308731079,-4.30906009674072,7.83424615859985,0.71803283691406,0.59871602058411,0.94972521066666
393,3662662028,0.802573,-0.069083,0.319727,-0.498877,-4.41141748428345,-4.25247526168823,7.83624696731567,1.27755498886108,0.56792962551117,0.91792708635330
394,3662678695,0.802558,-0.069188,0.319780,-0.498853,-4.40451383590698,-4.27546882629395,7.83915519714355,0.12920965254307,0.56502252817154,0.84484124183655
395,3662695362,0.802548,-0.069145,0.319764,-0.498887,-4.42024374008179,-4.29079961776733,7.82953310012817,1.30010724067688,0.69805502891541,0.86365389823914
396,3662712029,0.802550,-0.069152,0.319750,-0.498890,-4.41618490219116,-4.26142263412476,7.84043312072754,0.98586481809616,0.52880614995956,0.90480059385300
397,3662728696,0.802546,-0.069207,0.319782,-0.498869,-4.38860464096069,-4.27887916564941,7.82352495193481,0.49489498138428,0.60449165105820,0.95323425531387
398,3662745363,0.802551,-0.069155,0.319746,-0.498892,-4.39634752273560,-4.25873470306396,7.83578920364380,1.40123891830444,0.57937854528427,0.98379027843475
399,3662762030,0.802558,-0.069151,0.319745,-0.498881,-4.39664220809937,-4.24540328979492,7.81958913803101,0.95783168077469,0.60513210296631,1.05834877490997
400,3662778697,0.802554,-0.069178,0.319769,-0.498868,-4.39451456069946,-4.24951696395874,7.82826375961304,0.72603672742844,0.68882161378860,0.91007691621780
401,3662795364,0.802545,-0.069213,0.319793,-0.498863,-4.41573762893677,-4.30509567260742,7.83002281188965,0.66114705801010,0.65090185403824,0.90033131837845
402,3662812031,0.802541,-0.069183,0.319770,-0.498888,-4.40479230880737,-4.30075597763062,7.82518339157104,1.24610269069672,0.60687369108200,0.87877810001373
403,3662828698,0.802524,-0.069190,0.319783,-0.498906,-4.40195417404175,-4.24988889694214,7.83901977539062,0.90314865112305,0.71380674839020,0.79049116373062
404,3662845365,0.802511,-0.069222,0.319788,-0.498918,-4.41578149795532,-4.26915025711060,7.84456586837769,0.77338194847107,0.56296074390411,0.79198950529099
405,3662862032,0.802498,-0.069229,0.319784,-0.498942,-4.40248060226440,-4.27532291412354,7.79666519165039,0.98113918304443,0.61695224046707,0.75928205251694
406,3662878699,0.802496,-0.069236,0.319791,-0.498940,-4.39235401153564,-4.27037477493286,7.81939888000488,0.88040453195572,0.62461048364639,0.97668272256851
407,3662895366,0.802505,-0.069229,0.319776,-0.498936,-4.40873432159424,-4.26346302032471,7.82283592224121,1.03085350990295,0.53473550081253,1.02842020988464
408,3662912033,0.802507,-0.069230,0.319776,-0.498932,-4.40000104904175,-4.26309061050415,7.83974790573120,0.94097852706909,0.60455566644669,0.99650686979294
409,3662928700,0.802513,-0.069231,0.319784,-0.498917,-4.40595197677612,-4.27820682525635,7.83549880981445,0.87242615222931,0.62085825204849,1.09387350082397
410,3662945367,0.802512,-0.069225,0.319789,-0.498917,-4.40529060363770,-4.27790546417236,7.82854127883911,0.98042219877243,0.68204700946808,0.95381063222885
411,3662962034,0.802522,-0.069198,0.319781,-0.498909,-4.40920257568359,-4.27147579193115,7.81579160690308,1.12847650051117,0.64517754316330,1.08320605754852
412,3662978701,0.802523,-0.069199,0.319794,-0.498899,-4.40427398681641,-4.29509496688843,7.82434368133545,0.87996917963028,0.68159872293472,1.03192937374115
413,3662995368,0.802531,-0.069129,0.319753,-0.498922,-4.40064907073975,-4.25968551635742,7.82847499847412,1.53794646263123,0.62115281820297,0.99199897050858
414,3663012035,0.802518,-0.069170,0.319791,-0.498913,-4.40667104721069,-4.27013254165649,7.83829116821289,0.57593357563019,0.71689301729202,0.89232718944550
415,3663028702,0.802516,-0.069150,0.319791,-0.498919,-4.39550542831421,-4.27290916442871,7.80565786361694,1.08166921138763,0.70205050706863,0.95156937837601
416,3663045369,0.802523,-0.069122,0.319781,-0.498919,-4.40216302871704,-4.25988721847534,7.82565259933472,1.14220476150513,0.64175826311111,1.05350816249847
417,3663062036,0.802525,-0.069107,0.319784,-0.498914,-4.40119457244873,-4.28443431854248,7.82942533493042,0.99730080366135,0.65929007530212,1.06000077724457
418,3663078703,0.802536,-0.069055,0.319762,-0.498919,-4.41318559646606,-4.23671817779541,7.86860036849976,1.35956692695618,0.67192995548248,1.03397822380066
419,3663095370,0.802526,-0.069119,0.319805,-0.498899,-4.40093898773193,-4.26522111892700,7.84388923645020,0.39665746688843,0.64910906553268,0.93476754426956
420,3663112037,0.802527,-0.069142,0.319802,-0.498896,-4.41859817504883,-4.28732824325562,7.80802202224731,0.83157402276993,0.51460397243500,0.92675083875656
421,3663128704,0.802540,-0.069094,0.319768,-0.498903,-4.40380430221558,-4.24503898620605,7.82519769668579,1.35293340682983,0.56678986549377,1.06171679496765
422,3663145371,0.802526,-0.069190,0.319819,-0.498879,-4.38747358322144,-4.29621839523315,7.82087898254395,0.18819570541382,0.58503878116608,0.87437272071838
423,3663162038,0.802541,-0.069145,0.319788,-0.498881,-4.40555620193481,-4.29030942916870,7.81874561309814,1.31583333015442,0.56223082542419,1.08905839920044
424,3663178705,0.802542,-0.069108,0.319767,-0.498899,-4.39051961898804,-4.24190998077393,7.84181213378906,1.28098714351654,0.65227222442627,0.91851627826691
425,3663195372,0.802541,-0.069205,0.319838,-0.498841,-4.41281318664551,-4.29912519454956,7.81589841842651,0.06414060294628,0.66013532876968,1.07395970821381
426,3663212039,0.802561,-0.069060,0.319765,-0.498876,-4.38159370422363,-4.26498985290527,7.81941795349121,2.08915758132935,0.69131880998611,1.11966550350189
427,3663228706,0.802580,-0.069051,0.319780,-0.498836,-4.40626478195190,-4.25975418090820,7.82673120498657,0.87561500072479,0.67036765813828,1.27559566497803
428,3663245373,0.802579,-0.069092,0.319808,-0.498815,-4.42970132827759,-4.30039119720459,7.81544589996338,0.56997859477997,0.60438925027847,1.03329956531525
429,3663262040,0.802566,-0.069051,0.319770,-0.498866,-4.43127775192261,-4.27013158798218,7.84860658645630,1.40324938297272,0.59148049354553,0.72766321897507
430,3663278707,0.802535,-0.069116,0.319787,-0.498896,-4.43463420867920,-4.24818038940430,7.83544111251831,0.57671475410461,0.55641674995422,0.57644581794739
431,3663295374,0.802509,-0.069171,0.319823,-0.498907,-4.39358901977539,-4.28192520141602,7.81187009811401,0.52831953763962,0.68276411294937,0.72248941659927
432,3663312041,0.802510,-0.069105,0.319810,-0.498923,-4.39229011535645,-4.27452564239502,7.83089399337769,1.37693214416504,0.75082981586456,1.05714464187622
433,3663328708,0.802524,-0.069062,0.319782,-0.498925,-4.39394044876099,-4.24261522293091,7.82921934127808,1.28589189052582,0.56827533245087,1.10755074024200
434,3663345375,0.802547,-0.069047,0.319766,-0.498900,-4.39127683639526,-4.26799154281616,7.83271360397339,1.04596519470215,0.52283847332001,1.20448207855225
435,3663362042,0.802564,-0.069059,0.319745,-0.498884,-4.39638137817383,-4.29878616333008,7.82875919342041,0.93187332153320,0.41137200593948,1.07949209213257
436,3663378709,0.802585,-0.069026,0.319679,-0.498898,-4.41345977783203,-4.27222728729248,7.83782911300659,1.38405263423920,0.30852422118187,1.02273452281952
437,3663395376,0.802598,-0.069057,0.319664,-0.498882,-4.41277503967285,-4.26262664794922,7.83926630020142,0.81438779830933,0.40394431352615,1.00872409343719
438,3663412043,0.802605,-0.069097,0.319677,-0.498857,-4.41894388198853,-4.28573703765869,7.84063053131104,0.63846701383591,0.52185237407684,1.04054796695709
439,3663428710,0.802607,-0.069074,0.319643,-0.498878,-4.41762304306030,-4.28922605514526,7.82495403289795,1.24137723445892,0.51366913318634,0.89707845449448
440,3663445377,0.802591,-0.069075,0.319615,-0.498922,-4.40874671936035,-4.25616693496704,7.85435533523560,1.11702740192413,0.50129818916321,0.67175066471100
441,3663462044,0.802580,-0.069142,0.319620,-0.498928,-4.42658424377441,-4.26958847045898,7.85354566574097,0.57609999179840,0.44233769178391,0.74875521659851
442,3663478711,0.802587,-0.069148,0.319583,-0.498938,-4.39071416854858,-4.27885293960571,7.81656789779663,1.12007534503937,0.42707258462906,0.81632161140442
443,3663495378,0.802606,-0.069141,0.319551,-0.498930,-4.37454795837402,-4.26720619201660,7.81647920608521,1.10609078407288,0.43178528547287,1.05544173717499
444,3663512045,0.802639,-0.069070,0.319511,-0.498912,-4.40419769287109,-4.25100946426392,7.82488298416138,1.44900631904602,0.55167829990387,1.32268440723419
445,3663528712,0.802660,-0.069056,0.319499,-0.498888,-4.40982580184937,-4.28258705139160,7.82184600830078,1.04634916782379,0.55886268615723,1.16939258575439
446,3663545379,0.802682,-0.068993,0.319455,-0.498889,-4.41180515289307,-4.27149295806885,7.82293987274170,1.46118521690369,0.53902560472488,1.15238571166992
447,3663562046,0.802694,-0.068979,0.319420,-0.498893,-4.40118789672852,-4.26871299743652,7.85347843170166,1.16633188724518,0.44690960645676,1.00456213951111
448,3663578713,0.802703,-0.068967,0.319394,-0.498898,-4.40746688842773,-4.26700544357300,7.84163618087769,1.11750125885010,0.49024626612663,0.98916870355606
449,3663595380,0.802719,-0.068956,0.319339,-0.498909,-4.40201950073242,-4.25730943679810,7.82335186004639,1.23077356815338,0.31646409630775,0.96563082933426
450,3663612047,0.802729,-0.068969,0.319307,-0.498911,-4.40768575668335,-4.27234792709351,7.83296012878418,0.98130577802658,0.35995450615883,0.97472339868546
451,3663628714,0.802753,-0.068936,0.319242,-0.498920,-4.38016748428345,-4.26438236236572,7.82182312011719,1.37528049945831,0.30632150173187,1.06030821800232
452,3663645381,0.802783,-0.068869,0.319172,-0.498926,-4.39997529983521,-4.24616432189941,7.80851602554321,1.58922302722931,0.39714407920837,1.14886403083801
453,3663662048,0.802804,-0.068872,0.319157,-0.498901,-4.39673137664795,-4.26819467544556,7.81964635848999,0.95212006568909,0.47245821356773,1.14622592926025
454,3663678715,0.802824,-0.068819,0.319107,-0.498908,-4.40746212005615,-4.28985548019409,7.83666849136353,1.45762503147125,0.49903139472008,1.05879688262939
455,3663695382,0.802835,-0.068727,0.319036,-0.498948,-4.40993690490723,-4.25156831741333,7.85595607757568,1.80489480495453,0.54412257671356,0.94045358896255
456,3663712049,0.802827,-0.068742,0.319030,-0.498962,-4.39775514602661,-4.27673435211182,7.83553075790405,0.91092216968536,0.54503184556961,0.84023100137711
457,3663728716,0.802819,-0.068703,0.318969,-0.499019,-4.40652465820312,-4.31368446350098,7.82834339141846,1.45300221443176,0.41900458931923,0.74937003850937
458,3663745383,0.802845,-0.068544,0.318812,-0.499099,-4.39375114440918,-4.23423385620117,7.83629703521729,2.55267024040222,0.27238464355469,0.89107221364975
459,3663762050,0.802882,-0.068477,0.318740,-0.499096,-4.38767862319946,-4.19116067886353,7.85115337371826,1.57690334320068,0.35704740881920,1.23469197750092
460,3663778717,0.802951,-0.068451,0.318711,-0.499008,-4.39610767364502,-4.26875591278076,7.83412122726440,1.03735899925232,0.35575395822525,1.72651982307434
461,3663795384,0.803062,-0.068255,0.318554,-0.498955,-4.38312578201294,-4.25354385375977,7.83338212966919,2.50205993652344,0.15131342411041,2.00756835937500
462,3663812051,0.803169,-0.068127,0.318438,-0.498876,-4.40973854064941,-4.23426389694214,7.84587478637695,1.93927192687988,0.14442360401154,1.99081742763519
463,3663828718,0.803275,-0.068010,0.318356,-0.498773,-4.41116142272949,-4.24283599853516,7.84624862670898,1.68305540084839,0.26467525959015,2.14462184906006
464,3663845385,0.803373,-0.067883,0.318285,-0.498676,-4.39207124710083,-4.26168298721313,7.81588506698608,1.74359083175659,0.41174334287643,2.06682324409485
465,3663862052,0.803433,-0.067766,0.318241,-0.498624,-4.40417957305908,-4.25569009780884,7.83514738082886,1.65252506732941,0.60436367988586,1.71956634521484
466,3663878719,0.803465,-0.067646,0.318206,-0.498612,-4.40732097625732,-4.24170351028442,7.84991931915283,1.72982394695282,0.76192021369934,1.37364101409912
467,3663895386,0.803498,-0.067572,0.318179,-0.498585,-4.40172243118286,-4.23967456817627,7.85078954696655,1.41914200782776,0.64629161357880,1.36036074161530
468,3663912053,0.803516,-0.067477,0.318149,-0.498589,-4.39809513092041,-4.21015357971191,7.84989356994629,1.61062288284302,0.75392907857895,1.17628252506256
469,3663928720,0.803525,-0.067439,0.318155,-0.498576,-4.39415121078491,-4.23728322982788,7.85112047195435,1.11061155796051,0.74947243928909,1.16521787643433
470,3663945387,0.803523,-0.067379,0.318144,-0.498594,-4.40704202651978,-4.23381137847900,7.83771610260010,1.35436749458313,0.76556998491287,1.00134766101837
471,3663962054,0.803521,-0.067325,0.318146,-0.498602,-4.39358091354370,-4.25806427001953,7.83496999740601,1.24509096145630,0.80464226007462,1.05483996868134
472,3663978721,0.803521,-0.067195,0.318096,-0.498652,-4.40048265457153,-4.21423578262329,7.86089706420898,1.95388400554657,0.81291508674622,0.94419300556183
473,3663995388,0.803523,-0.067188,0.318132,-0.498626,-4.41037321090698,-4.19116878509521,7.86886215209961,0.81273585557938,0.81370908021927,1.15772616863251
474,3664012055,0.803541,-0.067219,0.318173,-0.498567,-4.40293645858765,-4.26743841171265,7.85754251480103,0.50845694541931,0.67000901699066,1.30855929851532
475,3664028722,0.803583,-0.067012,0.318087,-0.498582,-4.38613891601562,-4.20445632934570,7.87447214126587,2.45648193359375,0.76936060190201,1.43064200878143
476,3664045389,0.803620,-0.066973,0.318099,-0.498522,-4.41072797775269,-4.19221687316895,7.87222480773926,1.02188909053802,0.72466647624969,1.49299621582031
477,3664062056,0.803670,-0.066862,0.318078,-0.498468,-4.39314460754395,-4.22689199447632,7.82846832275391,1.54387605190277,0.74898582696915,1.66131007671356
478,3664078723,0.803724,-0.066731,0.318047,-0.498419,-4.40860605239868,-4.20237541198730,7.84514570236206,1.69757759571075,0.74748730659485,1.70494103431702
479,3664095390,0.803764,-0.066698,0.318028,-0.498371,-4.43333673477173,-4.21802663803101,7.88472795486450,1.11846172809601,0.51511609554291,1.42715859413147
480,3664112057,0.803776,-0.066700,0.318012,-0.498362,-4.44534778594971,-4.21933650970459,7.88048076629639,0.99402242898941,0.50772690773010,1.02090299129486
481,3664128724,0.803771,-0.066739,0.318028,-0.498353,-4.42409706115723,-4.21685886383057,7.89506673812866,0.70142304897308,0.61296963691711,0.85317832231522
482,3664145391,0.803780,-0.066736,0.318036,-0.498334,-4.39002513885498,-4.22755718231201,7.84766101837158,0.90266191959381,0.64480614662170,1.11166167259216
483,3664162058,0.803790,-0.066646,0.318024,-0.498338,-4.38543701171875,-4.20497035980225,7.83044767379761,1.48859083652496,0.82062447071075,1.18823063373566
484,3664178725,0.803812,-0.066588,0.318041,-0.498300,-4.39388799667358,-4.19019556045532,7.83101272583008,1.16829121112823,0.86854583024979,1.34373819828033
485,3664195392,0.803828,-0.066508,0.318055,-0.498276,-4.39259386062622,-4.19328403472900,7.84876203536987,1.29958188533783,0.92316472530365,1.33578538894653
486,3664212059,0.803849,-0.066490,0.318084,-0.498226,-4.41247463226318,-4.23231601715088,7.86058425903320,0.84225445985794,0.75937181711197,1.39035344123840
487,3664228726,0.803869,-0.066412,0.318043,-0.498229,-4.41340970993042,-4.23753070831299,7.85396528244019,1.53885567188263,0.61238038539886,1.17062187194824
488,3664245393,0.803882,-0.066362,0.318012,-0.498236,-4.44012641906738,-4.17501592636108,7.88143634796143,1.38216996192932,0.60917878150940,1.02720355987549
489,3664262060,0.803874,-0.066471,0.318067,-0.498199,-4.41478013992310,-4.22652769088745,7.86788129806519,0.06786725670099,0.54299563169479,0.94154202938080
490,3664278727,0.803877,-0.066459,0.318037,-0.498214,-4.40768003463745,-4.23997211456299,7.83336114883423,1.16056895256042,0.49864724278450,0.89490127563477
491,3664295394,0.803882,-0.066466,0.318019,-0.498216,-4.40806484222412,-4.19078445434570,7.86158943176270,0.97821950912476,0.47654354572296,0.95542407035828
492,3664312061,0.803881,-0.066540,0.318032,-0.498201,-4.40915727615356,-4.21820116043091,7.85587263107300,0.48678854107857,0.45148143172264,0.85333186388016
493,3664328728,0.803896,-0.066450,0.317977,-0.498223,-4.39088201522827,-4.18504571914673,7.85375595092773,1.70759224891663,0.61225229501724,1.04335248470306
494,3664345395,0.803913,-0.066484,0.318023,-0.498162,-4.40057849884033,-4.20658636093140,7.85243082046509,0.46684908866882,0.67647624015808,1.33486342430115
495,3664362062,0.803944,-0.066459,0.318032,-0.498110,-4.42179393768311,-4.23695230484009,7.85052537918091,0.95535999536514,0.64884006977081,1.43128240108490
496,3664378729,0.803957,-0.066375,0.318002,-0.498119,-4.44686889648438,-4.21220922470093,7.85282707214355,1.54773044586182,0.72077333927155,1.12871956825256
497,3664395396,0.803963,-0.066396,0.318027,-0.498090,-4.41977787017822,-4.20379209518433,7.87275791168213,0.71561235189438,0.67496502399445,1.07015621662140
498,3664412063,0.803981,-0.066371,0.318024,-0.498066,-4.39578008651733,-4.24997282028198,7.83890676498413,1.07668757438660,0.65873944759369,1.17294013500214
499,3664428730,0.803992,-0.066284,0.317972,-0.498093,-4.40438318252563,-4.19596338272095,7.84121608734131,1.68160808086395,0.61851465702057,1.01684331893921
500,3664445397,0.803999,-0.066279,0.317975,-0.498081,-4.40761184692383,-4.18164014816284,7.85258722305298,0.94519191980362,0.63009154796600,1.07148802280426
501,3664462064,0.804005,-0.066328,0.318022,-0.498035,-4.39981269836426,-4.22843170166016,7.85424900054932,0.42100238800049,0.67058533430099,1.16063308715820
502,3664478731,0.804028,-0.066241,0.317986,-0.498033,-4.40594863891602,-4.21024465560913,7.86021518707275,1.55412113666534,0.65667766332626,1.24099314212799
503,3664495398,0.804031,-0.066250,0.318012,-0.498010,-4.41697740554810,-4.20347118377686,7.84957599639893,0.76596701145172,0.70915800333023,1.09259295463562
504,3664512065,0.804047,-0.066270,0.318041,-0.497963,-4.42895412445068,-4.22890996932983,7.85541820526123,0.64999276399612,0.65386021137238,1.24062156677246
505,3664528732,0.804040,-0.066262,0.318052,-0.497968,-4.41319656372070,-4.21019124984741,7.85446119308472,0.94766348600388,0.70444530248642,0.97103500366211
506,3664545399,0.804041,-0.066260,0.318040,-0.497975,-4.42279338836670,-4.20977210998535,7.85086488723755,1.02632009983063,0.57191234827042,0.91339361667633
507,3664562066,0.804033,-0.066261,0.318060,-0.497975,-4.40923976898193,-4.19545173645020,7.84606361389160,0.87776643037796,0.74305647611618,0.94118350744247
508,3664578733,0.804034,-0.066297,0.318079,-0.497956,-4.41853141784668,-4.20903873443604,7.84343576431274,0.66366988420486,0.60140544176102,0.98514765501022
509,3664595400,0.804034,-0.066274,0.318063,-0.497969,-4.40961790084839,-4.22132253646851,7.82982873916626,1.16829121112823,0.60830795764923,0.92868441343307
510,3664612067,0.804024,-0.066258,0.318049,-0.497996,-4.41153097152710,-4.18276071548462,7.86684465408325,1.12440395355225,0.61886042356491,0.84124279022217
511,3664628734,0.804021,-0.066283,0.318080,-0.497979,-4.40072727203369,-4.21217250823975,7.84870576858521,0.67701411247253,0.70239633321762,1.00271797180176
512,3664645401,0.804017,-0.066261,0.318082,-0.497986,-4.40619897842407,-4.21851682662964,7.84434890747070,1.08659970760345,0.72142654657364,0.95300370454788
513,3664662068,0.804034,-0.066217,0.318067,-0.497974,-4.40763998031616,-4.19272661209106,7.85328483581543,1.23033797740936,0.64712405204773,1.16594767570496
514,3664678735,0.804040,-0.066226,0.318104,-0.497940,-4.40790224075317,-4.20496654510498,7.86020660400391,0.71209073066711,0.76276546716690,1.16853463649750
515,3664695402,0.804056,-0.066154,0.318093,-0.497931,-4.42197084426880,-4.19404315948486,7.85373926162720,1.37326955795288,0.76545459032059,1.21960616111755
516,3664712069,0.804062,-0.066185,0.318130,-0.497892,-4.42124080657959,-4.21535491943359,7.86555290222168,0.58115857839584,0.69211280345917,1.13911843299866
517,3664728736,0.804072,-0.066129,0.318107,-0.497898,-4.42720079421997,-4.22883939743042,7.86021518707275,1.38689565658569,0.68891113996506,1.02996981143951
518,3664745403,0.804077,-0.066089,0.318082,-0.497912,-4.41722583770752,-4.18638038635254,7.85614871978760,1.28735208511353,0.60946059226990,0.98408478498459
519,3664762070,0.804072,-0.066155,0.318123,-0.497886,-4.42531156539917,-4.21924448013306,7.85679197311401,0.39729779958725,0.62005138397217,0.95600032806396
520,3664778737,0.804084,-0.066128,0.318106,-0.497881,-4.43390226364136,-4.22969627380371,7.83399438858032,1.15227043628693,0.58382225036621,1.09571766853333
521,3664795404,0.804093,-0.066037,0.318063,-0.497906,-4.42051458358765,-4.18635463714600,7.87367105484009,1.65123140811920,0.67305696010590,1.04978132247925
522,3664812071,0.804086,-0.066079,0.318107,-0.497883,-4.42209196090698,-4.18669700622559,7.87301969528198,0.51491129398346,0.72134971618652,0.99755704402924
523,3664828738,0.804097,-0.066079,0.318132,-0.497849,-4.41518020629883,-4.23136138916016,7.85614633560181,0.81109654903412,0.72460246086121,1.18044447898865
524,3664845405,0.804111,-0.065990,0.318106,-0.497856,-4.41158628463745,-4.18883466720581,7.86814355850220,1.56626129150391,0.75960218906403,1.14676368236542
525,3664862072,0.804124,-0.066054,0.318159,-0.497792,-4.42129564285278,-4.20766544342041,7.84715461730957,0.29313096404076,0.64317977428436,1.23193883895874
526,3664878739,0.804114,-0.066050,0.318166,-0.497804,-4.43185615539551,-4.24567413330078,7.85889339447021,0.97409576177597,0.70047527551651,0.87334817647934
527,3664895406,0.804104,-0.066021,0.318146,-0.497836,-4.44802379608154,-4.17987489700317,7.90326642990112,1.24899673461914,0.64300036430359,0.79981422424316
528,3664912073,0.804064,-0.066125,0.318209,-0.497847,-4.41433763504028,-4.19413661956787,7.86036300659180,0.18993738293648,0.72587031126022,0.53417199850082
529,3664928740,0.804059,-0.066133,0.318233,-0.497839,-4.40680170059204,-4.22778606414795,7.84099912643433,0.80351513624191,0.72019708156586,0.99686545133591
530,3664945407,0.804055,-0.066017,0.318184,-0.497892,-4.42232847213745,-4.18451929092407,7.83849620819092,1.83629620075226,0.74432426691055,0.95710182189941
531,3664962074,0.804055,-0.066061,0.318232,-0.497855,-4.41267490386963,-4.18254899978638,7.86397123336792,0.47677403688431,0.72640824317932,1.07157766819000
532,3664978741,0.804052,-0.066068,0.318240,-0.497855,-4.41247558593750,-4.23092699050903,7.85358524322510,0.84888797998428,0.60418432950974,1.00297403335571
533,3664995408,0.804058,-0.065967,0.318183,-0.497895,-4.41853427886963,-4.18213844299316,7.86007547378540,1.75483489036560,0.61732369661331,1.03204452991486
534,3665012075,0.804048,-0.066021,0.318211,-0.497885,-4.41931104660034,-4.18637990951538,7.84990358352661,0.50992965698242,0.58026212453842,0.91715878248215
535,3665028742,0.804061,-0.066019,0.318199,-0.497873,-4.43494510650635,-4.21381998062134,7.84264898300171,0.99132031202316,0.53335237503052,1.06810712814331
536,3665045409,0.804065,-0.066025,0.318196,-0.497868,-4.42476415634155,-4.21194839477539,7.84440279006958,0.94366782903671,0.58567923307419,0.96014970541000
537,3665062076,0.804054,-0.066032,0.318191,-0.497887,-4.41882181167603,-4.21874952316284,7.86288642883301,0.95215857028961,0.58621710538864,0.82942241430283
538,3665078743,0.804042,-0.066072,0.318192,-0.497901,-4.43298530578613,-4.20366144180298,7.86998367309570,0.75572186708450,0.51799768209457,0.75953823328018
539,3665095410,0.804018,-0.066087,0.318190,-0.497939,-4.41077852249146,-4.20858621597290,7.85301876068115,0.92595678567886,0.59890812635422,0.67401742935181
540,3665112077,0.804007,-0.066100,0.318203,-0.497946,-4.40595960617065,-4.20346021652222,7.83445692062378,0.84513580799103,0.67127686738968,0.87567901611328
541,3665128744,0.804012,-0.066037,0.318204,-0.497945,-4.41785240173340,-4.19779682159424,7.84705448150635,1.29355013370514,0.82222527265549,1.13071739673615
542,3665145411,0.804019,-0.066017,0.318216,-0.497930,-4.44627285003662,-4.21940231323242,7.86763429641724,0.99929863214493,0.74269783496857,1.10944604873657
543,3665162078,0.804029,-0.065986,0.318185,-0.497938,-4.43292760848999,-4.20679950714111,7.85331201553345,1.27306020259857,0.54468613862991,0.97016435861588
544,3665178745,0.804005,-0.066040,0.318211,-0.497953,-4.41785669326782,-4.21055173873901,7.84430694580078,0.58292579650879,0.63467627763748,0.71160399913788
545,3665195412,0.803993,-0.066042,0.318204,-0.497976,-4.42801332473755,-4.21892404556274,7.85735416412354,0.98001229763031,0.57516521215439,0.84559696912766
546,3665212079,0.803989,-0.066044,0.318188,-0.497992,-4.42163038253784,-4.19659376144409,7.86772584915161,1.03414475917816,0.54513424634933,0.83845090866089
547,3665228746,0.803994,-0.066050,0.318192,-0.497981,-4.41869449615479,-4.20126104354858,7.87186527252197,0.87593513727188,0.59278672933578,1.04650294780731
548,3665245413,0.804006,-0.066007,0.318168,-0.497983,-4.42261791229248,-4.20968818664551,7.86406040191650,1.27567267417908,0.59810137748718,1.09338688850403
549,3665262080,0.804027,-0.065942,0.318132,-0.497981,-4.40012264251709,-4.19675874710083,7.85071277618408,1.46429717540741,0.61838662624359,1.12709319591522
550,3665278747,0.804023,-0.065959,0.318158,-0.497968,-4.41651725769043,-4.19746398925781,7.85178184509277,0.74678313732147,0.70911961793900,0.98784983158112
551,3665295414,0.804034,-0.065933,0.318147,-0.497961,-4.42853260040283,-4.21589851379395,7.86754035949707,1.11736047267914,0.60919165611267,1.11423575878143
552,3665312081,0.804041,-0.065876,0.318123,-0.497972,-4.41830730438232,-4.20205783843994,7.87348270416260,1.37059319019318,0.66852343082428,1.04292976856232
553,3665328748,0.804045,-0.065888,0.318124,-0.497963,-4.43585538864136,-4.20229768753052,7.84876775741577,0.90813022851944,0.60606688261032,0.93720066547394
554,3665345415,0.804034,-0.065892,0.318124,-0.497981,-4.43283653259277,-4.20238590240479,7.87118053436279,0.98377746343613,0.65010797977448,0.79357755184174
555,3665362082,0.804037,-0.065868,0.318108,-0.497990,-4.40470123291016,-4.19579935073853,7.85171794891357,1.14897930622101,0.60027843713760,0.98691493272781
556,3665378749,0.804044,-0.065797,0.318085,-0.498002,-4.41960477828979,-4.19065666198730,7.86266613006592,1.44927549362183,0.72136241197586,1.06896519660950
557,3665395416,0.804036,-0.065815,0.318104,-0.498000,-4.41559123992920,-4.18731927871704,7.87427186965942,0.78641879558563,0.67806422710419,0.91403406858444
558,3665412083,0.804042,-0.065739,0.318082,-0.498015,-4.41970300674438,-4.18558216094971,7.84101200103760,1.47484958171844,0.74629640579224,1.07007932662964
559,3665428750,0.804043,-0.065747,0.318105,-0.497999,-4.41355133056641,-4.19046115875244,7.85640096664429,0.78290975093842,0.69133150577545,1.07837784290314
560,3665445417,0.804050,-0.065718,0.318116,-0.497983,-4.42893314361572,-4.21413850784302,7.85350418090820,1.05011427402496,0.75999933481216,1.13324034214020
561,3665462084,0.804056,-0.065636,0.318098,-0.497997,-4.44808101654053,-4.18169021606445,7.89240550994873,1.48750209808350,0.77438062429428,1.10701262950897
562,3665478751,0.804063,-0.065672,0.318124,-0.497963,-4.42387914657593,-4.19837999343872,7.86950874328613,0.60791099071503,0.62368845939636,1.09144032001495
563,3665495418,0.804076,-0.065632,0.318105,-0.497960,-4.42316913604736,-4.22609472274780,7.86122941970825,1.25310778617859,0.63015568256378,1.07594478130341
564,3665512085,0.804086,-0.065589,0.318095,-0.497955,-4.43606185913086,-4.19633674621582,7.86439990997314,1.22066938877106,0.69006383419037,1.11765503883362
565,3665528752,0.804082,-0.065586,0.318098,-0.497961,-4.41165447235107,-4.18230628967285,7.83614587783813,0.95098036527634,0.63340848684311,0.96277505159378
566,3665545419,0.804084,-0.065570,0.318108,-0.497953,-4.40691041946411,-4.18159770965576,7.85623502731323,0.98156189918518,0.71381956338882,1.06052589416504
567,3665562086,0.804089,-0.065508,0.318083,-0.497969,-4.41593980789185,-4.19833660125732,7.87808275222778,1.42933583259583,0.69161325693130,1.00273060798645
568,3665578753,0.804094,-0.065515,0.318092,-0.497955,-4.44040822982788,-4.21305894851685,7.86536169052124,0.82769364118576,0.60254520177841,1.09533357620239
569,3665595420,0.804109,-0.065376,0.318024,-0.497992,-4.40923309326172,-4.17495489120483,7.84214925765991,2.05730819702148,0.71673941612244,1.06536674499512
570,3665612087,0.804099,-0.065381,0.318058,-0.497985,-4.42859792709351,-4.19401741027832,7.87644529342651,0.79794436693192,0.80953419208527,0.96045696735382
571,3665628754,0.804119,-0.065334,0.318045,-0.497967,-4.43685722351074,-4.20997238159180,7.85533046722412,1.22864747047424,0.65261793136597,1.23479449748993
572,3665645421,0.804125,-0.065244,0.318031,-0.497980,-4.41336297988892,-4.17567682266235,7.86596250534058,1.48677229881287,0.80762600898743,1.17305517196655
573,3665662088,0.804134,-0.065264,0.318067,-0.497939,-4.42845392227173,-4.22248792648315,7.84530258178711,0.62585276365280,0.70586681365967,1.20186960697174
574,3665678755,0.804146,-0.065150,0.317997,-0.497979,-4.44162988662720,-4.17265081405640,7.86915683746338,1.90655171871185,0.59854960441589,1.02758789062500
575,3665695422,0.804148,-0.065199,0.318002,-0.497965,-4.46549892425537,-4.16358041763306,7.89306402206421,0.65208011865616,0.48105135560036,0.91416215896606
576,3665712089,0.804146,-0.065271,0.318024,-0.497946,-4.42605018615723,-4.21550655364990,7.85876989364624,0.45230111479759,0.50306546688080,0.88738405704498
577,3665728756,0.804162,-0.065218,0.317996,-0.497945,-4.41310024261475,-4.19202232360840,7.85353088378906,1.40852558612823,0.65653669834137,1.03893435001373
578,3665745423,0.804174,-0.065227,0.317997,-0.497924,-4.42292451858521,-4.16445398330688,7.85064029693604,0.88710230588913,0.58970040082932,1.04583692550659
579,3665762090,0.804208,-0.065215,0.317981,-0.497880,-4.42096662521362,-4.19866418838501,7.82421445846558,0.99636614322662,0.47742712497711,1.34089541435242
580,3665778757,0.804230,-0.065177,0.317957,-0.497865,-4.42522811889648,-4.20375919342041,7.85982847213745,1.25086653232574,0.58197814226151,1.14910733699799
581,3665795424,0.804258,-0.065143,0.317953,-0.497827,-4.46900129318237,-4.22235679626465,7.85978603363037,1.07266604900360,0.62674903869629,1.36027097702026
582,3665812091,0.804308,-0.064894,0.317841,-0.497850,-4.45145845413208,-4.12680149078369,7.87749099731445,2.78173780441284,0.74618113040924,1.50735211372375
583,3665828758,0.804352,-0.064891,0.317882,-0.497754,-4.40327119827271,-4.11456823348999,7.92553567886353,0.64166855812073,0.71460068225861,1.66836619377136
584,3665845425,0.804473,-0.064960,0.317867,-0.497559,-4.40226697921753,-4.20073175430298,7.90595865249634,0.26539239287376,-0.04063455015421,2.28193163871765
585,3665862092,0.804586,-0.064958,0.317703,-0.497481,-4.46671628952026,-4.10387372970581,7.94463682174683,1.40121316909790,-0.56890928745270,1.72289586067200
586,3665878759,0.804715,-0.065320,0.317706,-0.497224,-4.45206451416016,-4.16897249221802,7.89833545684814,-1.55198884010315,-0.98903447389603,2.02034878730774
587,3665895426,0.804808,-0.065151,0.317506,-0.497222,-4.42174768447876,-4.33044528961182,7.79091405868530,2.60057926177979,-0.12481068819761,1.58718705177307
588,3665912093,0.804920,-0.065330,0.317411,-0.497077,-4.48577690124512,-4.11923027038574,7.89758253097534,0.00886839814484,-0.84033983945847,1.73237252235413
589,3665928760,0.804966,-0.065682,0.317395,-0.496967,-4.40342473983765,-4.16962432861328,7.87801170349121,-1.19546008110046,-0.85639905929565,1.01802170276642
590,3665945427,0.805049,-0.065971,0.317304,-0.496853,-4.42514848709106,-4.22210311889648,7.85158634185791,-0.54099148511887,-1.10313904285431,1.20522475242615
591,3665962094,0.805132,-0.066125,0.317153,-0.496794,-4.36670732498169,-4.17296361923218,7.84868907928467,0.50388497114182,-0.97431999444962,1.20121634006500
592,3665978761,0.805119,-0.066398,0.317185,-0.496758,-4.42017173767090,-4.15815496444702,7.85648679733276,-0.71629750728607,-0.09741789847612,0.48751851916313
593,3665995428,0.805105,-0.066685,0.317229,-0.496714,-4.38038015365601,-4.26105451583862,7.84022998809814,-0.88975954055786,-0.10481997579336,0.55402195453644
594,3666012095,0.805039,-0.066695,0.317217,-0.496828,-4.38829803466797,-4.24527120590210,7.81276988983154,1.14768576622009,0.70233219861984,0.09607964009047
595,3666028762,0.804968,-0.066708,0.317269,-0.496907,-4.39099597930908,-4.20792627334595,7.87941932678223,0.84407287836075,1.04729688167572,0.27652111649513
596,3666045429,0.804866,-0.066729,0.317353,-0.497017,-4.42327547073364,-4.22546720504761,7.89977216720581,0.74278748035431,1.28667318820953,0.00236277142540
597,3666062096,0.804751,-0.066722,0.317394,-0.497177,-4.41943550109863,-4.20041799545288,7.86969709396362,1.13398313522339,1.18362057209015,-0.25909808278084
598,3666078763,0.804648,-0.066742,0.317448,-0.497306,-4.39308309555054,-4.18530941009521,7.84880781173706,0.88637220859528,1.11678409576416,-0.10376984626055
599,3666095430,0.804580,-0.066754,0.317508,-0.497376,-4.38594293594360,-4.18490171432495,7.83478403091431,0.82427436113358,1.11277580261230,0.30876749753952
600,3666112097,0.804521,-0.066748,0.317546,-0.497448,-4.40224695205688,-4.18348455429077,7.88702678680420,0.98567271232605,1.01198971271515,0.39386570453644
601,3666128764,0.804465,-0.066808,0.317622,-0.497483,-4.41970825195312,-4.21014499664307,7.86878395080566,0.40134462714195,0.95799827575684,0.50916123390198
602,3666145431,0.804444,-0.066834,0.317652,-0.497494,-4.42562389373779,-4.24607467651367,7.86347198486328,0.72384679317474,0.74618107080460,0.78273046016693
603,3666162098,0.804434,-0.066764,0.317615,-0.497543,-4.42378282546997,-4.19113636016846,7.88848114013672,1.55085515975952,0.67770558595657,0.83307212591171
604,3666178765,0.804445,-0.066890,0.317640,-0.497493,-4.42905569076538,-4.17094755172729,7.88831377029419,0.07442409545183,0.28640758991241,1.00031030178070
605,3666195432,0.804463,-0.066984,0.317641,-0.497450,-4.38038921356201,-4.21675872802734,7.84500312805176,0.34968376159668,0.25202253460884,1.04232800006866
606,3666212099,0.804518,-0.066976,0.317588,-0.497396,-4.40491819381714,-4.19892692565918,7.81760215759277,1.09055662155151,0.20585566759109,1.44681644439697
607,3666228766,0.804575,-0.066961,0.317558,-0.497324,-4.39642763137817,-4.21418237686157,7.86968803405762,0.96552824974060,0.30757650732994,1.64491784572601
608,3666245433,0.804630,-0.066981,0.317539,-0.497245,-4.40215682983398,-4.19463253021240,7.87347173690796,0.76992422342300,0.28877681493759,1.53201723098755
609,3666262100,0.804671,-0.067033,0.317521,-0.497184,-4.42105054855347,-4.21699762344360,7.88756418228149,0.59796047210693,0.21446152031422,1.34235525131226
610,3666278767,0.804705,-0.067131,0.317520,-0.497117,-4.40659904479980,-4.22509956359863,7.87331819534302,0.28616428375244,0.16967773437500,1.23279678821564
611,3666295434,0.804711,-0.067278,0.317541,-0.497073,-4.40874671936035,-4.26944351196289,7.87341880798340,-0.03948197886348,0.18980932235718,0.94022303819656
612,3666312101,0.804705,-0.067297,0.317496,-0.497110,-4.40145874023438,-4.22820520401001,7.85812807083130,1.08894300460815,0.33640354871750,0.66765260696411
613,3666328768,0.804677,-0.067383,0.317499,-0.497141,-4.40207576751709,-4.15197753906250,7.84963464736938,0.51418131589890,0.40978395938873,0.52700048685074
614,3666345435,0.804630,-0.067630,0.317607,-0.497114,-4.40152311325073,-4.21278381347656,7.87684392929077,-0.87752950191498,0.44778037071228,0.48698064684868
615,3666362102,0.804610,-0.067759,0.317603,-0.497132,-4.40494394302368,-4.25541162490845,7.85406684875488,0.28284743428230,0.20230828225613,0.51940631866455
616,3666378769,0.804584,-0.067926,0.317604,-0.497150,-4.40842676162720,-4.22090816497803,7.88081645965576,0.05150073394179,0.11115270853043,0.42083585262299
617,3666395436,0.804559,-0.068101,0.317608,-0.497165,-4.41800308227539,-4.20480394363403,7.88521146774292,-0.01668667234480,0.10170162469149,0.42789214849472
618,3666412103,0.804531,-0.068380,0.317624,-0.497161,-4.40154600143433,-4.21706724166870,7.87834882736206,-0.67594468593597,-0.20052181184292,0.29979023337364
619,3666428770,0.804530,-0.068682,0.317598,-0.497138,-4.41490888595581,-4.24044990539551,7.85694646835327,-0.68257844448090,-0.57490271329880,0.43192616105080
620,3666445437,0.804529,-0.068974,0.317550,-0.497130,-4.38070487976074,-4.22522878646851,7.88171529769897,-0.52716052532196,-0.65207368135452,0.35827684402466
621,3666462104,0.804535,-0.069357,0.317579,-0.497048,-4.38914489746094,-4.27953338623047,7.83663415908813,-1.49238812923431,-0.63189095258713,0.70600771903992
622,3666478771,0.804577,-0.069541,0.317472,-0.497023,-4.35538053512573,-4.21973562240601,7.84580993652344,0.27611127495766,-0.70419555902481,0.78097593784332
623,3666495438,0.804613,-0.069852,0.317478,-0.496918,-4.34315252304077,-4.21896505355835,7.81884050369263,-1.00085461139679,-0.53446018695831,0.98915600776672
624,3666512105,0.804658,-0.070104,0.317466,-0.496817,-4.39134550094604,-4.28111124038696,7.85959100723267,-0.58750408887863,-0.44591712951660,1.10437476634979
625,3666528772,0.804680,-0.070329,0.317442,-0.496763,-4.39707279205322,-4.25799608230591,7.87224817276001,-0.29250985383987,-0.34059768915176,0.80473190546036
626,3666545439,0.804680,-0.070644,0.317469,-0.496701,-4.41429281234741,-4.28274488449097,7.89195919036865,-1.03997790813446,-0.35777097940445,0.67401742935181
627,3666562106,0.804671,-0.070955,0.317494,-0.496657,-4.36403751373291,-4.28886413574219,7.84260845184326,-0.96535533666611,-0.32114484906197,0.53217422962189
628,3666578773,0.804656,-0.071141,0.317491,-0.496657,-4.34023141860962,-4.24794721603394,7.83964347839355,-0.06423665583134,0.01167298853397,0.48353576660156
629,3666595440,0.804657,-0.071368,0.317536,-0.496594,-4.33357667922974,-4.27177810668945,7.82984638214111,-0.62254226207733,0.02195648476481,0.90043365955353
630,3666612107,0.804709,-0.071481,0.317412,-0.496573,-4.33647394180298,-4.32029867172241,7.79989433288574,0.72652345895767,-0.58473795652390,0.96254450082779
631,3666628774,0.804731,-0.071499,0.317353,-0.496571,-4.35119485855103,-4.24061822891235,7.84429168701172,1.08173310756683,0.20335842669010,0.94711279869080
632,3666645441,0.804699,-0.071570,0.317413,-0.496575,-4.35830402374268,-4.24190902709961,7.87640619277954,0.36788159608841,0.79738086462021,0.67729580402374
633,3666662108,0.804653,-0.071754,0.317560,-0.496529,-4.37996339797974,-4.29339313507080,7.84986162185669,-0.70880585908890,0.86576682329178,0.76138228178024
634,3666678775,0.804603,-0.071770,0.317627,-0.496564,-4.36559629440308,-4.32447052001953,7.81935310363770,0.68993568420410,1.05629980564117,0.60120052099228
635,3666695442,0.804535,-0.071725,0.317696,-0.496638,-4.36125373840332,-4.27361154556274,7.84862709045410,1.04029166698456,1.28699338436127,0.54181742668152
636,3666712109,0.804489,-0.071703,0.317785,-0.496658,-4.34325647354126,-4.28081369400024,7.83431291580200,0.78430569171906,1.29068148136139,0.81087881326675
637,3666728776,0.804440,-0.071570,0.317860,-0.496709,-4.33719015121460,-4.28868865966797,7.79590511322021,1.52412855625153,1.61935639381409,0.83098483085632
638,3666745443,0.804399,-0.071354,0.317930,-0.496761,-4.34459590911865,-4.27915143966675,7.80321645736694,1.99718236923218,1.84879517555237,1.05710649490356
639,3666762110,0.804361,-0.071094,0.318041,-0.496789,-4.36246156692505,-4.28249406814575,7.81254577636719,2.05518221855164,2.21600413322449,1.29904389381409
640,3666778777,0.804332,-0.070753,0.318133,-0.496825,-4.39359283447266,-4.29750490188599,7.84412097930908,2.58824706077576,2.37486743927002,1.46358036994934
641,3666795444,0.804293,-0.070415,0.318222,-0.496879,-4.41682291030884,-4.28916454315186,7.85324668884277,2.61741924285889,2.37274122238159,1.31807434558868
642,3666812111,0.804237,-0.070092,0.318285,-0.496976,-4.40639209747314,-4.27065229415894,7.84867668151855,2.70238947868347,2.23066759109497,0.98732477426529
643,3666828778,0.804156,-0.069888,0.318393,-0.497066,-4.42056512832642,-4.25400686264038,7.85484600067139,1.85870730876923,2.11971354484558,0.71495926380157
644,3666845445,0.804089,-0.069701,0.318467,-0.497154,-4.39861822128296,-4.24656009674072,7.86052036285400,1.88577997684479,1.84693825244904,0.70995199680328
645,3666862112,0.804031,-0.069574,0.318545,-0.497215,-4.38166379928589,-4.23832035064697,7.85251331329346,1.48674690723419,1.63084399700165,0.75555551052094
646,3666878779,0.804003,-0.069490,0.318610,-0.497231,-4.38965797424316,-4.26658391952515,7.84994220733643,1.18570780754089,1.30026078224182,1.04683578014374
647,3666895446,0.804016,-0.069332,0.318615,-0.497229,-4.39396953582764,-4.24855470657349,7.83595895767212,1.82010900974274,1.16378343105316,1.35539197921753
648,3666912113,0.804023,-0.069287,0.318659,-0.497194,-4.41106176376343,-4.24406003952026,7.85834884643555,0.98020440340042,0.98490434885025,1.29819881916046
649,3666928780,0.804019,-0.069324,0.318716,-0.497160,-4.42711448669434,-4.28858709335327,7.88165187835693,0.46914136409760,0.79245042800903,1.10253059864044
650,3666945447,0.804025,-0.069327,0.318716,-0.497150,-4.41593313217163,-4.27981281280518,7.85757112503052,0.95933008193970,0.62797862291336,0.96814090013504
651,3666962114,0.804032,-0.069342,0.318720,-0.497134,-4.40212106704712,-4.24957942962646,7.83460950851440,0.83402001857758,0.57823872566223,1.02200436592102
652,3666978781,0.804048,-0.069387,0.318702,-0.497113,-4.41445636749268,-4.26152420043945,7.84072828292847,0.73644834756851,0.32349482178688,1.01684343814850
653,3666995448,0.804049,-0.069438,0.318693,-0.497110,-4.40985536575317,-4.24625062942505,7.84298419952393,0.70062899589539,0.39298203587532,0.86590772867203
654,3667012115,0.804055,-0.069614,0.318737,-0.497049,-4.40092897415161,-4.27211999893188,7.83635711669922,-0.29778602719307,0.22211973369122,0.94928979873657
655,3667028782,0.804047,-0.069730,0.318727,-0.497051,-4.41326761245728,-4.27477931976318,7.82782793045044,0.32993638515472,0.17121449112892,0.69673579931259
656,3667045449,0.804036,-0.069895,0.318720,-0.497050,-4.41333675384521,-4.24224376678467,7.87623167037964,0.07114567607641,0.04636538401246,0.54345667362213
657,3667062116,0.804011,-0.070108,0.318749,-0.497041,-4.38934373855591,-4.25507879257202,7.82800292968750,-0.38730239868164,0.06843072921038,0.53305792808533
658,3667078783,0.804020,-0.070256,0.318759,-0.497000,-4.37099599838257,-4.28304767608643,7.81016969680786,0.02295538224280,0.13472919166088,0.89089292287827
659,3667095450,0.804051,-0.070325,0.318734,-0.496956,-4.38139247894287,-4.30113649368286,7.81685590744019,0.57189959287643,0.15784467756748,1.15749561786652
660,3667112117,0.804067,-0.070374,0.318687,-0.496952,-4.39020776748657,-4.26244831085205,7.83891487121582,0.83636355400085,0.14654947817326,0.91653126478195
661,3667128784,0.804068,-0.070491,0.318710,-0.496921,-4.38312244415283,-4.28292989730835,7.83362579345703,0.16501621901989,0.32755437493324,0.89374864101410
662,3667145451,0.804059,-0.070517,0.318704,-0.496936,-4.38306903839111,-4.27656745910645,7.81921052932739,0.84558415412903,0.50984001159668,0.81405490636826
663,3667162118,0.804064,-0.070522,0.318706,-0.496924,-4.38644599914551,-4.27803850173950,7.82966279983521,0.91115260124207,0.61284148693085,1.01428210735321
664,3667178785,0.804063,-0.070467,0.318682,-0.496949,-4.38213729858398,-4.25703716278076,7.83319044113159,1.38293850421906,0.67906314134598,0.94341176748276
665,3667195452,0.804064,-0.070445,0.318683,-0.496951,-4.38354969024658,-4.27056503295898,7.83414649963379,1.08679151535034,0.70491904020309,0.99607133865356
666,3667212119,0.804044,-0.070440,0.318705,-0.496969,-4.39178848266602,-4.27256345748901,7.83834600448608,0.92799293994904,0.79835420846939,0.83074152469635
667,3667228786,0.804031,-0.070405,0.318714,-0.496989,-4.39150333404541,-4.28304862976074,7.81370353698730,1.15319252014160,0.81803762912750,0.89201980829239
668,3667245453,0.804013,-0.070334,0.318700,-0.497038,-4.38620376586914,-4.25948190689087,7.83040809631348,1.51238477230072,0.86969828605652,0.74537426233292
669,3667262120,0.803990,-0.070303,0.318733,-0.497059,-4.38299846649170,-4.27512359619141,7.86178779602051,1.04314768314362,0.96187847852707,0.86972403526306
670,3667278787,0.803988,-0.070255,0.318737,-0.497067,-4.40840053558350,-4.27791404724121,7.84758853912354,1.19004940986633,0.78100180625916,1.07148802280426
671,3667295454,0.803987,-0.070130,0.318710,-0.497103,-4.38991975784302,-4.25359439849854,7.82448148727417,1.81266844272614,0.91339361667633,1.02494978904724
672,3667312121,0.803994,-0.070111,0.318768,-0.497058,-4.37772607803345,-4.24055957794189,7.83555412292480,0.75115007162094,0.95240193605423,1.33537578582764
673,3667328788,0.804004,-0.069990,0.318773,-0.497054,-4.39275646209717,-4.27389955520630,7.84078025817871,1.57229328155518,1.00311493873596,1.33682286739349
674,3667345455,0.804025,-0.069907,0.318777,-0.497029,-4.40270423889160,-4.27600383758545,7.84865760803223,1.35070490837097,0.86151522397995,1.35867059230804
675,3667362122,0.804011,-0.069937,0.318808,-0.497029,-4.42516422271729,-4.27945899963379,7.85243082046509,0.67172503471375,0.72120869159698,0.87574297189713
676,3667378789,0.803965,-0.070010,0.318830,-0.497077,-4.41715764999390,-4.27527570724487,7.86037826538086,0.54072892665863,0.59181344509125,0.41791599988937
677,3667395456,0.803916,-0.070059,0.318870,-0.497124,-4.39907121658325,-4.27604007720947,7.82091665267944,0.60482466220856,0.78269201517105,0.49174460768700
678,3667412123,0.803894,-0.070039,0.318900,-0.497144,-4.37529563903809,-4.26601409912109,7.81367969512939,0.99134594202042,0.90842479467392,0.84180617332458
679,3667428790,0.803889,-0.069970,0.318923,-0.497148,-4.37849140167236,-4.26102209091187,7.84455442428589,1.24614095687866,0.97451829910278,1.11242985725403
680,3667445457,0.803887,-0.069903,0.318957,-0.497137,-4.38143825531006,-4.26284980773926,7.83793497085571,1.17251741886139,1.02730619907379,1.19738721847534
681,3667462124,0.803887,-0.069900,0.318987,-0.497119,-4.40204381942749,-4.28624343872070,7.82858943939209,0.81399077177048,0.76824653148651,1.11615657806396
682,3667478791,0.803897,-0.069885,0.318969,-0.497117,-4.40335178375244,-4.28478050231934,7.86554241180420,1.09105610847473,0.54546725749969,1.03351724147797
683,3667495458,0.803904,-0.069917,0.318948,-0.497114,-4.41118478775024,-4.26162338256836,7.84742355346680,0.85083472728729,0.37548860907555,0.91760700941086
684,3667512125,0.803890,-0.070006,0.318947,-0.497125,-4.39667129516602,-4.27579784393311,7.83939743041992,0.44413059949875,0.30766615271568,0.72870045900345
685,3667528792,0.803885,-0.070078,0.318960,-0.497114,-4.40478944778442,-4.29369354248047,7.80869007110596,0.47361081838608,0.43100407719612,0.88899755477905
686,3667545459,0.803877,-0.070141,0.318942,-0.497130,-4.39581489562988,-4.27421426773071,7.85419082641602,0.67651462554932,0.31582376360893,0.72380846738815
687,3667562126,0.803865,-0.070252,0.318938,-0.497136,-4.37783575057983,-4.25184202194214,7.83996534347534,0.34107792377472,0.22314423322678,0.68459546566010
688,3667578793,0.803867,-0.070260,0.318918,-0.497145,-4.37714624404907,-4.22993087768555,7.83650970458984,0.99079525470734,0.46768146753311,0.90873211622238
689,3667595460,0.803869,-0.070383,0.318973,-0.497089,-4.36143589019775,-4.27535438537598,7.84201049804688,-0.03314283117652,0.47781127691269,1.03463125228882
690,3667612127,0.803874,-0.070421,0.318991,-0.497065,-4.38896512985229,-4.28763198852539,7.81350135803223,0.65209287405014,0.58064627647400,1.00972294807434
691,3667628794,0.803872,-0.070485,0.319025,-0.497036,-4.40727138519287,-4.28102016448975,7.84638547897339,0.41792878508568,0.57115674018860,1.00177013874054
692,3667645461,0.803840,-0.070617,0.319062,-0.497045,-4.40827989578247,-4.28206491470337,7.86056804656982,0.08317083865404,0.43051743507385,0.56084764003754
693,3667662128,0.803816,-0.070705,0.319076,-0.497063,-4.40579938888550,-4.27503061294556,7.83721303939819,0.44454038143158,0.45172476768494,0.60467106103897
694,3667678795,0.803791,-0.070757,0.319079,-0.497094,-4.38914775848389,-4.24106836318970,7.83581018447876,0.71967202425003,0.53971719741821,0.57393580675125
695,3667695462,0.803762,-0.070907,0.319159,-0.497068,-4.37043094635010,-4.25144481658936,7.81579303741455,-0.22099916636944,0.59287631511688,0.72497385740280
696,3667712129,0.803737,-0.070977,0.319243,-0.497044,-4.36012268066406,-4.32660579681396,7.81064844131470,0.21312966942787,0.88372129201889,0.90770769119263
697,3667728796,0.803726,-0.070971,0.319261,-0.497052,-4.37980175018311,-4.31609964370728,7.84612274169922,0.92785209417343,0.76204824447632,0.91254848241806
698,3667745463,0.803697,-0.070970,0.319264,-0.497098,-4.38794660568237,-4.25580453872681,7.84201669692993,1.02272152900696,0.70746761560440,0.64187347888947
699,3667762130,0.803653,-0.071127,0.319348,-0.497092,-4.40036487579346,-4.27813673019409,7.84870815277100,-0.21208594739437,0.66285020112991,0.50228422880173
700,3667778797,0.803599,-0.071196,0.319411,-0.497129,-4.40002107620239,-4.32010698318481,7.80638217926025,0.39234170317650,0.84379112720490,0.48632749915123
701,3667795464,0.803593,-0.071226,0.319404,-0.497139,-4.38997745513916,-4.28635215759277,7.80108356475830,0.85785251855850,0.52452892065048,0.77878618240356
702,3667812131,0.803570,-0.071223,0.319413,-0.497170,-4.36883163452148,-4.26572704315186,7.82067918777466,0.99073123931885,0.73734468221664,0.73053175210953
703,3667828798,0.803564,-0.071354,0.319485,-0.497115,-4.39781045913696,-4.33067369461060,7.80814361572266,-0.14191998541355,0.54820787906647,1.00033605098724
704,3667845465,0.803579,-0.071224,0.319397,-0.497165,-4.37650394439697,-4.28061103820801,7.81627368927002,2.08833813667297,0.56744301319122,0.98291939496994
705,3667862132,0.803571,-0.071314,0.319441,-0.497137,-4.39698457717896,-4.25576114654541,7.86540508270264,0.22351561486721,0.54175341129303,0.94365513324738
706,3667878799,0.803576,-0.071369,0.319452,-0.497115,-4.40495538711548,-4.30070543289185,7.81420946121216,0.57031154632568,0.47263750433922,0.98290652036667
707,3667895466,0.803581,-0.071388,0.319452,-0.497105,-4.40318679809570,-4.28530311584473,7.81718540191650,0.82536292076111,0.53006124496460,1.00274360179901
708,3667912133,0.803590,-0.071414,0.319461,-0.497080,-4.39994001388550,-4.30935811996460,7.83779573440552,0.72005629539490,0.53608018159866,1.09489798545837
709,3667928800,0.803594,-0.071356,0.319444,-0.497093,-4.37687349319458,-4.27458238601685,7.82842636108398,1.34239339828491,0.70774924755096,1.05601787567139
710,3667945467,0.803590,-0.071396,0.319466,-0.497080,-4.38008403778076,-4.31553697586060,7.79011154174805,0.62279200553894,0.59801173210144,0.95958620309830
711,3667962134,0.803586,-0.071368,0.319483,-0.497079,-4.38475227355957,-4.30736637115479,7.82061195373535,1.03922891616821,0.80776691436768,1.03724384307861
712,3667978801,0.803582,-0.071309,0.319466,-0.497104,-4.40250682830811,-4.29250621795654,7.81722211837769,1.41167593002319,0.76281654834747,0.90357118844986
713,3667995468,0.803580,-0.071339,0.319491,-0.497087,-4.39872741699219,-4.28244924545288,7.83904600143433,0.66450226306915,0.64802050590515,1.00148868560791
714,3668012135,0.803589,-0.071338,0.319500,-0.497066,-4.38731908798218,-4.28339052200317,7.84524440765381,0.88017410039902,0.63946592807770,1.12700366973877
715,3668028802,0.803592,-0.071333,0.319487,-0.497071,-4.39587068557739,-4.30540227890015,7.81497716903687,1.04460763931274,0.56743019819260,0.93374288082123
716,3668045469,0.803595,-0.071322,0.319486,-0.497069,-4.38973283767700,-4.30539417266846,7.81975698471069,1.01617753505707,0.64337176084518,1.01096522808075
717,3668062136,0.803602,-0.071234,0.319445,-0.497096,-4.39758968353271,-4.25299215316772,7.83380270004272,1.64955377578735,0.69624918699265,1.00206482410431
718,3668078803,0.803592,-0.071273,0.319522,-0.497057,-4.36752033233643,-4.28096532821655,7.80507802963257,0.38720637559891,0.91125506162643,1.09987962245941
719,3668095470,0.803618,-0.071176,0.319510,-0.497038,-4.38049697875977,-4.30324316024780,7.80859136581421,1.51237225532532,0.83222705125809,1.34436571598053
720,3668112137,0.803629,-0.071068,0.319528,-0.497023,-4.40494823455811,-4.27570772171021,7.83784294128418,1.43840289115906,1.03176283836365,1.36627745628357
721,3668128804,0.803613,-0.071111,0.319594,-0.497000,-4.39894485473633,-4.33411264419556,7.81939172744751,0.43656203150749,0.86320555210114,0.97323769330978
722,3668145471,0.803584,-0.071055,0.319595,-0.497056,-4.41474056243896,-4.30445623397827,7.81205892562866,1.36618793010712,0.90028011798859,0.68418568372726
723,3668162138,0.803517,-0.071099,0.319646,-0.497124,-4.40099477767944,-4.29577445983887,7.81739187240601,0.62882375717163,0.90373778343201,0.33477717638016
724,3668178805,0.803460,-0.071094,0.319701,-0.497181,-4.39298295974731,-4.30696249008179,7.80632400512695,0.90008801221848,1.10007190704346,0.47654354572296
725,3668195472,0.803421,-0.071078,0.319735,-0.497224,-4.38092041015625,-4.27909660339355,7.82815027236938,0.97313535213470,0.94467949867249,0.68485158681870
726,3668212139,0.803387,-0.071077,0.319799,-0.497239,-4.38262033462524,-4.28288555145264,7.80318689346313,0.75906431674957,1.05504477024078,0.80351519584656
727,3668228806,0.803371,-0.071032,0.319834,-0.497248,-4.38269472122192,-4.28268861770630,7.80762004852295,1.11218667030334,1.02160739898682,0.94877761602402
728,3668245473,0.803357,-0.070987,0.319857,-0.497263,-4.39696216583252,-4.28689479827881,7.80703926086426,1.13350927829742,0.91740208864212,0.96642482280731
729,3668262140,0.803357,-0.070962,0.319882,-0.497250,-4.39511871337891,-4.30057525634766,7.80896902084351,0.90116351842880,0.76891231536865,1.22559964656830
730,3668278807,0.803366,-0.070925,0.319855,-0.497258,-4.40597629547119,-4.30153417587280,7.81353807449341,1.26492798328400,0.56461280584335,1.04777073860168
731,3668295474,0.803369,-0.070923,0.319845,-0.497261,-4.41348600387573,-4.29070377349854,7.82088232040405,0.99116653203964,0.55593001842499,0.97705399990082
732,3668312141,0.803358,-0.071001,0.319864,-0.497255,-4.40454769134521,-4.29612493515015,7.83842658996582,0.44450196623802,0.47599279880524,0.78736627101898
733,3668328808,0.803355,-0.071065,0.319859,-0.497254,-4.40878200531006,-4.32767629623413,7.81434869766235,0.61478799581528,0.38310831785202,0.81425970792770
734,3668345475,0.803342,-0.071062,0.319811,-0.497306,-4.38578891754150,-4.28515481948853,7.82390451431274,1.24816441535950,0.41745501756668,0.60720670223236
735,3668362142,0.803342,-0.071087,0.319804,-0.497307,-4.39119005203247,-4.26748991012573,7.81572008132935,0.84409856796265,0.50055539608002,0.90167582035065
736,3668378809,0.803351,-0.071098,0.319812,-0.497285,-4.36679601669312,-4.28095340728760,7.79304742813110,0.83010113239288,0.59812694787979,1.08685564994812
737,3668395476,0.803366,-0.071088,0.319797,-0.497271,-4.40767526626587,-4.28413915634155,7.82464933395386,0.94902098178864,0.44527041912079,1.25513112545013
738,3668412143,0.803389,-0.071074,0.319768,-0.497256,-4.40329265594482,-4.29882860183716,7.83047580718994,1.11075234413147,0.44784441590309,1.14098811149597
739,3668428810,0.803385,-0.071164,0.319804,-0.497227,-4.40586614608765,-4.32007551193237,7.80287361145020,0.28951954841614,0.52625775337219,0.89318531751633
740,3668445477,0.803379,-0.071157,0.319789,-0.497246,-4.40369462966919,-4.30916786193848,7.83261203765869,1.07479214668274,0.56968402862549,0.85963267087936
741,3668462144,0.803376,-0.071123,0.319784,-0.497259,-4.39975738525391,-4.26257181167603,7.82146215438843,1.15891706943512,0.69717127084732,0.99774903059006
742,3668478811,0.803374,-0.071193,0.319842,-0.497215,-4.39516973495483,-4.30177307128906,7.82677364349365,0.28652289509773,0.68982046842575,1.05414831638336
743,3668495478,0.803365,-0.071194,0.319874,-0.497210,-4.38463544845581,-4.30387449264526,7.80945730209351,0.80935484170914,0.80337429046631,0.99043679237366
744,3668512145,0.803368,-0.071121,0.319856,-0.497226,-4.38586664199829,-4.30155563354492,7.80940008163452,1.46407949924469,0.77906787395477,1.02713966369629
745,3668528812,0.803355,-0.071101,0.319895,-0.497225,-4.38432264328003,-4.27236795425415,7.81218194961548,0.93110495805740,0.93015724420547,0.97278946638107
746,3668545479,0.803339,-0.071118,0.319947,-0.497215,-4.39515829086304,-4.29134702682495,7.80795383453369,0.66086524724960,0.88624429702759,0.94480770826340
747,3668562146,0.803327,-0.071072,0.319964,-0.497231,-4.40664720535278,-4.29682350158691,7.80399656295776,1.16727972030640,0.89267307519913,0.96058511734009
748,3668578813,0.803309,-0.071082,0.319985,-0.497244,-4.40226364135742,-4.29603719711304,7.82542657852173,0.83321315050125,0.73935538530350,0.83846378326416
749,3668595480,0.803294,-0.071089,0.319997,-0.497260,-4.38825988769531,-4.30124187469482,7.81692600250244,0.91975849866867,0.70827448368073,0.79880249500275
750,3668612147,0.803268,-0.071062,0.320018,-0.497292,-4.39404010772705,-4.30014038085938,7.82208585739136,1.08849489688873,0.90595322847366,0.76180499792099
751,3668628814,0.803252,-0.071058,0.320044,-0.497301,-4.38386440277100,-4.30314588546753,7.81649637222290,0.89668130874634,0.80704975128174,0.89021414518356
752,3668645481,0.803232,-0.070969,0.320027,-0.497357,-4.38304996490479,-4.27140188217163,7.80953407287598,1.60105609893799,0.88208210468292,0.79558801651001
753,3668662148,0.803222,-0.070939,0.320063,-0.497355,-4.37770366668701,-4.28295803070068,7.81002521514893,0.95601326227188,0.91724842786789,1.07477939128876
754,3668678815,0.803225,-0.070883,0.320064,-0.497358,-4.40827989578247,-4.28610658645630,7.82651567459106,1.28831207752228,0.82873076200485,1.04972982406616
755,3668695482,0.803219,-0.070865,0.320098,-0.497348,-4.39663028717041,-4.29928588867188,7.82513952255249,0.90375047922134,0.86122059822083,1.07711005210876
756,3668712149,0.803232,-0.070782,0.320082,-0.497349,-4.39854335784912,-4.30743741989136,7.80543184280396,1.46836960315704,0.77730059623718,1.19418573379517
757,3668728816,0.803232,-0.070703,0.320085,-0.497359,-4.39466285705566,-4.27318429946899,7.81518459320068,1.39712774753571,0.90743869543076,1.08389735221863
758,3668745483,0.803229,-0.070668,0.320124,-0.497343,-4.40575075149536,-4.28988313674927,7.79219150543213,0.97768151760101,0.95633333921432,1.14175641536713
759,3668762150,0.803227,-0.070621,0.320147,-0.497339,-4.40307092666626,-4.31952714920044,7.81508064270020,1.10886991024017,0.89084178209305,1.11324965953827
760,3668778817,0.803227,-0.070526,0.320131,-0.497362,-4.39517593383789,-4.28376197814941,7.81638193130493,1.58711004257202,0.86693221330643,1.03837084770203
761,3668795484,0.803222,-0.070505,0.320156,-0.497357,-4.41340827941895,-4.25320863723755,7.81126356124878,0.97022825479507,0.83923214673996,1.03619372844696
762,3668812151,0.803205,-0.070545,0.320218,-0.497338,-4.40794801712036,-4.29464960098267,7.79973697662354,0.45986959338188,0.83620977401733,0.97334027290344
