sep=,
DeviceTag:,B
FirmwareVersion:,3.0.0
AppVersion:,2023.6.0
StartTime: ,2024-03-14_11:56:34_000 EDT
© Movella Technologies B. V. 2005-2024

PacketCounter,SampleTimeFine,Quat_W,Quat_X,Quat_Y,Quat_Z,Acc_X,Acc_Y,Acc_Z,Gyr_X,Gyr_Y,Gyr_Z
0,3656095230,0.109420,-0.683760,0.097673,-0.714803,0.00000000000000,0.00000000000000,0.00000000000000,0.00000000000000,0.00000000000000,0.00000000000000
1,3656111897,0.109514,-0.683728,0.097510,-0.714842,9.60396289825439,-2.90081453323364,0.39646276831627,4.32618999481201,3.57528972625732,0.91956001520157
2,3656128564,0.109706,-0.683677,0.097280,-0.714893,9.59599494934082,-2.89744973182678,0.43169420957565,5.29395341873169,3.55581164360046,1.10043692588806
3,3656145231,0.109936,-0.683625,0.097065,-0.714936,9.67077159881592,-2.89401125907898,0.41775658726692,5.32828760147095,3.53001976013184,1.36153292655945
4,3656161898,0.110077,-0.683567,0.096893,-0.714993,9.62302875518799,-2.87445497512817,0.39143469929695,4.61278343200684,3.74645948410034,1.11575329303741
5,3656178565,0.110122,-0.683562,0.096762,-0.715008,9.58591270446777,-2.85020422935486,0.42117714881897,3.61635971069336,3.47846126556396,0.82420396804810
6,3656195232,0.110045,-0.683574,0.096808,-0.715003,9.63331127166748,-2.88326430320740,0.42196398973465,2.36996889114380,3.44250082969666,1.06746053695679
7,3656211899,0.109898,-0.683640,0.096926,-0.714946,9.67590618133545,-2.91659283638000,0.45715656876564,1.89117753505707,2.94228458404541,1.07281339168549
8,3656228566,0.109680,-0.683710,0.097071,-0.714893,9.64372158050537,-2.96111083030701,0.45750531554222,1.35976552963257,3.02941918373108,0.84775483608246
9,3656245233,0.109479,-0.683786,0.097150,-0.714840,9.62793731689453,-2.96385836601257,0.44359710812569,1.67250943183899,2.97244358062744,0.61003053188324
10,3656261900,0.109336,-0.683880,0.097102,-0.714779,9.63901233673096,-2.98067402839661,0.48073440790176,2.58596038818359,2.69504523277283,0.29749149084091
11,3656278567,0.109237,-0.683984,0.096967,-0.714713,9.64913749694824,-2.97708368301392,0.45291060209274,3.18742346763611,2.53759098052979,0.09512556344271
12,3656295234,0.109216,-0.684034,0.096735,-0.714700,9.65109062194824,-2.94985151290894,0.47486746311188,4.03113126754761,2.94415426254272,0.01815940439701
13,3656311901,0.109325,-0.684008,0.096444,-0.714747,9.66330242156982,-2.89665532112122,0.44638353586197,5.04070758819580,3.46810054779053,0.38558641076088
14,3656328568,0.109351,-0.683977,0.096287,-0.714794,9.63942623138428,-2.85286617279053,0.44191190600395,4.18934154510498,3.59009385108948,0.61913579702377
15,3656345235,0.109354,-0.683961,0.096183,-0.714823,9.63247680664062,-2.82977032661438,0.43244913220406,3.62049603462219,3.54067420959473,0.75291091203690
16,3656361902,0.109261,-0.683972,0.096216,-0.714822,9.61784076690674,-2.82807993888855,0.46204254031181,2.85056543350220,3.31616592407227,0.94614601135254
17,3656378569,0.109121,-0.684036,0.096284,-0.714773,9.65685749053955,-2.84436249732971,0.42481571435928,1.98853147029877,3.00800681114197,0.86268687248230
18,3656395236,0.109024,-0.684102,0.096307,-0.714722,9.67423534393311,-2.90621972084045,0.44869351387024,2.41725039482117,2.92084717750549,0.86559402942657
19,3656411903,0.108974,-0.684157,0.096289,-0.714679,9.68245983123779,-2.91606569290161,0.40869358181953,2.88999605178833,2.94415402412415,0.90361601114273
20,3656428570,0.109006,-0.684209,0.096200,-0.714636,9.68376731872559,-2.91651105880737,0.42532011866570,3.09053063392639,3.01748347282410,0.95311254262924
21,3656445237,0.108947,-0.684271,0.096192,-0.714587,9.67687416076660,-2.89164090156555,0.43606054782867,2.75921750068665,2.89788484573364,0.90930205583572
22,3656461904,0.108813,-0.684355,0.096230,-0.714521,9.67626380920410,-2.88965225219727,0.45411682128906,2.15425848960876,2.80190134048462,0.75038814544678
23,3656478571,0.108684,-0.684425,0.096307,-0.714465,9.70642566680908,-2.90973806381226,0.45334526896477,1.98935151100159,2.94219517707825,0.96388280391693
24,3656495238,0.108554,-0.684487,0.096381,-0.714414,9.69000530242920,-2.96404910087585,0.43397790193558,2.11427712440491,2.97316098213196,0.94805419445038
25,3656511905,0.108460,-0.684542,0.096365,-0.714378,9.71634578704834,-2.95345258712769,0.46267965435982,2.93040013313293,2.92157649993896,0.70226174592972
26,3656528572,0.108384,-0.684582,0.096308,-0.714360,9.71233749389648,-2.90233492851257,0.44848030805588,2.90234160423279,3.14940142631531,0.57947450876236
27,3656545239,0.108331,-0.684585,0.096237,-0.714374,9.72302246093750,-2.89753961563110,0.45334953069687,3.44782781600952,3.34848880767822,0.64567041397095
28,3656561906,0.108383,-0.684565,0.096141,-0.714398,9.72398471832275,-2.89669680595398,0.45446938276291,3.55838584899902,3.59521698951721,1.02147305011749
29,3656578573,0.108469,-0.684544,0.096037,-0.714420,9.69170188903809,-2.89183712005615,0.44276857376099,3.69780850410461,3.58143663406372,1.15898764133453
30,3656595240,0.108493,-0.684513,0.096024,-0.714447,9.67205810546875,-2.84690833091736,0.40599504113197,3.47739815711975,3.59779119491577,1.29924285411835
31,3656611907,0.108519,-0.684494,0.096016,-0.714462,9.67893695831299,-2.83752989768982,0.41488978266716,3.26114964485168,3.54843449592590,1.33492100238800
32,3656628574,0.108526,-0.684433,0.096056,-0.714514,9.72227191925049,-2.83873319625854,0.42459437251091,3.16789460182190,3.91677165031433,1.46613526344299
33,3656645241,0.108583,-0.684386,0.096098,-0.714546,9.71884536743164,-2.86476826667786,0.42832115292549,3.14080882072449,3.79735159873962,1.71809995174408
34,3656661908,0.108788,-0.684354,0.096036,-0.714553,9.67993640899658,-2.86426448822021,0.43526571989059,3.89323306083679,3.56615877151489,1.95536327362061
35,3656678575,0.108969,-0.684354,0.096041,-0.714524,9.65249919891357,-2.86021447181702,0.42855396866798,3.77013897895813,3.18536257743835,2.16999816894531
36,3656695242,0.109241,-0.684324,0.095988,-0.714518,9.66046142578125,-2.87402081489563,0.43887180089951,4.66594266891479,3.29775023460388,2.34814667701721
37,3656711909,0.109494,-0.684311,0.095974,-0.714494,9.68056774139404,-2.88457441329956,0.47718906402588,4.59714698791504,3.09425783157349,2.45397830009460
38,3656728576,0.109715,-0.684269,0.096022,-0.714495,9.69436073303223,-2.90189337730408,0.41143491864204,3.96109390258789,3.49006342887878,2.57798266410828
39,3656745243,0.109878,-0.684195,0.096140,-0.714524,9.68736076354980,-2.92329788208008,0.39122170209885,3.24633288383484,3.91306996345520,2.61465978622437
40,3656761910,0.110043,-0.684166,0.096196,-0.714520,9.67838287353516,-2.98889207839966,0.43970811367035,3.33396720886230,3.54162216186523,2.32368683815002
41,3656778577,0.110101,-0.684161,0.096294,-0.714502,9.68765163421631,-2.96964693069458,0.42145496606827,2.98783659934998,3.33604145050049,2.01082730293274
42,3656795244,0.110142,-0.684121,0.096352,-0.714526,9.68599319458008,-2.98553347587585,0.40936225652695,3.12978243827820,3.70448040962219,1.72468245029449
43,3656811911,0.110214,-0.684053,0.096338,-0.714582,9.64699935913086,-2.99513387680054,0.40670198202133,3.44196248054504,3.98231363296509,1.52378904819489
44,3656828578,0.110325,-0.683972,0.096230,-0.714657,9.64690971374512,-2.95327806472778,0.42960548400879,3.74336004257202,4.15151119232178,1.24809408187866
45,3656845245,0.110397,-0.683887,0.096158,-0.714736,9.63074684143066,-2.91089820861816,0.44689816236496,3.80175685882568,4.12008428573608,1.25427949428558
46,3656861912,0.110568,-0.683831,0.095980,-0.714788,9.61448001861572,-2.90061306953430,0.45863342285156,4.04363059997559,3.92514586448669,1.20120990276337
47,3656878579,0.110579,-0.683769,0.095925,-0.714853,9.60274600982666,-2.88216686248779,0.44802734255791,3.66328239440918,3.91540098190308,1.03452253341675
48,3656895246,0.110542,-0.683730,0.095884,-0.714901,9.56608772277832,-2.85864377021790,0.43021780252457,3.29830098152161,3.77313494682312,0.85848641395569
49,3656911913,0.110522,-0.683671,0.095893,-0.714960,9.60206508636475,-2.83799791336060,0.42704525589943,3.16839385032654,3.93855524063110,1.18241047859192
50,3656928580,0.110499,-0.683594,0.095943,-0.715030,9.70759010314941,-2.89269757270813,0.39736226201057,2.70719885826111,4.20248079299927,1.35276055335999
51,3656945247,0.110464,-0.683556,0.095969,-0.715068,9.72892951965332,-2.91893196105957,0.44773218035698,2.83226490020752,3.81347489356995,1.18579113483429
52,3656961914,0.110386,-0.683591,0.096028,-0.715039,9.67249774932861,-2.90320324897766,0.45297709107399,2.37752437591553,3.20139551162720,1.13236308097839
53,3656978581,0.110416,-0.683658,0.095960,-0.714979,9.60259437561035,-2.94478702545166,0.47144132852554,3.45424461364746,2.71612453460693,1.06400299072266
54,3656995248,0.110501,-0.683745,0.095805,-0.714904,9.59196472167969,-2.94858431816101,0.44530105590820,4.12007141113281,2.45286393165588,0.92876762151718
55,3657011915,0.110713,-0.683832,0.095556,-0.714822,9.63239574432373,-2.92896151542664,0.47853446006775,5.38499355316162,2.19791531562805,1.12608802318573
56,3657028582,0.110988,-0.683901,0.095279,-0.714750,9.62299823760986,-2.86904764175415,0.44781610369682,5.62068176269531,2.33696675300598,1.29725778102875
57,3657045249,0.111189,-0.683973,0.095105,-0.714673,9.63352775573730,-2.82511711120605,0.44438660144806,4.75346183776855,2.42695736885071,1.41990411281586
58,3657061916,0.111325,-0.684100,0.095040,-0.714538,9.64040660858154,-2.86924815177917,0.43612712621689,3.78914356231689,2.02636170387268,1.61840260028839
59,3657078583,0.111354,-0.684266,0.095080,-0.714370,9.64153099060059,-2.88315963745117,0.41793349385262,2.92765998840332,1.76435661315918,1.59413456916809
60,3657095250,0.111364,-0.684405,0.095159,-0.714225,9.63522720336914,-2.90872192382812,0.39642363786697,2.58255410194397,2.07334804534912,1.68257522583008
61,3657111917,0.111372,-0.684566,0.095242,-0.714058,9.60949707031250,-2.92585706710815,0.38859981298447,2.49516344070435,1.87872982025146,1.69717431068420
62,3657128584,0.111373,-0.684736,0.095275,-0.713891,9.60903739929199,-2.90560030937195,0.38927987217903,2.80007028579712,1.77186095714569,1.41771423816681
63,3657145251,0.111369,-0.684949,0.095315,-0.713681,9.62648582458496,-2.89658641815186,0.38608577847481,2.74679589271545,1.34576821327209,1.43522036075592
64,3657161918,0.111398,-0.685177,0.095332,-0.713456,9.65823268890381,-2.88326406478882,0.41490131616592,2.74387526512146,1.23551821708679,1.48251426219940
65,3657178585,0.111355,-0.685441,0.095398,-0.713200,9.61383342742920,-2.89839363098145,0.38485923409462,2.34981155395508,0.92751270532608,1.36981844902039
66,3657195252,0.111280,-0.685719,0.095491,-0.712932,9.58513736724854,-2.89422154426575,0.36228859424591,1.99022197723389,0.86669528484344,1.33223187923431
67,3657211919,0.111160,-0.685976,0.095600,-0.712689,9.63761901855469,-2.91014099121094,0.36659386754036,1.86649990081787,1.08590173721313,1.19513976573944
68,3657228586,0.110970,-0.686216,0.095759,-0.712466,9.72017288208008,-2.91139626502991,0.40434056520462,1.26588213443756,1.35783183574677,1.07692432403564
69,3657245253,0.110641,-0.686460,0.096005,-0.712249,9.74060440063477,-2.94053173065186,0.41176676750183,0.29632613062859,1.48951935768127,0.80162638425827
70,3657261920,0.110293,-0.686726,0.096203,-0.712020,9.72263145446777,-2.99162578582764,0.42083472013474,0.10661286860704,1.40520250797272,0.47229820489883
71,3657278587,0.109989,-0.687032,0.096354,-0.711751,9.71681785583496,-3.05350041389465,0.44372192025185,0.48404163122177,0.95208811759949,0.46147677302361
72,3657295254,0.109815,-0.687334,0.096327,-0.711490,9.71794128417969,-3.05214476585388,0.44151186943054,1.98365235328674,0.79011338949203,0.26018661260605
73,3657311921,0.109777,-0.687551,0.096138,-0.711312,9.79096031188965,-2.99976420402527,0.44602528214455,3.53786969184875,1.38106250762939,0.15140949189663
74,3657328588,0.109830,-0.687686,0.095872,-0.711209,9.86610603332520,-2.94215321540833,0.40594395995140,4.45276832580566,2.02356982231140,0.22717185318470
75,3657345255,0.109844,-0.687772,0.095601,-0.711160,9.85481834411621,-2.90353751182556,0.40785604715347,4.36247110366821,2.54394316673279,0.00623669289052
76,3657361922,0.109797,-0.687842,0.095422,-0.711123,9.72554969787598,-2.88293766975403,0.39766839146614,3.65374135971069,2.77851724624634,0.14539051055908
77,3657378589,0.109706,-0.687927,0.095342,-0.711066,9.65834903717041,-2.87331485748291,0.34807696938515,2.93133544921875,2.72780418395996,0.39790615439415
78,3657395256,0.109596,-0.688014,0.095377,-0.710994,9.63845157623291,-2.88434767723083,0.37030419707298,2.26639103889465,2.73220920562744,0.87144654989243
79,3657411923,0.109464,-0.688087,0.095451,-0.710933,9.62383651733398,-2.89513945579529,0.32937946915627,1.98771202564240,2.90432667732239,0.93871825933456
80,3657428590,0.109356,-0.688108,0.095511,-0.710922,9.65643119812012,-2.90315151214600,0.30192944407463,2.24907684326172,3.36367726325989,0.99213343858719
81,3657445257,0.109289,-0.688112,0.095519,-0.710927,9.65938282012939,-2.90127158164978,0.26774063706398,2.71572756767273,3.46633338928223,0.94144606590271
82,3657461924,0.109225,-0.688124,0.095474,-0.710932,9.66165351867676,-2.87625312805176,0.26350393891335,2.98921990394592,3.37232184410095,0.70116055011749
83,3657478591,0.109137,-0.688174,0.095409,-0.710905,9.67832946777344,-2.89676427841187,0.26363316178322,2.91674876213074,3.04577279090881,0.48597538471222
84,3657495258,0.109018,-0.688263,0.095327,-0.710849,9.67495250701904,-2.88654232025146,0.23486377298832,2.80661439895630,2.72097826004028,0.25307914614677
85,3657511925,0.108868,-0.688370,0.095248,-0.710779,9.67211914062500,-2.88255071640015,0.27922880649567,2.62046098709106,2.59153151512146,0.11607674509287
86,3657528592,0.108659,-0.688495,0.095220,-0.710693,9.67344379425049,-2.84716701507568,0.24613691866398,2.07426977157593,2.50584387779236,0.06819380819798
87,3657545259,0.108423,-0.688619,0.095223,-0.710608,9.66581153869629,-2.83028125762939,0.27024179697037,1.79278635978699,2.55181884765625,0.07955304533243
88,3657561926,0.108198,-0.688725,0.095226,-0.710540,9.67076110839844,-2.84646129608154,0.30239489674568,1.87108469009399,2.71803259849548,0.13682302832603
89,3657578593,0.108014,-0.688817,0.095220,-0.710479,9.65399169921875,-2.84084057807922,0.31035444140434,2.11718440055847,2.78019475936890,0.30066749453545
90,3657595260,0.107887,-0.688890,0.095190,-0.710432,9.65208244323730,-2.85713219642639,0.31346780061722,2.53531193733215,2.88565516471863,0.46255263686180
91,3657611927,0.107788,-0.688956,0.095162,-0.710387,9.64674758911133,-2.83691430091858,0.32030770182610,2.66204357147217,2.91881084442139,0.61195147037506
92,3657628594,0.107665,-0.689022,0.095168,-0.710340,9.68270206451416,-2.84328937530518,0.32168766856194,2.37803721427917,2.94496130943298,0.65879714488983
93,3657645261,0.107505,-0.689099,0.095236,-0.710281,9.69478988647461,-2.85582566261292,0.29867658019066,1.89047324657440,2.90405702590942,0.77256864309311
94,3657661928,0.107314,-0.689168,0.095312,-0.710233,9.69799995422363,-2.88572597503662,0.30338275432587,1.70858490467072,3.02451419830322,0.65642791986465
95,3657678595,0.107167,-0.689229,0.095346,-0.710191,9.71061134338379,-2.88195610046387,0.31385007500648,2.14004349708557,3.02537202835083,0.67371642589569
96,3657695262,0.107090,-0.689281,0.095301,-0.710158,9.70127391815186,-2.88758254051208,0.30935868620872,2.86686801910400,3.01501131057739,0.63855016231537
97,3657711929,0.107072,-0.689345,0.095213,-0.710110,9.69106006622314,-2.86108136177063,0.31119740009308,3.34084367752075,2.81639790534973,0.73257440328598
98,3657728596,0.107098,-0.689398,0.095100,-0.710070,9.72993564605713,-2.84588432312012,0.32253801822662,3.67809963226318,2.85951709747314,0.82520288228989
99,3657745263,0.107126,-0.689441,0.095012,-0.710036,9.73198127746582,-2.83552956581116,0.32039088010788,3.58484363555908,2.94767642021179,0.95280539989471
100,3657761930,0.107143,-0.689483,0.094977,-0.709997,9.73194599151611,-2.82256269454956,0.34122809767723,3.26157307624817,2.97663140296936,1.15847527980804
101,3657778597,0.107160,-0.689519,0.095002,-0.709956,9.73097038269043,-2.83365082740784,0.36189255118370,2.98248386383057,3.04351878166199,1.45243215560913
102,3657795264,0.107142,-0.689536,0.095081,-0.709932,9.72871780395508,-2.85865020751953,0.32050645351410,2.57133603096008,3.28035950660706,1.53288173675537
103,3657811931,0.107111,-0.689524,0.095180,-0.709935,9.70416736602783,-2.89213395118713,0.30278000235558,2.45027780532837,3.57014203071594,1.55973672866821
104,3657828598,0.107084,-0.689499,0.095246,-0.709954,9.67227077484131,-2.89822196960449,0.30494943261147,2.66163349151611,3.68528413772583,1.42291378974915
105,3657845265,0.107076,-0.689463,0.095255,-0.709989,9.63869571685791,-2.86237621307373,0.31367191672325,3.03609108924866,3.75815153121948,1.24012851715088
106,3657861932,0.107164,-0.689401,0.095206,-0.710044,9.59593582153320,-2.88910055160522,0.32495370507240,3.81069612503052,3.87734055519104,1.43434977531433
107,3657878599,0.107339,-0.689331,0.095064,-0.710104,9.63582515716553,-2.88228321075439,0.28230589628220,4.68699645996094,3.81453824043274,1.42493700981140
108,3657895266,0.107525,-0.689265,0.094890,-0.710163,9.73740005493164,-2.83119463920593,0.25069597363472,4.88613510131836,3.75212001800537,1.32347238063812
109,3657911933,0.107657,-0.689225,0.094790,-0.710194,9.75152015686035,-2.80033111572266,0.25791481137276,4.24238491058350,3.59002995491028,1.41465342044830
110,3657928600,0.107612,-0.689250,0.094870,-0.710167,9.70649337768555,-2.75458407402039,0.30023029446602,2.42763566970825,3.24753642082214,1.40228247642517
111,3657945267,0.107425,-0.689315,0.095114,-0.710099,9.65769958496094,-2.83140611648560,0.29562652111053,0.90690708160400,3.06755590438843,1.49109435081482
112,3657961934,0.107239,-0.689349,0.095323,-0.710067,9.64004039764404,-2.92239165306091,0.28715586662292,1.28771686553955,3.30998039245605,1.32923507690430
113,3657978601,0.107196,-0.689376,0.095353,-0.710043,9.63627624511719,-2.94883275032043,0.29681089520454,2.68269991874695,3.21120524406433,1.17016732692719
114,3657995268,0.107253,-0.689405,0.095253,-0.710019,9.65820407867432,-2.90229249000549,0.33261460065842,3.79667305946350,3.03819131851196,1.04511344432831
115,3658011935,0.107402,-0.689432,0.095077,-0.709994,9.67516994476318,-2.87702322006226,0.32267728447914,4.60244894027710,2.92828750610352,1.13409209251404
116,3658028602,0.107538,-0.689478,0.094930,-0.709949,9.71536731719971,-2.83461737632751,0.32505369186401,4.36971950531006,2.77210140228271,1.20807433128357
117,3658045269,0.107588,-0.689526,0.094898,-0.709898,9.71884918212891,-2.79788565635681,0.31446799635887,3.40035557746887,2.87384796142578,1.34109389781952
118,3658061936,0.107559,-0.689569,0.094972,-0.709852,9.73146057128906,-2.80603194236755,0.30482876300812,2.50899457931519,3.05158686637878,1.45408415794373
119,3658078603,0.107479,-0.689601,0.095141,-0.709809,9.73957061767578,-2.85536670684814,0.30694100260735,1.81868112087250,3.22239804267883,1.65814077854156
120,3658095270,0.107382,-0.689626,0.095337,-0.709774,9.72041130065918,-2.89173245429993,0.30740651488304,1.61809539794922,3.32755112648010,1.70455110073090
121,3658111937,0.107312,-0.689652,0.095492,-0.709738,9.70908546447754,-2.92172884941101,0.33447551727295,1.94128870964050,3.26935839653015,1.64760076999664
122,3658128604,0.107280,-0.689698,0.095566,-0.709688,9.66184425354004,-2.92599415779114,0.34446337819099,2.49552202224731,3.01954483985901,1.43926703929901
123,3658145271,0.107330,-0.689700,0.095569,-0.709679,9.65841484069824,-2.91296577453613,0.29410660266876,3.28589177131653,3.32021260261536,1.50504064559937
124,3658161938,0.107452,-0.689669,0.095502,-0.709699,9.70759391784668,-2.91585278511047,0.27478978037834,4.01415061950684,3.52360320091248,1.52019059658051
125,3658178605,0.107577,-0.689632,0.095375,-0.709733,9.71118831634521,-2.88577890396118,0.29801556468010,4.33242607116699,3.56985950469971,1.24519979953766
126,3658195272,0.107624,-0.689602,0.095295,-0.709766,9.67683887481689,-2.85031700134277,0.28261879086494,3.72500944137573,3.61738443374634,1.08729755878448
127,3658211939,0.107604,-0.689582,0.095283,-0.709790,9.67218399047852,-2.85385918617249,0.30711963772774,3.07121896743774,3.62542605400085,1.08300733566284
128,3658228606,0.107526,-0.689581,0.095326,-0.709797,9.67361545562744,-2.86016893386841,0.31471496820450,2.49440789222717,3.52201509475708,1.05466687679291
129,3658245273,0.107432,-0.689597,0.095377,-0.709789,9.67690277099609,-2.87331914901733,0.30741012096405,2.36009478569031,3.39399003982544,1.02051234245300
130,3658261940,0.107413,-0.689576,0.095353,-0.709815,9.66889286041260,-2.89476251602173,0.30074623227119,3.13162660598755,3.62305712699890,1.02726137638092
131,3658278607,0.107461,-0.689532,0.095271,-0.709862,9.64614677429199,-2.88282942771912,0.31522476673126,3.76432442665100,3.75101876258850,1.08285379409790
132,3658295274,0.107518,-0.689501,0.095156,-0.709899,9.66014480590820,-2.83633899688721,0.27020981907845,3.94887685775757,3.60929107666016,0.96389573812485
133,3658311941,0.107520,-0.689492,0.095076,-0.709918,9.67656421661377,-2.84348750114441,0.27746042609215,3.49509644508362,3.48359632492065,0.85933160781860
134,3658328608,0.107465,-0.689509,0.095068,-0.709911,9.68765544891357,-2.84773612022400,0.28147950768471,2.83751583099365,3.31806111335754,0.93198221921921
135,3658345275,0.107380,-0.689545,0.095085,-0.709887,9.70081043243408,-2.86023902893066,0.28394746780396,2.54287981987000,3.18189096450806,0.89964604377747
136,3658361942,0.107302,-0.689572,0.095111,-0.709868,9.70598125457764,-2.87596654891968,0.29752594232559,2.54311013221741,3.25195479393005,0.97720128297806
137,3658378609,0.107228,-0.689604,0.095125,-0.709847,9.71531867980957,-2.87858271598816,0.28934660553932,2.61207294464111,3.21327972412109,0.94184309244156
138,3658395276,0.107154,-0.689643,0.095107,-0.709823,9.71708583831787,-2.87259459495544,0.29739120602608,2.76782345771790,3.13443064689636,0.78578478097916
139,3658411943,0.107100,-0.689689,0.095071,-0.709791,9.71517944335938,-2.85750961303711,0.30050265789032,2.93586826324463,3.03461837768555,0.79262334108353
140,3658428610,0.107051,-0.689728,0.095038,-0.709764,9.69332885742188,-2.87282252311707,0.30469614267349,2.95462989807129,3.09879088401794,0.84182536602020
141,3658445277,0.107024,-0.689757,0.094991,-0.709747,9.68616199493408,-2.86343240737915,0.33033773303032,3.14013028144836,3.16539740562439,0.87933534383774
142,3658461944,0.107029,-0.689768,0.094926,-0.709744,9.68021202087402,-2.85394835472107,0.31801283359528,3.40769267082214,3.28804278373718,0.95374011993408
143,3658478611,0.107032,-0.689765,0.094886,-0.709752,9.67677497863770,-2.84570050239563,0.29989764094353,3.28745388984680,3.42572426795959,1.06107008457184
144,3658495278,0.107048,-0.689766,0.094849,-0.709753,9.69093894958496,-2.85545825958252,0.31123054027557,3.33050870895386,3.36595678329468,1.13822829723358
145,3658511945,0.107038,-0.689760,0.094838,-0.709762,9.69392871856689,-2.84611725807190,0.28949719667435,3.08989095687866,3.47652769088745,1.13852310180664
146,3658528612,0.106997,-0.689765,0.094845,-0.709762,9.71143913269043,-2.84623551368713,0.28681334853172,2.83733654022217,3.41399383544922,1.06999635696411
147,3658545279,0.106941,-0.689778,0.094873,-0.709754,9.70746612548828,-2.84556961059570,0.28802269697189,2.65493559837341,3.36251187324524,1.09646677970886
148,3658561946,0.106901,-0.689817,0.094903,-0.709719,9.68423748016357,-2.85235857963562,0.27898469567299,2.68372440338135,3.09530735015869,1.18858289718628
149,3658578613,0.106816,-0.689856,0.094953,-0.709686,9.67913913726807,-2.85386919975281,0.29526007175446,2.73820257186890,3.04114961624146,1.07204520702362
150,3658595280,0.106803,-0.689899,0.094942,-0.709649,9.69278526306152,-2.85328960418701,0.28425848484039,2.97540187835693,3.03351688385010,1.12001776695251
151,3658611947,0.106780,-0.689934,0.094948,-0.709618,9.70782947540283,-2.86040806770325,0.27850630879402,3.20539140701294,3.00889039039612,1.16476333141327
152,3658628614,0.106912,-0.689999,0.094820,-0.709552,9.71054553985596,-2.84367036819458,0.29107978940010,3.16109371185303,2.92877411842346,1.25403618812561
153,3658645281,0.106888,-0.690049,0.094850,-0.709502,9.69205093383789,-2.82103872299194,0.30387246608734,2.92543148994446,2.90158605575562,1.27365553379059
154,3658661948,0.106857,-0.690098,0.094902,-0.709452,9.69099426269531,-2.83584880828857,0.28924664855003,2.72640776634216,2.95347738265991,1.34631872177124
155,3658678615,0.106815,-0.690138,0.094973,-0.709410,9.69776439666748,-2.87908411026001,0.30933523178101,2.61337900161743,3.04599022865295,1.38197147846222
156,3658695282,0.106811,-0.690167,0.095012,-0.709377,9.69342613220215,-2.87805891036987,0.29887840151787,2.80345106124878,3.14677643775940,1.40728998184204
157,3658711949,0.106876,-0.690198,0.094983,-0.709342,9.67172622680664,-2.84645748138428,0.30983829498291,2.96912693977356,3.18269824981689,1.41401326656342
158,3658728616,0.106899,-0.690212,0.095003,-0.709322,9.65787887573242,-2.85091090202332,0.30307620763779,3.10982990264893,3.22909569740295,1.45380258560181
159,3658745283,0.106846,-0.690221,0.095093,-0.709308,9.63426971435547,-2.84074592590332,0.28466391563416,3.23309135437012,3.12017774581909,1.43314611911774
160,3658761950,0.106890,-0.690239,0.095099,-0.709284,9.68382358551025,-2.84482121467590,0.24407437443733,3.33682250976562,3.14722466468811,1.49534618854523
161,3658778617,0.106973,-0.690234,0.095082,-0.709278,9.75721740722656,-2.88336586952209,0.24250189960003,3.41985917091370,3.37438368797302,1.56667780876160
162,3658795284,0.106974,-0.690260,0.095108,-0.709249,9.74228382110596,-2.84246563911438,0.27027720212936,2.92891502380371,3.15501117706299,1.37317395210266
163,3658811951,0.106836,-0.690330,0.095237,-0.709185,9.69123935699463,-2.82933330535889,0.27863889932632,1.71689629554749,2.93493390083313,1.18388307094574
164,3658828618,0.106712,-0.690392,0.095351,-0.709128,9.66016006469727,-2.89062571525574,0.26510950922966,1.82768392562866,3.00416493415833,1.17635297775269
165,3658845285,0.106698,-0.690425,0.095351,-0.709098,9.65363407135010,-2.92545557022095,0.26832684874535,2.83857846260071,3.15467739105225,1.16558265686035
166,3658861952,0.106799,-0.690446,0.095244,-0.709077,9.68077564239502,-2.90342593193054,0.28692990541458,4.02516460418701,3.06489276885986,1.23487806320190
167,3658878619,0.107004,-0.690449,0.095044,-0.709069,9.72375488281250,-2.84697341918945,0.28175565600395,4.62534666061401,3.19109892845154,1.28327310085297
168,3658895286,0.107140,-0.690441,0.094942,-0.709070,9.71446514129639,-2.81284165382385,0.27827957272530,4.25004386901855,3.27714514732361,1.41836750507355
169,3658911953,0.107137,-0.690450,0.094984,-0.709056,9.71063899993896,-2.78824734687805,0.27911689877510,3.04674625396729,3.26230287551880,1.43415772914886
170,3658928620,0.107059,-0.690477,0.095127,-0.709023,9.69873809814453,-2.81817817687988,0.26833516359329,2.03925728797913,3.25063586235046,1.54920959472656
171,3658945287,0.106972,-0.690502,0.095293,-0.708989,9.69267272949219,-2.86419820785522,0.26940256357193,1.57578313350677,3.37869954109192,1.60878515243530
172,3658961954,0.106910,-0.690529,0.095438,-0.708953,9.70342254638672,-2.89657306671143,0.26953899860382,1.99074697494507,3.25871634483337,1.63706123828888
173,3658978621,0.106886,-0.690551,0.095532,-0.708923,9.70479202270508,-2.90842938423157,0.26566588878632,2.56785273551941,3.21153807640076,1.57615447044373
174,3658995288,0.106924,-0.690575,0.095511,-0.708896,9.69863128662109,-2.89215445518494,0.26667088270187,3.06681394577026,3.19448041915894,1.32458651065826
175,3659011955,0.106936,-0.690618,0.095466,-0.708859,9.66359806060791,-2.90104985237122,0.30861628055573,3.37571549415588,2.95756268501282,1.08353257179260
176,3659028622,0.106967,-0.690657,0.095387,-0.708826,9.63705730438232,-2.85440325737000,0.26686552166939,3.56485295295715,2.97665715217590,1.02110171318054
177,3659045289,0.107031,-0.690658,0.095314,-0.708826,9.68614292144775,-2.89053630828857,0.26343399286270,3.60112047195435,3.34366106987000,1.19896888732910
178,3659061956,0.107027,-0.690634,0.095267,-0.708856,9.72067928314209,-2.86224579811096,0.25582396984100,3.66665053367615,3.52669000625610,1.00169992446899
179,3659078623,0.106979,-0.690630,0.095260,-0.708868,9.72171115875244,-2.81342244148254,0.28207758069038,2.90895009040833,3.49914336204529,0.96513783931732
180,3659095290,0.106869,-0.690632,0.095316,-0.708874,9.71689605712891,-2.83890676498413,0.26282668113708,2.38406848907471,3.50900363922119,0.97059315443039
181,3659111957,0.106740,-0.690672,0.095412,-0.708843,9.70929527282715,-2.87262320518494,0.29595521092415,2.03144574165344,3.19176506996155,1.06804955005646
182,3659128624,0.106738,-0.690738,0.095377,-0.708784,9.68535995483398,-2.88000059127808,0.26296964287758,2.40198493003845,3.01160573959351,1.04738032817841
183,3659145291,0.106748,-0.690764,0.095327,-0.708763,9.67479324340820,-2.87611532211304,0.27830734848976,3.32364511489868,3.13952803611755,1.04735457897186
184,3659161958,0.106836,-0.690740,0.095225,-0.708787,9.67897891998291,-2.85101175308228,0.28135278820992,4.12890815734863,3.47167348861694,1.18702065944672
185,3659178625,0.106921,-0.690707,0.095147,-0.708817,9.69482517242432,-2.81843686103821,0.26129129528999,3.79689121246338,3.62647700309753,1.27621698379517
186,3659195292,0.106947,-0.690648,0.095154,-0.708870,9.71979808807373,-2.83617448806763,0.26101332902908,3.24315714836121,3.93116545677185,1.40394747257233
187,3659211959,0.106937,-0.690534,0.095212,-0.708974,9.74269962310791,-2.86054396629333,0.26732063293457,2.93492102622986,4.49478626251221,1.46851706504822
188,3659228626,0.106919,-0.690372,0.095286,-0.709125,9.70880317687988,-2.88528776168823,0.26788377761841,2.97915434837341,4.93759107589722,1.50249254703522
189,3659245293,0.106925,-0.690197,0.095354,-0.709285,9.70360755920410,-2.88260650634766,0.32637354731560,3.06331706047058,5.03924655914307,1.58839714527130
190,3659261960,0.106978,-0.690028,0.095372,-0.709439,9.73067569732666,-2.90955805778503,0.32749339938164,3.23662590980530,5.00980615615845,1.57437431812286
191,3659278627,0.107024,-0.689844,0.095378,-0.709610,9.71803474426270,-2.91338443756104,0.33120495080948,3.92115092277527,4.96012973785400,1.50288939476013
192,3659295294,0.107118,-0.689671,0.095344,-0.709769,9.71792030334473,-2.89369368553162,0.29206162691116,4.19957399368286,4.83011960983276,1.54392087459564
193,3659311961,0.107239,-0.689505,0.095271,-0.709922,9.70733261108398,-2.87016296386719,0.27361011505127,4.27642440795898,4.78770589828491,1.47859549522400
194,3659328628,0.107232,-0.689330,0.095314,-0.710087,9.66612052917480,-2.83172655105591,0.29668262600899,3.87073278427124,4.82636785507202,1.42368209362030
195,3659345295,0.107266,-0.689190,0.095329,-0.710216,9.67162418365479,-2.82991862297058,0.31611910462379,3.32055878639221,4.69483423233032,1.47106564044952
196,3659361962,0.107237,-0.689082,0.095396,-0.710316,9.66072940826416,-2.84820342063904,0.30021396279335,2.89175057411194,4.43241882324219,1.42203009128571
197,3659378629,0.107178,-0.689019,0.095481,-0.710374,9.66018199920654,-2.85768890380859,0.27370652556419,2.81258225440979,3.98272442817688,1.36323606967926
198,3659395296,0.107166,-0.688988,0.095508,-0.710403,9.66710281372070,-2.85804200172424,0.27134042978287,3.04194355010986,3.68698692321777,1.31126785278320
199,3659411963,0.107182,-0.688996,0.095505,-0.710393,9.66931629180908,-2.82984972000122,0.27749142050743,3.11793684959412,3.31776690483093,1.30888593196869
200,3659428630,0.107148,-0.689037,0.095514,-0.710357,9.66877365112305,-2.83257436752319,0.27037015557289,2.90952563285828,3.02649879455566,1.11465179920197
201,3659445297,0.107124,-0.689098,0.095524,-0.710300,9.68649482727051,-2.84312486648560,0.28463336825371,2.77607059478760,2.87975096702576,1.17390680313110
202,3659461964,0.107074,-0.689166,0.095560,-0.710237,9.66596412658691,-2.85090708732605,0.29819929599762,2.55318951606750,2.84111452102661,1.16832339763641
203,3659478631,0.107021,-0.689228,0.095603,-0.710179,9.67872714996338,-2.86628627777100,0.32476183772087,2.56547093391418,2.88828063011169,1.18927454948425
204,3659495298,0.106895,-0.689269,0.095708,-0.710144,9.68597602844238,-2.86637210845947,0.33294808864594,2.57141232490540,2.98968052864075,1.14214706420898
205,3659511965,0.106903,-0.689324,0.095719,-0.710088,9.68847179412842,-2.85257697105408,0.31296440958977,2.75820612907410,2.94464087486267,1.32608461380005
206,3659528632,0.106907,-0.689361,0.095734,-0.710050,9.72075176239014,-2.84863877296448,0.30510553717613,2.92923498153687,3.06211376190186,1.33595848083496
207,3659545299,0.106908,-0.689389,0.095759,-0.710019,9.70994377136230,-2.86404490470886,0.30456340312958,3.08172035217285,3.08465290069580,1.37281537055969
208,3659561966,0.106953,-0.689421,0.095752,-0.709981,9.70378303527832,-2.86801695823669,0.31550279259682,3.22166824340820,3.05277776718140,1.43630921840668
209,3659578633,0.106958,-0.689443,0.095785,-0.709955,9.69293212890625,-2.84952592849731,0.31610190868378,3.08391022682190,3.14066815376282,1.42866384983063
210,3659595300,0.106943,-0.689474,0.095826,-0.709921,9.68688106536865,-2.87090897560120,0.30506768822670,2.74285101890564,3.13539123535156,1.36743628978729
211,3659611967,0.106920,-0.689517,0.095865,-0.709878,9.67292594909668,-2.87396860122681,0.30259785056114,2.55151104927063,3.08670115470886,1.31010234355927
212,3659628634,0.106840,-0.689556,0.095934,-0.709842,9.65963745117188,-2.86697244644165,0.29890787601471,2.59314465522766,3.05395555496216,1.18704617023468
213,3659645301,0.106794,-0.689590,0.095952,-0.709814,9.62889480590820,-2.86637806892395,0.28794768452644,2.86583065986633,3.10714054107666,1.10375368595123
214,3659661968,0.106721,-0.689613,0.096000,-0.709796,9.61565208435059,-2.86038446426392,0.30151349306107,3.11286544799805,3.08093929290771,1.12708699703217
215,3659678635,0.106773,-0.689629,0.095948,-0.709780,9.69355487823486,-2.87372446060181,0.30470857024193,3.38862395286560,3.23706078529358,1.24449539184570
216,3659695302,0.106771,-0.689635,0.095940,-0.709775,9.75462627410889,-2.90169930458069,0.27161306142807,3.22827625274658,3.30150294303894,1.19562661647797
217,3659711969,0.106709,-0.689686,0.095946,-0.709734,9.74673080444336,-2.85364007949829,0.32423487305641,2.78182077407837,2.97167491912842,0.97307765483856
218,3659728636,0.106508,-0.689771,0.096072,-0.709665,9.70380210876465,-2.85557794570923,0.31757944822311,1.59564554691315,2.83311009407043,0.85061055421829
219,3659745303,0.106378,-0.689836,0.096125,-0.709614,9.65928459167480,-2.92047977447510,0.30331832170486,2.01714110374451,2.99888873100281,0.85679608583450
220,3659761970,0.106359,-0.689869,0.096074,-0.709592,9.61172676086426,-2.92758989334106,0.29140716791153,3.06348371505737,3.16338610649109,0.89544558525085
221,3659778637,0.106412,-0.689888,0.095952,-0.709582,9.66334533691406,-2.89877700805664,0.30947831273079,4.05808925628662,3.08698391914368,0.91643530130386
222,3659795304,0.106545,-0.689879,0.095774,-0.709595,9.69476413726807,-2.83906340599060,0.29638740420341,4.60818576812744,3.28736424446106,1.04403769969940
223,3659811971,0.106651,-0.689874,0.095641,-0.709602,9.70172023773193,-2.80003070831299,0.28641793131828,4.20039367675781,3.31140232086182,1.12238717079163
224,3659828638,0.106643,-0.689903,0.095621,-0.709577,9.69888019561768,-2.78224372863770,0.28476732969284,3.13446998596191,3.11830806732178,1.11051559448242
225,3659845305,0.106579,-0.689952,0.095698,-0.709529,9.66833686828613,-2.79941582679749,0.27654689550400,2.21379590034485,3.07367825508118,1.28957414627075
226,3659861972,0.106480,-0.690005,0.095835,-0.709474,9.66581439971924,-2.85162949562073,0.27505609393120,1.83515024185181,3.06234431266785,1.41671550273895
227,3659878639,0.106439,-0.690056,0.095921,-0.709419,9.67029666900635,-2.87804317474365,0.25736755132675,2.29282355308533,3.01871323585510,1.45088279247284
228,3659895306,0.106445,-0.690109,0.095937,-0.709364,9.68485546112061,-2.89232397079468,0.28383404016495,2.98466110229492,2.88231229782104,1.35186398029327
229,3659911973,0.106494,-0.690171,0.095867,-0.709306,9.71620368957520,-2.87551236152649,0.29293888807297,3.27185583114624,2.83544111251831,1.14370954036713
230,3659928640,0.106561,-0.690262,0.095756,-0.709222,9.65086364746094,-2.84831357002258,0.29644280672073,3.32132697105408,2.59136509895325,1.02986109256744
231,3659945307,0.106582,-0.690331,0.095706,-0.709158,9.65923309326172,-2.84454774856567,0.27025797963142,3.29707169532776,2.72278380393982,1.11121976375580
232,3659961974,0.106633,-0.690367,0.095666,-0.709121,9.68662643432617,-2.87822151184082,0.24714502692223,3.45302748680115,2.98755502700806,1.30029284954071
233,3659978641,0.106617,-0.690378,0.095658,-0.709114,9.72929477691650,-2.87408781051636,0.25762134790421,3.43272948265076,3.19796323776245,1.13219666481018
234,3659995308,0.106517,-0.690391,0.095719,-0.709108,9.70506954193115,-2.85111880302429,0.29693445563316,2.75030469894409,3.27882242202759,1.04924988746643
235,3660011975,0.106430,-0.690418,0.095756,-0.709090,9.71479225158691,-2.87972664833069,0.28153246641159,2.48550748825073,3.25952315330505,0.99215906858444
236,3660028642,0.106318,-0.690468,0.095812,-0.709050,9.69692802429199,-2.89311766624451,0.25733408331871,2.26581501960754,3.06522583961487,0.95731312036514
237,3660045309,0.106216,-0.690516,0.095845,-0.709014,9.70872974395752,-2.89829373359680,0.28728291392326,2.49419093132019,3.05664563179016,0.89937734603882
238,3660061976,0.106209,-0.690530,0.095790,-0.709010,9.66856288909912,-2.88899564743042,0.25655779242516,3.44937801361084,3.23286080360413,0.94673508405685
239,3660078643,0.106279,-0.690520,0.095662,-0.709026,9.64440441131592,-2.85431981086731,0.27410182356834,4.10677957534790,3.37069582939148,0.96580380201340
240,3660095310,0.106317,-0.690502,0.095565,-0.709050,9.66456699371338,-2.82262587547302,0.27661973237991,4.08644294738770,3.40483760833740,0.97043961286545
241,3660111977,0.106338,-0.690507,0.095472,-0.709055,9.68061542510986,-2.80306243896484,0.27320730686188,3.38660097122192,3.39706373214722,0.88525170087814
242,3660128644,0.106215,-0.690526,0.095520,-0.709048,9.70224285125732,-2.81306648254395,0.24987038969994,2.52516913414001,3.30675339698792,0.87113922834396
243,3660145311,0.106121,-0.690557,0.095572,-0.709026,9.68440628051758,-2.82887387275696,0.21708233654499,2.30858802795410,3.25789642333984,1.02420055866241
244,3660161978,0.106071,-0.690591,0.095559,-0.709002,9.66121482849121,-2.88299584388733,0.25536659359932,2.54063868522644,3.24602532386780,0.92732059955597
245,3660178645,0.106060,-0.690612,0.095485,-0.708993,9.67105102539062,-2.88927602767944,0.25893574953079,3.38015985488892,3.21196103096008,0.82574075460434
246,3660195312,0.106153,-0.690648,0.095277,-0.708972,9.65968990325928,-2.86767506599426,0.26640677452087,3.93033242225647,3.08666276931763,0.68613851070404
247,3660211979,0.106190,-0.690687,0.095097,-0.708953,9.67115020751953,-2.83863806724548,0.27086859941483,4.05671882629395,2.98062682151794,0.55757564306259
248,3660228646,0.106197,-0.690747,0.094958,-0.708912,9.68584251403809,-2.83311557769775,0.28625121712685,3.68825483322144,2.81668019294739,0.60396033525467
249,3660245313,0.106205,-0.690827,0.094849,-0.708847,9.67943668365479,-2.82572245597839,0.29213574528694,3.35386800765991,2.68622159957886,0.74958127737045
250,3660261980,0.106163,-0.690896,0.094776,-0.708796,9.71363830566406,-2.82902455329895,0.28413900732994,3.17598748207092,2.79106688499451,0.68350046873093
251,3660278647,0.106127,-0.690974,0.094695,-0.708736,9.72167873382568,-2.84738159179688,0.26680800318718,3.13245868682861,2.72492218017578,0.67703330516815
252,3660295314,0.106067,-0.691063,0.094650,-0.708664,9.73698139190674,-2.85253834724426,0.27765777707100,2.82556796073914,2.65831685066223,0.72587680816650
253,3660311981,0.105959,-0.691158,0.094643,-0.708589,9.74038219451904,-2.86029291152954,0.28302940726280,2.48936247825623,2.64516448974609,0.67535573244095
254,3660328648,0.105807,-0.691245,0.094686,-0.708520,9.72703933715820,-2.87300324440002,0.26243168115616,2.32581233978271,2.69168996810913,0.70395231246948
255,3660345315,0.105668,-0.691341,0.094682,-0.708448,9.71517562866211,-2.87169289588928,0.27155134081841,2.34736537933350,2.67548966407776,0.53670126199722
256,3660361982,0.105581,-0.691418,0.094596,-0.708397,9.71915245056152,-2.87114238739014,0.26120689511299,2.77791571617126,2.84522557258606,0.39571630954742
257,3660378649,0.105529,-0.691479,0.094475,-0.708362,9.70563030242920,-2.84380769729614,0.25855067372322,3.30648469924927,2.90277695655823,0.39583149552345
258,3660395316,0.105510,-0.691530,0.094336,-0.708334,9.71728134155273,-2.82826542854309,0.26129749417305,3.52263045310974,2.95876646041870,0.47542300820351
259,3660411983,0.105454,-0.691580,0.094241,-0.708305,9.71562480926514,-2.81063175201416,0.26720947027206,3.45040273666382,2.91498184204102,0.50530022382736
260,3660428650,0.105470,-0.691622,0.094119,-0.708279,9.70930671691895,-2.79811286926270,0.24111042916775,3.38145303726196,3.07832670211792,0.72419917583466
261,3660445317,0.105417,-0.691660,0.094088,-0.708254,9.72828388214111,-2.81720495223999,0.24276655912399,3.19203376770020,3.02826642990112,0.83491003513336
262,3660461984,0.105401,-0.691696,0.094058,-0.708225,9.74137020111084,-2.79843258857727,0.25108277797699,3.19672131538391,3.05505752563477,1.02048683166504
263,3660478651,0.105335,-0.691740,0.094104,-0.708186,9.73106479644775,-2.79420399665833,0.23856724798679,3.02129936218262,2.90775871276855,1.14837086200714
264,3660495318,0.105311,-0.691807,0.094131,-0.708120,9.73160171508789,-2.79451155662537,0.22982250154018,2.71151375770569,2.81278634071350,1.25808298587799
265,3660511985,0.105302,-0.691887,0.094169,-0.708039,9.73465442657471,-2.82683873176575,0.22016778588295,2.38532400131226,2.77021861076355,1.38332927227020
266,3660528652,0.105288,-0.691978,0.094211,-0.707945,9.71561336517334,-2.83537793159485,0.20324349403381,2.32318758964539,2.66329836845398,1.37563264369965
267,3660545319,0.105244,-0.692056,0.094269,-0.707868,9.67079734802246,-2.81613659858704,0.22905826568604,2.49859619140625,2.72231030464172,1.30729806423187
268,3660561986,0.105225,-0.692124,0.094307,-0.707800,9.65344715118408,-2.82640767097473,0.22536812722683,2.73425793647766,2.77703118324280,1.33233416080475
269,3660578653,0.105205,-0.692185,0.094339,-0.707739,9.65728282928467,-2.83327388763428,0.25035813450813,3.05699110031128,2.75948667526245,1.30775892734528
270,3660595320,0.105306,-0.692230,0.094299,-0.707685,9.73940849304199,-2.84138417243958,0.20732435584068,3.58410000801086,2.85626387596130,1.55463957786560
271,3660611987,0.105355,-0.692266,0.094297,-0.707643,9.80118465423584,-2.83301091194153,0.20402352511883,3.56514716148376,2.90524840354919,1.48172032833099
272,3660628654,0.105342,-0.692341,0.094317,-0.707569,9.79136180877686,-2.77792763710022,0.25040069222450,2.68395519256592,2.74545145034790,1.27439832687378
273,3660645321,0.105193,-0.692445,0.094499,-0.707465,9.74399089813232,-2.78963470458984,0.25746089220047,1.35488617420197,2.63171792030334,1.39432966709137
274,3660661988,0.105085,-0.692509,0.094679,-0.707394,9.73740673065186,-2.87604475021362,0.21162424981594,1.49489808082581,2.98638987541199,1.57840824127197
275,3660678655,0.105056,-0.692543,0.094738,-0.707357,9.68930244445801,-2.90116906166077,0.24563358724117,2.70039796829224,3.08999300003052,1.39103841781616
276,3660695322,0.105153,-0.692535,0.094695,-0.707357,9.68401241302490,-2.86188101768494,0.23385065793991,3.93176722526550,3.29616260528564,1.51955032348633
277,3660711989,0.105431,-0.692501,0.094525,-0.707372,9.70586395263672,-2.81926155090332,0.24445548653603,4.60905647277832,3.53809976577759,1.78067159652710
278,3660728656,0.105618,-0.692451,0.094460,-0.707401,9.71735477447510,-2.79993462562561,0.22905001044273,4.38160324096680,3.60073614120483,1.85350167751312
279,3660745323,0.105725,-0.692425,0.094453,-0.707412,9.69810295104980,-2.76404356956482,0.21226283907890,3.41442942619324,3.57874751091003,1.73396706581116
280,3660761990,0.105747,-0.692408,0.094543,-0.707412,9.69015312194824,-2.80265641212463,0.19732625782490,2.59095549583435,3.58950519561768,1.78528237342834
281,3660778657,0.105709,-0.692383,0.094716,-0.707420,9.70978355407715,-2.81450104713440,0.17594905197620,2.27207708358765,3.65721249580383,1.89525032043457
282,3660795324,0.105689,-0.692367,0.094877,-0.707417,9.68361091613770,-2.84439826011658,0.19990226626396,2.33851671218872,3.55418515205383,1.92743289470673
283,3660811991,0.105647,-0.692364,0.095020,-0.707407,9.69099903106689,-2.86096358299255,0.20208059251308,2.62689018249512,3.36848044395447,1.73350620269775
284,3660828658,0.105653,-0.692381,0.095049,-0.707386,9.65561008453369,-2.85986685752869,0.20278149843216,2.92046308517456,3.23882889747620,1.41508901119232
285,3660845325,0.105660,-0.692396,0.095047,-0.707370,9.60628890991211,-2.85055732727051,0.20049633085728,3.16320729255676,3.23425674438477,1.26653540134430
286,3660861992,0.105731,-0.692379,0.094970,-0.707386,9.65529727935791,-2.86465597152710,0.18917676806450,3.80098915100098,3.45980238914490,1.22021496295929
287,3660878659,0.105723,-0.692326,0.094949,-0.707442,9.71854305267334,-2.87041616439819,0.19538174569607,3.95027279853821,3.68443846702576,1.11164259910583
288,3660895326,0.105715,-0.692295,0.094870,-0.707485,9.71170711517334,-2.82489871978760,0.22965419292450,3.47392797470093,3.71065306663513,0.81608474254608
289,3660911993,0.105592,-0.692275,0.094895,-0.707519,9.70932579040527,-2.82649135589600,0.25799858570099,2.65806078910828,3.67799663543701,0.75693219900131
290,3660928660,0.105466,-0.692279,0.094935,-0.707528,9.70205211639404,-2.85140085220337,0.21247373521328,2.32802796363831,3.53255486488342,0.81082123517990
291,3660945327,0.105372,-0.692290,0.094938,-0.707532,9.71969699859619,-2.84745383262634,0.22363933920860,2.35818696022034,3.50797963142395,0.77971458435059
292,3660961994,0.105314,-0.692264,0.094896,-0.707571,9.69095230102539,-2.86213850975037,0.25452557206154,2.96217250823975,3.74832940101624,0.75020879507065
293,3660978661,0.105339,-0.692193,0.094790,-0.707651,9.70776271820068,-2.85769701004028,0.24988535046577,3.80810928344727,4.04169750213623,0.84358000755310
294,3660995328,0.105395,-0.692093,0.094655,-0.707758,9.70836639404297,-2.83763384819031,0.22777016460896,4.13440275192261,4.26381063461304,0.86109900474548
295,3661011995,0.105405,-0.692015,0.094547,-0.707848,9.71654415130615,-2.81481099128723,0.23391187191010,3.76661682128906,4.13364696502686,0.76507699489594
296,3661028662,0.105343,-0.691944,0.094502,-0.707932,9.72494983673096,-2.80105090141296,0.22189868986607,3.10085344314575,4.16014337539673,0.70974081754684
297,3661045329,0.105269,-0.691878,0.094504,-0.708007,9.71923542022705,-2.82609724998474,0.22575129568577,2.80474472045898,4.12610387802124,0.88014215230942
298,3661061996,0.105214,-0.691823,0.094499,-0.708070,9.68699169158936,-2.81190633773804,0.24640613794327,2.91968154907227,4.00943756103516,0.93659245967865
299,3661078663,0.105202,-0.691760,0.094450,-0.708140,9.67903232574463,-2.83295464515686,0.23416879773140,3.34413528442383,4.01723670959473,0.93971729278564
300,3661095330,0.105201,-0.691711,0.094385,-0.708197,9.66888713836670,-2.81494283676147,0.26338732242584,3.45768904685974,3.86726212501526,0.92400389909744
301,3661111997,0.105206,-0.691683,0.094332,-0.708230,9.66978931427002,-2.79633259773254,0.25774580240250,3.36344718933105,3.66981339454651,1.00299334526062
302,3661128664,0.105175,-0.691676,0.094302,-0.708245,9.67175579071045,-2.80606746673584,0.24282447993755,2.95337557792664,3.54342794418335,0.94254755973816
303,3661145331,0.105132,-0.691684,0.094295,-0.708244,9.66872215270996,-2.79088521003723,0.25002309679985,2.58167052268982,3.48355746269226,0.99059677124023
304,3661161998,0.105014,-0.691699,0.094337,-0.708243,9.68929767608643,-2.83494400978088,0.25487029552460,2.37206888198853,3.41127848625183,0.85592514276505
305,3661178665,0.104917,-0.691724,0.094348,-0.708230,9.71374607086182,-2.84200572967529,0.26707771420479,2.51379704475403,3.29778885841370,0.81611031293869
306,3661195332,0.104836,-0.691764,0.094324,-0.708207,9.73575782775879,-2.84247660636902,0.27601364254951,2.82365918159485,3.12108635902405,0.72512114048004
307,3661211999,0.104824,-0.691803,0.094242,-0.708182,9.73681163787842,-2.83498406410217,0.27216559648514,3.16419315338135,3.10643649101257,0.78260892629623
308,3661228666,0.104853,-0.691820,0.094161,-0.708171,9.75044536590576,-2.80717754364014,0.27275100350380,3.51534271240234,3.21132040023804,0.99478441476822
309,3661245333,0.104878,-0.691824,0.094079,-0.708174,9.73795127868652,-2.79275894165039,0.27781310677528,3.52584409713745,3.34951376914978,0.96351140737534
310,3661262000,0.104931,-0.691808,0.094032,-0.708188,9.74993419647217,-2.78676152229309,0.28158843517303,3.41336655616760,3.53066015243530,1.27348923683167
311,3661278667,0.104986,-0.691776,0.094009,-0.708215,9.74312305450439,-2.80821251869202,0.24409820139408,3.21353626251221,3.72445869445801,1.39745461940765
312,3661295334,0.105015,-0.691736,0.094045,-0.708244,9.74068737030029,-2.82158708572388,0.24383467435837,3.03519511222839,3.76003408432007,1.55980074405670
313,3661312001,0.105039,-0.691708,0.094110,-0.708260,9.72696876525879,-2.79920172691345,0.25022467970848,2.93018245697021,3.63801527023315,1.66921818256378
314,3661328668,0.105106,-0.691691,0.094145,-0.708261,9.69828510284424,-2.81111335754395,0.24680234491825,2.99193477630615,3.55372357368469,1.74277758598328
315,3661345335,0.105176,-0.691676,0.094171,-0.708263,9.69147205352783,-2.81256222724915,0.24605375528336,3.16643404960632,3.49865627288818,1.71282374858856
316,3661362002,0.105207,-0.691660,0.094219,-0.708267,9.73587131500244,-2.80882430076599,0.21158368885517,3.09327125549316,3.48396778106689,1.63032531738281
317,3661378669,0.105258,-0.691664,0.094216,-0.708256,9.71744537353516,-2.83565235137939,0.22891366481781,3.11477351188660,3.36556005477905,1.47845470905304
318,3661395336,0.105263,-0.691667,0.094246,-0.708248,9.69469833374023,-2.82802438735962,0.22199851274490,2.97451853752136,3.36150097846985,1.41188752651215
319,3661412003,0.105191,-0.691678,0.094287,-0.708243,9.62017917633057,-2.82816314697266,0.22853843867779,2.68948721885681,3.34923219680786,1.08670854568481
320,3661428670,0.105121,-0.691678,0.094306,-0.708250,9.59223747253418,-2.84753489494324,0.27217462658882,2.91332960128784,3.41599202156067,0.99361920356750
321,3661445337,0.105076,-0.691668,0.094271,-0.708272,9.67637825012207,-2.85905313491821,0.24154226481915,3.27016568183899,3.49134397506714,0.85199368000031
322,3661462004,0.105108,-0.691620,0.094146,-0.708331,9.75657176971436,-2.87600326538086,0.22394840419292,3.70609402656555,3.87182092666626,0.78769302368164
323,3661478671,0.105077,-0.691580,0.094013,-0.708392,9.76593971252441,-2.80783319473267,0.25055351853371,3.55782222747803,3.83942103385925,0.43656852841377
324,3661495338,0.104933,-0.691592,0.093985,-0.708404,9.70466804504395,-2.77297043800354,0.28421980142593,2.49118065834045,3.48625969886780,0.39037591218948
325,3661512005,0.104767,-0.691599,0.093947,-0.708428,9.68396759033203,-2.84692835807800,0.26500546932220,2.50481963157654,3.55738639831543,0.23554718494415
326,3661528672,0.104690,-0.691595,0.093827,-0.708459,9.65076637268066,-2.85857486724854,0.28551825881004,3.34003686904907,3.52925062179565,0.27250629663467
327,3661545339,0.104716,-0.691596,0.093621,-0.708481,9.67044734954834,-2.80846309661865,0.28964152932167,4.23266553878784,3.33264803886414,0.37235745787621
328,3661562006,0.104819,-0.691580,0.093390,-0.708512,9.70679759979248,-2.74429011344910,0.28289830684662,4.65796422958374,3.41590189933777,0.63548958301544
329,3661578673,0.104890,-0.691566,0.093276,-0.708530,9.71839714050293,-2.70887756347656,0.27408489584923,4.01479101181030,3.41953945159912,1.03609800338745
330,3661595340,0.104868,-0.691581,0.093296,-0.708516,9.72162723541260,-2.69834136962891,0.27139186859131,2.85448431968689,3.29527902603149,1.23544156551361
331,3661612007,0.104796,-0.691608,0.093424,-0.708484,9.72216987609863,-2.73713040351868,0.26285871863365,2.10951280593872,3.24565386772156,1.50400328636169
332,3661628674,0.104727,-0.691637,0.093572,-0.708446,9.71810054779053,-2.79356169700623,0.23144064843655,1.97970795631409,3.23681783676147,1.61728823184967
333,3661645341,0.104690,-0.691680,0.093714,-0.708391,9.72844123840332,-2.83877038955688,0.22112163901329,2.14001798629761,3.05856633186340,1.75334286689758
334,3661662008,0.104677,-0.691727,0.093821,-0.708332,9.74295043945312,-2.83888244628906,0.19862729310989,2.41034722328186,2.98093390464783,1.69850611686707
335,3661678675,0.104661,-0.691781,0.093905,-0.708271,9.71235561370850,-2.83777046203613,0.24168367683887,2.51479554176331,2.92448329925537,1.57370817661285
336,3661695342,0.104660,-0.691849,0.093925,-0.708202,9.63755321502686,-2.83557581901550,0.23990707099438,2.87726664543152,2.76403260231018,1.33918559551239
337,3661712009,0.104752,-0.691881,0.093877,-0.708164,9.66397190093994,-2.82950448989868,0.22000446915627,3.43212771415710,3.05181765556335,1.46197307109833
338,3661728676,0.104826,-0.691896,0.093820,-0.708145,9.71756935119629,-2.85202360153198,0.22833250463009,3.68114662170410,3.15143752098083,1.33460092544556
339,3661745343,0.104864,-0.691916,0.093736,-0.708132,9.71112632751465,-2.79695987701416,0.22882705926895,3.45310401916504,3.22056627273560,1.02302253246307
340,3661762010,0.104831,-0.691959,0.093717,-0.708097,9.73850345611572,-2.76999855041504,0.24521721899509,2.57754683494568,3.15175795555115,0.98056948184967
341,3661778677,0.104713,-0.692009,0.093791,-0.708055,9.72940158843994,-2.79788756370544,0.22986996173859,2.11981010437012,3.07994055747986,1.01830983161926
342,3661795344,0.104586,-0.692084,0.093865,-0.707991,9.73015880584717,-2.84630441665649,0.23807844519615,2.01259493827820,2.87200355529785,0.97298812866211
343,3661812011,0.104542,-0.692133,0.093862,-0.707950,9.72593593597412,-2.85570883750916,0.26969152688980,2.67979264259338,3.04250693321228,1.00989592075348
344,3661828678,0.104569,-0.692145,0.093799,-0.707942,9.71220684051514,-2.83848476409912,0.27255493402481,3.64989900588989,3.19508171081543,1.07341539859772
345,3661845345,0.104624,-0.692145,0.093728,-0.707944,9.70013332366943,-2.79413509368896,0.26250991225243,3.73744368553162,3.31392526626587,1.16910457611084
346,3661862012,0.104630,-0.692153,0.093711,-0.707937,9.72778224945068,-2.78652667999268,0.26331570744514,3.32071280479431,3.26658034324646,1.19200253486633
347,3661878679,0.104602,-0.692175,0.093739,-0.707916,9.75074291229248,-2.79413437843323,0.23174676299095,2.72994279861450,3.25218534469604,1.24605786800385
348,3661895346,0.104579,-0.692186,0.093783,-0.707903,9.73641204833984,-2.80664682388306,0.24721464514732,2.55678796768188,3.39142870903015,1.33520281314850
349,3661912013,0.104557,-0.692186,0.093836,-0.707899,9.70844745635986,-2.81074404716492,0.23481228947639,2.68640112876892,3.44402527809143,1.38966834545135
350,3661928680,0.104592,-0.692180,0.093870,-0.707895,9.68635749816895,-2.81368756294250,0.24727039039135,3.09897017478943,3.40566968917847,1.57968878746033
351,3661945347,0.104620,-0.692169,0.093870,-0.707902,9.71901416778564,-2.81724977493286,0.21889349818230,3.38046646118164,3.42408490180969,1.38195884227753
352,3661962014,0.104658,-0.692161,0.093853,-0.707906,9.73350143432617,-2.81398487091064,0.20461432635784,3.34530043601990,3.42676162719727,1.35053205490112
353,3661978681,0.104677,-0.692166,0.093842,-0.707901,9.73182392120361,-2.81673312187195,0.21338820457458,3.20299625396729,3.33674597740173,1.28377270698547
354,3661995348,0.104735,-0.692198,0.093797,-0.707866,9.72069072723389,-2.81247162818909,0.23247826099396,3.05638957023621,3.15772604942322,1.30394279956818
355,3662012015,0.104717,-0.692230,0.093819,-0.707835,9.70712184906006,-2.79688310623169,0.22400428354740,2.94453859329224,3.09453940391541,1.26736760139465
356,3662028682,0.104705,-0.692242,0.093842,-0.707821,9.70807743072510,-2.81611013412476,0.24243888258934,2.98904061317444,3.27559566497803,1.29682230949402
357,3662045349,0.104733,-0.692242,0.093841,-0.707818,9.70801067352295,-2.80980849266052,0.22509019076824,3.19714331626892,3.37745690345764,1.37398040294647
358,3662062016,0.104755,-0.692237,0.093841,-0.707819,9.71444416046143,-2.82699465751648,0.19804643094540,3.19606781005859,3.41517162322998,1.35396420955658
359,3662078683,0.104737,-0.692232,0.093872,-0.707823,9.71171283721924,-2.79655790328979,0.22154293954372,3.02242684364319,3.42687702178955,1.30491602420807
360,3662095350,0.104723,-0.692231,0.093896,-0.707822,9.70826053619385,-2.79325628280640,0.22113507986069,2.80150485038757,3.45380926132202,1.28770434856415
361,3662112017,0.104691,-0.692221,0.093951,-0.707829,9.71553802490234,-2.80125546455383,0.20713642239571,2.71057939529419,3.53436064720154,1.34939241409302
362,3662128684,0.104692,-0.692214,0.093976,-0.707834,9.69719409942627,-2.81817793846130,0.19367429614067,2.93670153617859,3.48957729339600,1.37007486820221
363,3662145351,0.104692,-0.692208,0.093973,-0.707840,9.69732761383057,-2.80912113189697,0.21169359982014,3.09975171089172,3.45871400833130,1.22260940074921
364,3662162018,0.104709,-0.692212,0.093961,-0.707835,9.71546649932861,-2.79808282852173,0.21580405533314,3.09243941307068,3.37863588333130,1.27348935604095
365,3662178685,0.104672,-0.692215,0.093984,-0.707834,9.71914005279541,-2.81357407569885,0.21966856718063,2.92968368530273,3.37691974639893,1.17286980152130
366,3662195352,0.104639,-0.692223,0.094000,-0.707829,9.74063587188721,-2.80631041526794,0.22208321094513,2.85489392280579,3.36689162254333,1.15604197978973
367,3662212019,0.104630,-0.692238,0.093994,-0.707816,9.71550273895264,-2.82384276390076,0.25397393107414,2.99117946624756,3.29133486747742,1.16426384449005
368,3662228686,0.104608,-0.692261,0.094000,-0.707796,9.71345901489258,-2.82698082923889,0.25588971376419,3.03797388076782,3.17787051200867,1.16992425918579
369,3662245353,0.104610,-0.692271,0.094003,-0.707786,9.73177528381348,-2.82680845260620,0.25194823741913,3.09452676773071,3.29883909225464,1.26700925827026
370,3662262020,0.104604,-0.692266,0.094006,-0.707792,9.72174358367920,-2.82309198379517,0.26027613878250,3.03945970535278,3.46258163452148,1.22404408454895
371,3662278687,0.104557,-0.692227,0.094063,-0.707829,9.71523475646973,-2.80378866195679,0.23918247222900,2.95579504966736,3.74209213256836,1.29073917865753
372,3662295354,0.104509,-0.692172,0.094100,-0.707885,9.67328548431396,-2.80865764617920,0.25187063217163,3.06642961502075,3.89703702926636,1.18947947025299
373,3662312021,0.104519,-0.692144,0.094080,-0.707914,9.63865756988525,-2.81027793884277,0.26934835314751,3.12372469902039,3.69647622108459,1.19045269489288
374,3662328688,0.104525,-0.692100,0.094066,-0.707958,9.72796821594238,-2.82210683822632,0.22478491067886,3.46352887153625,3.74134969711304,1.20852255821228
375,3662345355,0.104602,-0.692043,0.093993,-0.708012,9.80944252014160,-2.85301113128662,0.18829007446766,3.72532916069031,3.88193774223328,1.25894105434418
376,3662362022,0.104588,-0.692006,0.093957,-0.708054,9.78853511810303,-2.79345703125000,0.23420344293118,3.40805172920227,3.71452021598816,1.00417149066925
377,3662378689,0.104498,-0.692016,0.094009,-0.708051,9.71492004394531,-2.78036165237427,0.23826590180397,2.38451671600342,3.43973422050476,1.04780268669128
378,3662395356,0.104389,-0.692002,0.094066,-0.708073,9.65390205383301,-2.82558012008667,0.22095566987991,2.49922347068787,3.62762951850891,0.97690683603287
379,3662412023,0.104352,-0.691995,0.094044,-0.708089,9.63612461090088,-2.84812045097351,0.23089642822742,3.14594459533691,3.48211121559143,0.96018183231354
380,3662428690,0.104455,-0.691968,0.093915,-0.708116,9.68441104888916,-2.81265115737915,0.24732728302479,4.13392877578735,3.53644800186157,1.12164425849915
381,3662445357,0.104597,-0.691918,0.093762,-0.708165,9.71755790710449,-2.76587128639221,0.23297846317291,4.58314990997314,3.66631746292114,1.20046734809875
382,3662462024,0.104686,-0.691867,0.093695,-0.708210,9.72359848022461,-2.71495819091797,0.23929658532143,3.84253287315369,3.77795052528381,1.36149442195892
383,3662478691,0.104674,-0.691872,0.093755,-0.708199,9.71133613586426,-2.73227739334106,0.24093760550022,2.69176697731018,3.38913679122925,1.47421586513519
384,3662495358,0.104570,-0.691886,0.093919,-0.708179,9.71471977233887,-2.78396511077881,0.22243084013462,1.75678777694702,3.42833638191223,1.51935803890228
385,3662512025,0.104478,-0.691902,0.094067,-0.708157,9.71509265899658,-2.83837151527405,0.24951997399330,1.84982585906982,3.39931726455688,1.50491249561310
386,3662528692,0.104443,-0.691919,0.094151,-0.708135,9.71527576446533,-2.84859633445740,0.24567897617817,2.51491117477417,3.29071998596191,1.47408771514893
387,3662545359,0.104478,-0.691943,0.094155,-0.708106,9.71749496459961,-2.84754276275635,0.25298273563385,3.24235057830811,3.10989427566528,1.44157254695892
388,3662562026,0.104509,-0.691959,0.094119,-0.708090,9.73883533477783,-2.83067917823792,0.27274152636528,3.54838323593140,3.15088701248169,1.22496569156647
389,3662578693,0.104562,-0.691977,0.094048,-0.708074,9.67157554626465,-2.82865905761719,0.27779814600945,3.59922504425049,3.16598606109619,1.16170263290405
390,3662595360,0.104613,-0.691985,0.094001,-0.708065,9.66651058197021,-2.78567886352539,0.23168809711933,3.57791471481323,3.24904775619507,1.27414214611053
391,3662612027,0.104683,-0.691958,0.093959,-0.708087,9.71637058258057,-2.82893514633179,0.23185254633427,3.51195001602173,3.59903335571289,1.37850129604340
392,3662628694,0.104723,-0.691918,0.093946,-0.708122,9.73428916931152,-2.80620217323303,0.24271951615810,3.37242484092712,3.73237276077271,1.37773287296295
393,3662645361,0.104695,-0.691897,0.093982,-0.708141,9.74670410156250,-2.78719544410706,0.27493745088577,2.81000804901123,3.63421225547791,1.27930331230164
394,3662662028,0.104642,-0.691888,0.094043,-0.708150,9.73711395263672,-2.80516862869263,0.27078580856323,2.54211163520813,3.57298421859741,1.27443683147430
395,3662678695,0.104578,-0.691916,0.094125,-0.708121,9.69590950012207,-2.81411647796631,0.23797495663166,2.44324660301208,3.19390392303467,1.32682764530182
396,3662695362,0.104543,-0.691950,0.094166,-0.708087,9.68670654296875,-2.83589005470276,0.22770093381405,2.76252198219299,3.09964919090271,1.26844346523285
397,3662712029,0.104640,-0.691948,0.094078,-0.708086,9.70354652404785,-2.82216072082520,0.24229384958744,3.66767501831055,3.37469148635864,1.29237854480743
398,3662728696,0.104731,-0.691926,0.094003,-0.708105,9.70857048034668,-2.80352520942688,0.24041795730591,3.83661627769470,3.50840234756470,1.32518827915192
399,3662745363,0.104807,-0.691910,0.093963,-0.708115,9.69774818420410,-2.76873731613159,0.24589918553829,3.40866637229919,3.52448701858521,1.42671716213226
400,3662762030,0.104766,-0.691901,0.094003,-0.708124,9.72024440765381,-2.77829766273499,0.20485857129097,2.81044363975525,3.51203966140747,1.23510861396790
401,3662778697,0.104651,-0.691895,0.094124,-0.708131,9.71924304962158,-2.81227946281433,0.23046994209290,2.26860666275024,3.52858471870422,1.26115643978119
402,3662795364,0.104574,-0.691904,0.094194,-0.708124,9.71646118164062,-2.82948017120361,0.22900800406933,2.34696841239929,3.42482805252075,1.19649744033813
403,3662812031,0.104530,-0.691909,0.094252,-0.708118,9.71648406982422,-2.84120845794678,0.24454645812511,2.79084992408752,3.36037373542786,1.31656980514526
404,3662828698,0.104510,-0.691912,0.094251,-0.708118,9.71783638000488,-2.84158587455750,0.22528173029423,3.38453865051270,3.27419924736023,1.14344060420990
405,3662845365,0.104551,-0.691916,0.094187,-0.708116,9.72709941864014,-2.81294584274292,0.25244650244713,3.73225712776184,3.25319719314575,1.14084100723267
406,3662862032,0.104595,-0.691906,0.094125,-0.708128,9.71586704254150,-2.79178142547607,0.25944328308105,3.59839248657227,3.43678903579712,1.16142082214355
407,3662878699,0.104587,-0.691898,0.094109,-0.708139,9.71296119689941,-2.77028155326843,0.26617732644081,3.13968133926392,3.48924350738525,1.12132394313812
408,3662895366,0.104532,-0.691892,0.094167,-0.708145,9.70528602600098,-2.79618263244629,0.25427141785622,2.63509893417358,3.51256465911865,1.25229465961456
409,3662912033,0.104474,-0.691876,0.094237,-0.708160,9.69541835784912,-2.82156372070312,0.23783764243126,2.66811370849609,3.58238434791565,1.29807734489441
410,3662928700,0.104446,-0.691848,0.094272,-0.708187,9.70368957519531,-2.82866597175598,0.24835100769997,2.86957001686096,3.68628215789795,1.27305352687836
411,3662945367,0.104453,-0.691825,0.094272,-0.708208,9.70227527618408,-2.83883547782898,0.23898318409920,3.31360435485840,3.56560754776001,1.28245341777802
412,3662962034,0.104467,-0.691802,0.094242,-0.708233,9.72298431396484,-2.81809997558594,0.23427911102772,3.46929144859314,3.55550384521484,1.16583895683289
413,3662978701,0.104473,-0.691793,0.094204,-0.708246,9.72967720031738,-2.80644965171814,0.23868297040462,3.29622626304626,3.47838377952576,1.08328902721405
414,3662995368,0.104473,-0.691790,0.094156,-0.708255,9.71195507049561,-2.80658531188965,0.23764947056770,3.11929440498352,3.49359846115112,1.00736033916473
415,3663012035,0.104454,-0.691792,0.094136,-0.708259,9.69915962219238,-2.80644702911377,0.24458214640617,3.11814188957214,3.40194344520569,1.05041539669037
416,3663028702,0.104450,-0.691794,0.094101,-0.708262,9.69933414459229,-2.78736686706543,0.24373558163643,2.93020844459534,3.47513175010681,1.04770040512085
417,3663045369,0.104451,-0.691798,0.094067,-0.708263,9.70927619934082,-2.79109764099121,0.25259423255920,2.84566092491150,3.48889827728271,1.07759034633636
418,3663062036,0.104435,-0.691799,0.094090,-0.708260,9.71552944183350,-2.79695892333984,0.23386213183403,2.87710046768188,3.41360974311829,1.27570462226868
419,3663078703,0.104425,-0.691806,0.094091,-0.708255,9.71811676025391,-2.79689693450928,0.23628993332386,3.01275801658630,3.35176777839661,1.19505023956299
420,3663095370,0.104432,-0.691807,0.094085,-0.708254,9.72291946411133,-2.80916452407837,0.25563466548920,3.13499522209167,3.38940644264221,1.25109100341797
421,3663112037,0.104456,-0.691809,0.094063,-0.708251,9.72173690795898,-2.78324365615845,0.24757616221905,3.28703141212463,3.35487914085388,1.25695598125458
422,3663128704,0.104461,-0.691803,0.094073,-0.708255,9.71393489837646,-2.80025863647461,0.26064372062683,3.05833601951599,3.45351433753967,1.31493067741394
423,3663145371,0.104445,-0.691805,0.094106,-0.708251,9.73118686676025,-2.80721783638000,0.23752920329571,2.83012700080872,3.40852594375610,1.32544457912445
424,3663162038,0.104445,-0.691810,0.094135,-0.708242,9.70013332366943,-2.80738496780396,0.25714555382729,2.91931009292603,3.36393380165100,1.38055026531219
425,3663178705,0.104445,-0.691792,0.094145,-0.708258,9.68427371978760,-2.80794286727905,0.23455676436424,3.04700231552124,3.57662153244019,1.29473483562469
426,3663195372,0.104458,-0.691796,0.094121,-0.708256,9.62687778472900,-2.79911518096924,0.26991662383080,3.24442505836487,3.34777235984802,1.18468987941742
427,3663212039,0.104497,-0.691788,0.094089,-0.708262,9.67418003082275,-2.79021787643433,0.23260477185249,3.42238163948059,3.42628765106201,1.28322196006775
428,3663228706,0.104556,-0.691770,0.094067,-0.708274,9.78051090240479,-2.83628392219543,0.18104897439480,3.47926759719849,3.49058842658997,1.42559003829956
429,3663245373,0.104585,-0.691758,0.094057,-0.708283,9.79923820495605,-2.82122659683228,0.23178948462009,3.27288055419922,3.48164963722229,1.34010756015778
430,3663262040,0.104483,-0.691798,0.094114,-0.708251,9.75173568725586,-2.76970386505127,0.28231787681580,2.25818252563477,3.16434693336487,1.01811766624451
431,3663278707,0.104369,-0.691835,0.094188,-0.708222,9.70379734039307,-2.83791804313660,0.24150526523590,2.12313938140869,3.22069525718689,1.03352379798889
432,3663295374,0.104329,-0.691852,0.094176,-0.708212,9.65047073364258,-2.86265778541565,0.26652240753174,2.92383074760437,3.28792786598206,0.98898321390152
433,3663312041,0.104413,-0.691861,0.094052,-0.708208,9.68301391601562,-2.83295178413391,0.27276039123535,4.06691265106201,3.20289397239685,1.05784308910370
434,3663328708,0.104584,-0.691827,0.093895,-0.708237,9.73213672637939,-2.79768037796021,0.23785513639450,4.68827724456787,3.48350715637207,1.33179664611816
435,3663345375,0.104715,-0.691772,0.093804,-0.708283,9.73842430114746,-2.74274110794067,0.25681900978088,4.20768022537231,3.74329638481140,1.45039606094360
436,3663362042,0.104736,-0.691757,0.093834,-0.708291,9.73249149322510,-2.73087048530579,0.24010825157166,3.04332637786865,3.52078557014465,1.48662507534027
437,3663378709,0.104659,-0.691766,0.093987,-0.708273,9.72161102294922,-2.76200914382935,0.26238584518433,1.94537413120270,3.43585443496704,1.60854160785675
438,3663395376,0.104571,-0.691776,0.094166,-0.708252,9.71685886383057,-2.81832480430603,0.22216528654099,1.76030981540680,3.44347405433655,1.67170262336731
439,3663412043,0.104513,-0.691785,0.094288,-0.708236,9.72266674041748,-2.87365937232971,0.24682645499706,2.31436371803284,3.37334632873535,1.55104112625122
440,3663428710,0.104536,-0.691788,0.094326,-0.708225,9.72642326354980,-2.86319231987000,0.24040184915066,3.04573440551758,3.33093190193176,1.54324221611023
441,3663445377,0.104580,-0.691787,0.094294,-0.708223,9.73516654968262,-2.83842277526855,0.24145983159542,3.45998144149780,3.33645129203796,1.30600428581238
442,3663462044,0.104622,-0.691804,0.094259,-0.708205,9.68066215515137,-2.82023024559021,0.25938054919243,3.66618895530701,3.11338996887207,1.28904855251312
443,3663478711,0.104655,-0.691816,0.094215,-0.708194,9.66668224334717,-2.81930279731750,0.25526365637779,3.61255574226379,3.18002152442932,1.19876408576965
444,3663495378,0.104735,-0.691782,0.094176,-0.708221,9.71019554138184,-2.83303546905518,0.23089918494225,3.66571569442749,3.62499094009399,1.44907701015472
445,3663512045,0.104792,-0.691721,0.094143,-0.708276,9.71499824523926,-2.78707051277161,0.25234654545784,3.55550384521484,3.91346740722656,1.36587417125702
446,3663528712,0.104739,-0.691667,0.094203,-0.708329,9.71046733856201,-2.77493882179260,0.23790729045868,2.59895896911621,4.00204801559448,1.26150238513947
447,3663545379,0.104652,-0.691614,0.094280,-0.708383,9.73390960693359,-2.81647562980652,0.24640373885632,2.35663771629333,4.02544689178467,1.18312764167786
448,3663562046,0.104561,-0.691606,0.094355,-0.708394,9.74345111846924,-2.83551287651062,0.23695372045040,2.28502392768860,3.61004614830017,1.15668237209320
449,3663578713,0.104515,-0.691612,0.094378,-0.708392,9.73239326477051,-2.85554146766663,0.26307475566864,2.73550057411194,3.41814303398132,1.12651062011719
450,3663595380,0.104596,-0.691592,0.094296,-0.708411,9.70341110229492,-2.82782864570618,0.25488108396530,3.88339805603027,3.48113775253296,1.24285650253296
451,3663612047,0.104726,-0.691545,0.094188,-0.708452,9.69186687469482,-2.79427886009216,0.23152652382851,4.27420854568481,3.66393518447876,1.36282610893250
452,3663628714,0.104812,-0.691487,0.094151,-0.708500,9.68644905090332,-2.74698710441589,0.25169807672501,3.73479318618774,3.83487510681152,1.48994219303131
453,3663645381,0.104797,-0.691453,0.094222,-0.708527,9.68356513977051,-2.76504373550415,0.23304566740990,2.69448137283325,3.76084041595459,1.51190459728241
454,3663662048,0.104666,-0.691423,0.094405,-0.708551,9.69784927368164,-2.78499293327332,0.25707846879959,1.85642111301422,3.79988694190979,1.48065733909607
455,3663678715,0.104538,-0.691413,0.094589,-0.708555,9.72188949584961,-2.82111668586731,0.23003530502319,1.57279884815216,3.68630766868591,1.49747192859650
456,3663695382,0.104418,-0.691409,0.094773,-0.708552,9.72446346282959,-2.83673787117004,0.23823994398117,2.00363016128540,3.50304865837097,1.55058002471924
457,3663712049,0.104363,-0.691407,0.094871,-0.708548,9.73150348663330,-2.83329248428345,0.28957664966583,2.50498628616333,3.44736695289612,1.44541430473328
458,3663728716,0.104377,-0.691385,0.094889,-0.708566,9.77318000793457,-2.86850261688232,0.30555492639542,2.98642802238464,3.63392996788025,1.39831256866455
459,3663745383,0.104423,-0.691324,0.094898,-0.708617,9.76913547515869,-2.85086131095886,0.29696235060692,3.06468796730042,4.00362443923950,1.50492560863495
460,3663762050,0.104450,-0.691219,0.094954,-0.708708,9.73826789855957,-2.83273386955261,0.32927858829498,2.99896574020386,4.38348627090454,1.64518070220947
461,3663778717,0.104471,-0.691067,0.095062,-0.708838,9.70803928375244,-2.83121943473816,0.31449392437935,2.78512525558472,4.84751176834106,1.86186432838440
462,3663795384,0.104493,-0.690873,0.095180,-0.709008,9.67781448364258,-2.82225441932678,0.29365104436874,2.80249118804932,5.24495697021484,1.91075885295868
463,3663812051,0.104538,-0.690660,0.095246,-0.709201,9.65687084197998,-2.85523271560669,0.30240699648857,3.20618557929993,5.38546752929688,1.77789306640625
464,3663828718,0.104660,-0.690462,0.095216,-0.709379,9.65704441070557,-2.84335327148438,0.27504837512970,3.71960496902466,5.22389030456543,1.68855571746826
465,3663845385,0.104737,-0.690278,0.095227,-0.709545,9.66214656829834,-2.80597114562988,0.21943706274033,4.11076211929321,4.89698219299316,1.68247294425964
466,3663862052,0.104818,-0.690137,0.095222,-0.709671,9.65942955017090,-2.79306650161743,0.24775880575180,3.75927805900574,4.60550928115845,1.61763393878937
467,3663878719,0.104868,-0.690028,0.095214,-0.709771,9.66079139709473,-2.79695296287537,0.24270409345627,3.41172671318054,4.39296197891235,1.44912827014923
468,3663895386,0.104878,-0.689946,0.095215,-0.709849,9.67303085327148,-2.81496596336365,0.24111475050449,3.22513866424561,4.16959428787231,1.29385125637054
469,3663912053,0.104845,-0.689883,0.095226,-0.709914,9.68257522583008,-2.81539487838745,0.24825526773930,3.11328768730164,4.00430250167847,1.13464272022247
470,3663928720,0.104814,-0.689842,0.095226,-0.709958,9.66834831237793,-2.81910920143127,0.27903556823730,2.99375295639038,3.83094263076782,1.08766889572144
471,3663945387,0.104803,-0.689817,0.095181,-0.709990,9.70410060882568,-2.82006478309631,0.27400255203247,3.07723784446716,3.70869326591492,0.96457427740097
472,3663962054,0.104786,-0.689807,0.095171,-0.710004,9.71666145324707,-2.82994580268860,0.28408744931221,3.06459856033325,3.52914905548096,1.10616147518158
473,3663978721,0.104783,-0.689776,0.095144,-0.710038,9.72273826599121,-2.84145379066467,0.30097809433937,3.22968435287476,3.70063805580139,1.09942519664764
474,3663995388,0.104792,-0.689741,0.095106,-0.710076,9.71348953247070,-2.83889842033386,0.31814706325531,3.04930734634399,3.81375646591187,1.09489166736603
475,3664012055,0.104745,-0.689676,0.095091,-0.710147,9.69485473632812,-2.81315326690674,0.31378519535065,3.01688170433044,4.08073091506958,0.92680841684341
476,3664028722,0.104681,-0.689595,0.095101,-0.710234,9.68955039978027,-2.81178092956543,0.33175495266914,2.83326411247253,4.25835514068604,0.97063165903091
477,3664045389,0.104663,-0.689482,0.095090,-0.710348,9.67049980163574,-2.83258509635925,0.31564840674400,3.19723343849182,4.50659322738647,1.09881043434143
478,3664062056,0.104715,-0.689354,0.095031,-0.710473,9.69844245910645,-2.83146071434021,0.31779772043228,3.78247094154358,4.54229736328125,1.20634543895721
479,3664078723,0.104795,-0.689219,0.094910,-0.710608,9.77560997009277,-2.84925651550293,0.30934086441994,4.22700548171997,4.56723165512085,1.05567884445190
480,3664095390,0.104861,-0.689104,0.094784,-0.710726,9.78555011749268,-2.80878973007202,0.28331762552261,4.16162776947021,4.39512634277344,0.95969504117966
481,3664112057,0.104782,-0.689062,0.094794,-0.710777,9.72579288482666,-2.74189066886902,0.33055448532104,2.71004128456116,3.91027832031250,0.89404970407486
482,3664128724,0.104609,-0.689049,0.094926,-0.710797,9.64742755889893,-2.78239727020264,0.31241339445114,1.62996649742126,3.77006125450134,1.01647830009460
483,3664145391,0.104514,-0.689001,0.094998,-0.710848,9.63320350646973,-2.85869312286377,0.30439445376396,2.34185910224915,3.99545335769653,1.11419093608856
484,3664162058,0.104515,-0.688934,0.094936,-0.710921,9.63583278656006,-2.87029457092285,0.27755340933800,3.47355604171753,4.03370571136475,0.94683754444122
485,3664178725,0.104630,-0.688849,0.094761,-0.711010,9.65277767181396,-2.82380056381226,0.32170921564102,4.59165334701538,4.04275989532471,0.96927428245544
486,3664195392,0.104776,-0.688771,0.094598,-0.711086,9.69325065612793,-2.76776838302612,0.30895069241524,4.66604566574097,3.93158793449402,1.18050229549408
487,3664212059,0.104869,-0.688711,0.094502,-0.711143,9.73086929321289,-2.75718355178833,0.32886335253716,4.06039381027222,3.83924126625061,1.24083292484283
488,3664228726,0.104881,-0.688682,0.094518,-0.711167,9.73707485198975,-2.74739909172058,0.31947323679924,3.08634281158447,3.66795587539673,1.37824487686157
489,3664245393,0.104847,-0.688672,0.094628,-0.711167,9.75329399108887,-2.77031874656677,0.32688662409782,2.38100790977478,3.55545258522034,1.60239458084106
490,3664262060,0.104807,-0.688682,0.094765,-0.711145,9.73081302642822,-2.80923867225647,0.32095018029213,2.18943786621094,3.37598443031311,1.70539617538452
491,3664278727,0.104790,-0.688696,0.094909,-0.711115,9.73744010925293,-2.82998299598694,0.32267817854881,2.25985980033875,3.30821347236633,1.85371935367584
492,3664295394,0.104762,-0.688704,0.095035,-0.711094,9.72970008850098,-2.85008764266968,0.33752042055130,2.30085277557373,3.37827658653259,1.71916294097900
493,3664312061,0.104764,-0.688714,0.095113,-0.711074,9.64292430877686,-2.85105586051941,0.34898573160172,2.67643785476685,3.31395077705383,1.62617611885071
494,3664328728,0.104834,-0.688682,0.095125,-0.711093,9.63316249847412,-2.87942767143250,0.32010123133659,3.37940430641174,3.61847329139709,1.65223729610443
495,3664345395,0.104962,-0.688603,0.095063,-0.711159,9.71403503417969,-2.89773583412170,0.30429634451866,4.08380413055420,3.96958422660828,1.57591104507446
496,3664362062,0.105078,-0.688529,0.094954,-0.711228,9.73216438293457,-2.83244204521179,0.34799695014954,4.25218248367310,3.93954133987427,1.29300618171692
497,3664378729,0.105094,-0.688476,0.094902,-0.711284,9.74534130096436,-2.80494737625122,0.33753529191017,3.47513127326965,3.88431954383850,1.07131528854370
498,3664395396,0.105049,-0.688435,0.094935,-0.711325,9.73070144653320,-2.79091000556946,0.34372121095657,2.75360822677612,3.85425019264221,1.17842745780945
499,3664412063,0.104968,-0.688434,0.095022,-0.711327,9.70953464508057,-2.82395672798157,0.34880408644676,2.26458525657654,3.53611516952515,1.26066994667053
500,3664428730,0.104909,-0.688447,0.095076,-0.711316,9.71595096588135,-2.84136748313904,0.33974236249924,2.51030063629150,3.36684083938599,1.20263159275055
501,3664445397,0.104917,-0.688414,0.095068,-0.711347,9.68613815307617,-2.83130645751953,0.32085385918617,3.19435191154480,3.70227766036987,1.24963068962097
502,3664462064,0.104998,-0.688359,0.095005,-0.711397,9.67136096954346,-2.81539654731750,0.32347148656845,3.83454155921936,3.81274533271790,1.33990275859833
503,3664478731,0.105075,-0.688315,0.094943,-0.711437,9.68153667449951,-2.79821324348450,0.32162147760391,3.79982328414917,3.71667146682739,1.32105171680450
504,3664495398,0.105091,-0.688284,0.094920,-0.711467,9.71721744537354,-2.77368330955505,0.35154938697815,3.30516576766968,3.66755938529968,1.21586048603058
505,3664512065,0.105059,-0.688278,0.094987,-0.711469,9.73203945159912,-2.80027055740356,0.33983272314072,2.59308099746704,3.51945424079895,1.40521514415741
506,3664528732,0.105017,-0.688279,0.095063,-0.711464,9.71840572357178,-2.82513236999512,0.32118710875511,2.49963307380676,3.45517897605896,1.39938831329346
507,3664545399,0.104995,-0.688282,0.095122,-0.711457,9.72209453582764,-2.84268712997437,0.32881674170494,2.67136645317078,3.41563344001770,1.42259359359741
508,3664562066,0.104973,-0.688281,0.095155,-0.711456,9.70978927612305,-2.84241080284119,0.32999438047409,2.80608916282654,3.44480633735657,1.29113626480103
509,3664578733,0.104945,-0.688285,0.095187,-0.711452,9.70675945281982,-2.83088374137878,0.34624671936035,2.77576398849487,3.40319824218750,1.25999140739441
510,3664595400,0.104918,-0.688278,0.095214,-0.711459,9.71000671386719,-2.84092211723328,0.35289430618286,2.82068872451782,3.50963163375854,1.24052560329437
511,3664612067,0.104901,-0.688267,0.095236,-0.711470,9.69114971160889,-2.85473608970642,0.33054932951927,3.13785028457642,3.46404051780701,1.26784133911133
512,3664628734,0.104916,-0.688255,0.095195,-0.711484,9.68355369567871,-2.84171772003174,0.34600555896759,3.36267876625061,3.48763036727905,1.12069654464722
513,3664645401,0.104936,-0.688230,0.095148,-0.711512,9.69512271881104,-2.82941508293152,0.35059899091721,3.43320345878601,3.61826801300049,1.11588132381439
514,3664662068,0.104942,-0.688198,0.095102,-0.711548,9.70205307006836,-2.82385444641113,0.35145223140717,3.37122058868408,3.69565653800964,1.04714965820312
515,3664678735,0.104928,-0.688154,0.095086,-0.711594,9.70242500305176,-2.82025504112244,0.34207046031952,3.14045023918152,3.83352994918823,1.09571135044098
516,3664695402,0.104891,-0.688103,0.095082,-0.711650,9.71891784667969,-2.82840943336487,0.32785436511040,2.99395799636841,3.93691515922546,1.04041337966919
517,3664712069,0.104865,-0.688053,0.095071,-0.711704,9.71594429016113,-2.82828712463379,0.33534160256386,3.07325530052185,3.91912794113159,1.05421888828278
518,3664728736,0.104840,-0.688028,0.095050,-0.711734,9.70111179351807,-2.83047556877136,0.32889640331268,3.09634494781494,3.66764903068542,1.01857864856720
519,3664745403,0.104819,-0.688012,0.095010,-0.711758,9.69440364837646,-2.82950544357300,0.35187956690788,3.19287896156311,3.57902884483337,0.94344377517700
520,3664762070,0.104803,-0.687986,0.094982,-0.711789,9.70473480224609,-2.83906292915344,0.35298749804497,3.17179989814758,3.67496156692505,1.03196120262146
521,3664778737,0.104772,-0.687960,0.094958,-0.711822,9.69550228118896,-2.81457233428955,0.33700960874557,3.25892138481140,3.63268780708313,0.97428154945374
522,3664795404,0.104743,-0.687928,0.094907,-0.711865,9.67931747436523,-2.79648470878601,0.34069603681564,3.23364162445068,3.74928903579712,0.85154533386230
523,3664812071,0.104723,-0.687910,0.094889,-0.711886,9.66711330413818,-2.79649877548218,0.37865921854973,3.08822536468506,3.59242415428162,1.05615234375000
524,3664828738,0.104732,-0.687892,0.094869,-0.711906,9.65636157989502,-2.79458665847778,0.37442982196808,3.23971199989319,3.56708073616028,1.18698215484619
525,3664845405,0.104753,-0.687868,0.094845,-0.711929,9.74165630340576,-2.81501984596252,0.32681021094322,3.32132649421692,3.60329699516296,1.23688852787018
526,3664862072,0.104761,-0.687828,0.094833,-0.711968,9.77486801147461,-2.82561588287354,0.31538119912148,3.42509698867798,3.70909023284912,1.23048543930054
527,3664878739,0.104703,-0.687832,0.094871,-0.711968,9.73723506927490,-2.77991557121277,0.35052564740181,2.60727047920227,3.44764876365662,1.13666605949402
528,3664895406,0.104536,-0.687857,0.094989,-0.711952,9.70452404022217,-2.81250500679016,0.36290368437767,1.67749130725861,3.40217399597168,0.97571593523026
529,3664912073,0.104442,-0.687860,0.095032,-0.711957,9.67556285858154,-2.86630797386169,0.32397136092186,2.26908040046692,3.55419754981995,0.97652262449265
530,3664928740,0.104450,-0.687844,0.094947,-0.711983,9.67565631866455,-2.89638495445251,0.36680254340172,3.49891281127930,3.55081677436829,0.87253504991531
531,3664945407,0.104563,-0.687818,0.094788,-0.712013,9.72469902038574,-2.84194564819336,0.35498973727226,4.42194318771362,3.48979449272156,1.04178369045258
532,3664962074,0.104694,-0.687766,0.094612,-0.712067,9.75418853759766,-2.79617190361023,0.36898955702782,4.62624359130859,3.70451927185059,1.04702174663544
533,3664978741,0.104741,-0.687730,0.094551,-0.712103,9.73632812500000,-2.74154901504517,0.36375752091408,3.63668346405029,3.67558908462524,1.18024599552155
534,3664995408,0.104670,-0.687717,0.094627,-0.712116,9.72520446777344,-2.74659681320190,0.33690723776817,2.38775706291199,3.63129234313965,1.25815999507904
535,3665012075,0.104555,-0.687688,0.094780,-0.712141,9.70255470275879,-2.78217816352844,0.35025361180305,1.81254673004150,3.85186862945557,1.40098917484283
536,3665028742,0.104464,-0.687657,0.094908,-0.712167,9.68820762634277,-2.83322334289551,0.33144661784172,2.05480480194092,3.83153247833252,1.40390908718109
537,3665045409,0.104444,-0.687652,0.094968,-0.712166,9.69868087768555,-2.85887074470520,0.35607883334160,2.68765592575073,3.47752618789673,1.43975400924683
538,3665062076,0.104463,-0.687658,0.094963,-0.712159,9.74505043029785,-2.83789014816284,0.31886383891106,3.18008565902710,3.32936930656433,1.31239485740662
539,3665078743,0.104477,-0.687681,0.094927,-0.712139,9.71916389465332,-2.80638337135315,0.38100832700729,3.28301095962524,3.16369390487671,1.13885605335236
540,3665095410,0.104458,-0.687717,0.094900,-0.712111,9.65317440032959,-2.81599235534668,0.34587484598160,3.06573772430420,3.08889150619507,1.02026915550232
541,3665112077,0.104449,-0.687711,0.094889,-0.712119,9.68533039093018,-2.82475638389587,0.32802039384842,3.09722876548767,3.46892023086548,1.14751315116882
542,3665128744,0.104441,-0.687666,0.094866,-0.712167,9.71124267578125,-2.83535170555115,0.33224159479141,3.20599317550659,3.84299349784851,1.09257388114929
543,3665145411,0.104388,-0.687628,0.094859,-0.712213,9.73498535156250,-2.82253098487854,0.36215391755104,2.91609549522400,3.83682084083557,0.93992197513580
544,3665162078,0.104324,-0.687594,0.094862,-0.712255,9.74649906158447,-2.80726981163025,0.34933355450630,2.80384778976440,3.81082391738892,0.93765532970428
545,3665178745,0.104242,-0.687595,0.094875,-0.712264,9.72046089172363,-2.81923818588257,0.37166798114777,2.62161350250244,3.51052784919739,0.89657247066498
546,3665195412,0.104161,-0.687600,0.094896,-0.712268,9.72976589202881,-2.82752323150635,0.35431843996048,2.59023809432983,3.46578264236450,0.93864130973816
547,3665212079,0.104135,-0.687564,0.094850,-0.712313,9.71953487396240,-2.85277152061462,0.36670193076134,3.22561216354370,3.77389049530029,0.88813322782516
548,3665228746,0.104120,-0.687507,0.094764,-0.712382,9.70197963714600,-2.83465099334717,0.37006846070290,3.50669932365417,3.96237516403198,0.75554913282394
549,3665245413,0.104096,-0.687437,0.094691,-0.712463,9.67983436584473,-2.81101846694946,0.36916616559029,3.41731047630310,4.09613656997681,0.76766383647919
550,3665262080,0.104018,-0.687374,0.094668,-0.712538,9.70322036743164,-2.80372333526611,0.34957391023636,2.91011524200439,4.09958171844482,0.73695421218872
551,3665278747,0.103902,-0.687315,0.094659,-0.712612,9.71794700622559,-2.81685781478882,0.33378893136978,2.65706133842468,4.11409139633179,0.62080067396164
552,3665295414,0.103782,-0.687239,0.094641,-0.712706,9.69356346130371,-2.80922007560730,0.34422320127487,2.70724964141846,4.28887224197388,0.55156952142715
553,3665312081,0.103652,-0.687174,0.094586,-0.712795,9.69773483276367,-2.81874370574951,0.34285536408424,2.83594083786011,4.18868827819824,0.32844445109367
554,3665328748,0.103537,-0.687110,0.094516,-0.712883,9.68331050872803,-2.82500791549683,0.36087611317635,2.97150897979736,4.15919542312622,0.33106979727745
555,3665345415,0.103443,-0.687044,0.094405,-0.712975,9.68485450744629,-2.81681251525879,0.37325549125671,3.27870774269104,4.14559555053711,0.23188459873199
556,3665362082,0.103340,-0.686966,0.094271,-0.713082,9.71552753448486,-2.80037117004395,0.35612472891808,3.36196184158325,4.26236391067505,0.08133313804865
557,3665378749,0.103228,-0.686883,0.094144,-0.713196,9.68069744110107,-2.77171993255615,0.37620031833649,3.30158019065857,4.33379745483398,0.06924394518137
558,3665395416,0.103122,-0.686801,0.094014,-0.713307,9.67366409301758,-2.78548622131348,0.38459959626198,3.33978104591370,4.30748033523560,0.08194784820080
559,3665412083,0.103028,-0.686725,0.093879,-0.713412,9.69784164428711,-2.76469588279724,0.40222948789597,3.40663051605225,4.23874902725220,0.12041813135147
560,3665428750,0.102934,-0.686651,0.093781,-0.713510,9.70254325866699,-2.74590778350830,0.38495880365372,3.22781515121460,4.22102451324463,0.29915636777878
561,3665445417,0.102814,-0.686577,0.093722,-0.713605,9.73180770874023,-2.75523447990417,0.39329695701599,2.90518426895142,4.25466632843018,0.35468468070030
562,3665462084,0.102691,-0.686491,0.093677,-0.713712,9.73591232299805,-2.77034068107605,0.38142505288124,2.84243392944336,4.37423992156982,0.40913733839989
563,3665478751,0.102584,-0.686414,0.093625,-0.713809,9.73400115966797,-2.78164124488831,0.38827455043793,2.93562555313110,4.27953720092773,0.45362660288811
564,3665495418,0.102482,-0.686348,0.093565,-0.713894,9.73592281341553,-2.80580711364746,0.40377032756805,2.98787522315979,4.15179347991943,0.44112756848335
565,3665512085,0.102381,-0.686278,0.093498,-0.713984,9.74472236633301,-2.77685856819153,0.40817818045616,3.03158354759216,4.19199323654175,0.41584786772728
566,3665528752,0.102286,-0.686212,0.093423,-0.714072,9.73513889312744,-2.75912880897522,0.37855431437492,3.09302854537964,4.14996194839478,0.40304145216942
567,3665545419,0.102152,-0.686138,0.093387,-0.714166,9.71699714660645,-2.76670908927917,0.38776400685310,2.97868084907532,4.19947147369385,0.40575647354126
568,3665562086,0.101936,-0.686046,0.093436,-0.714279,9.71224975585938,-2.75798821449280,0.40515348315239,2.91271495819092,4.26968860626221,0.42978110909462
569,3665578753,0.101821,-0.685964,0.093377,-0.714383,9.68699550628662,-2.75846195220947,0.43091350793839,2.96241664886475,4.32616472244263,0.37987482547760
570,3665595420,0.101752,-0.685879,0.093297,-0.714485,9.69722843170166,-2.74298453330994,0.39279660582542,2.98154902458191,4.37598085403442,0.50211143493652
571,3665612087,0.101826,-0.685825,0.093080,-0.714554,9.67938232421875,-2.75514030456543,0.42598408460617,3.15793085098267,4.22113990783691,0.51546847820282
572,3665628754,0.101720,-0.685773,0.093052,-0.714623,9.66546058654785,-2.70745396614075,0.41285467147827,3.01734256744385,3.96772742271423,0.58263766765594
573,3665645421,0.101693,-0.685705,0.092973,-0.714702,9.72927093505859,-2.74723100662231,0.39869928359985,2.94015884399414,4.22399520874023,0.70707708597183
574,3665662088,0.101630,-0.685605,0.092962,-0.714808,9.77975559234619,-2.76451134681702,0.40238189697266,2.87354016304016,4.45433092117310,0.87051177024841
575,3665678755,0.101485,-0.685551,0.092957,-0.714881,9.77568435668945,-2.74624657630920,0.45098033547401,2.60371017456055,4.07157421112061,0.49445319175720
576,3665695422,0.101305,-0.685511,0.092983,-0.714942,9.74414539337158,-2.75698113441467,0.45647534728050,2.59888291358948,3.88799595832825,0.48434910178185
577,3665712089,0.101198,-0.685446,0.092943,-0.715024,9.69395542144775,-2.77937006950378,0.44101569056511,3.33701491355896,4.00954008102417,0.53319239616394
578,3665728756,0.101296,-0.685393,0.092737,-0.715088,9.68476772308350,-2.78303503990173,0.43297880887985,4.07601833343506,3.92661905288696,0.71688675880432
579,3665745423,0.101304,-0.685300,0.092652,-0.715187,9.72378635406494,-2.73907327651978,0.44363844394684,4.50515890121460,4.00530099868774,0.90800869464874
580,3665762090,0.101373,-0.685172,0.092543,-0.715315,9.74524879455566,-2.70295572280884,0.46578130125999,4.55007123947144,4.38711071014404,1.08170139789581
581,3665778757,0.101374,-0.685041,0.092536,-0.715440,9.72772121429443,-2.68127560615540,0.46042168140411,3.67580723762512,4.51087093353271,1.22462022304535
582,3665795424,0.101405,-0.684846,0.092685,-0.715604,9.69698524475098,-2.70585632324219,0.43267336487770,3.24279880523682,5.06915140151978,2.13161706924438
583,3665812091,0.101552,-0.684456,0.092975,-0.715918,9.69213008880615,-2.71495127677917,0.51045131683350,3.73955798149109,6.62984991073608,3.40465879440308
584,3665828758,0.101643,-0.683874,0.093545,-0.716387,9.80375003814697,-2.56119465827942,0.64241725206375,1.59930860996246,8.74758434295654,4.42715597152710
585,3665845425,0.101479,-0.683176,0.094630,-0.716934,9.84400749206543,-2.51536583900452,0.61012840270996,-2.73230648040771,10.44378757476807,5.57682228088379
586,3665862092,0.101162,-0.682498,0.096121,-0.717426,9.80974197387695,-2.74932527542114,0.55791318416595,-4.99472856521606,10.30911731719971,6.78070878982544
587,3665878759,0.100846,-0.681890,0.097681,-0.717837,9.78784275054932,-2.93311667442322,0.54398167133331,-5.28166818618774,9.58524990081787,7.13349914550781
588,3665895426,0.100636,-0.681313,0.098992,-0.718235,9.70053577423096,-2.96168088912964,0.51475155353546,-4.33097553253174,9.36414813995361,6.43282508850098
589,3665912093,0.100466,-0.680721,0.100068,-0.718671,9.59579849243164,-2.94389629364014,0.48797377943993,-2.52547049522400,9.28971672058105,5.53863334655762
590,3665928760,0.100474,-0.680214,0.100740,-0.719056,9.56534576416016,-2.94349575042725,0.42909082770348,0.18888092041016,8.23548412322998,4.49583673477173
591,3665945427,0.100667,-0.679869,0.101017,-0.719316,9.62036514282227,-2.89513182640076,0.40545630455017,2.35672736167908,6.59857559204102,3.51857137680054
592,3665962094,0.100803,-0.679586,0.101118,-0.719550,9.62766647338867,-2.87236046791077,0.37926375865936,3.56987261772156,5.87360715866089,2.42420363426208
593,3665978761,0.100922,-0.679399,0.101010,-0.719725,9.55406570434570,-2.83767986297607,0.40382954478264,4.58637714385986,4.93234109878540,1.34663915634155
594,3665995428,0.101021,-0.679415,0.100773,-0.719730,9.53454589843750,-2.81672024726868,0.40659981966019,4.49258327484131,3.17948389053345,0.60207784175873
595,3666012095,0.101075,-0.679579,0.100504,-0.719605,9.56591892242432,-2.75782942771912,0.38271373510361,4.12077665328979,1.89690232276917,0.21445514261723
596,3666028762,0.100980,-0.679798,0.100361,-0.719432,9.59133434295654,-2.75699663162231,0.40928697586060,3.33641290664673,1.39199912548065,0.08714722096920
597,3666045429,0.100830,-0.680067,0.100251,-0.719213,9.60479164123535,-2.76268005371094,0.44347879290581,2.58867549896240,1.07327449321747,-0.04845282435417
598,3666062096,0.100613,-0.680367,0.100193,-0.718969,9.65667152404785,-2.78231406211853,0.48638850450516,1.96943747997284,0.88874793052673,-0.13292352855206
599,3666078763,0.100382,-0.680642,0.100192,-0.718740,9.72616100311279,-2.81114768981934,0.54519683122635,1.61865842342377,1.14140427112579,0.06377562135458
600,3666095430,0.100115,-0.680909,0.100201,-0.718524,9.71729660034180,-2.83768844604492,0.57543212175369,1.38195860385895,1.28690981864929,-0.07211894541979
601,3666112097,0.099914,-0.681173,0.100152,-0.718308,9.71905422210693,-2.88747000694275,0.61895471811295,1.90033435821533,1.24158859252930,-0.01484896335751
602,3666128764,0.099804,-0.681381,0.100049,-0.718140,9.73627281188965,-2.91684937477112,0.57999521493912,2.91831088066101,1.55891680717468,0.19162139296532
603,3666145431,0.099852,-0.681479,0.099860,-0.718066,9.73985099792480,-2.90708708763123,0.59238165616989,4.13252019882202,2.40637755393982,0.58443063497543
604,3666162098,0.099866,-0.681477,0.099742,-0.718083,9.76454639434814,-2.84741258621216,0.61418086290359,4.00450801849365,3.32486176490784,0.75995451211929
605,3666178765,0.099877,-0.681398,0.099703,-0.718162,9.73646640777588,-2.83894300460815,0.59268301725388,3.49085736274719,4.10653543472290,1.11863481998444
606,3666195432,0.099864,-0.681307,0.099734,-0.718246,9.70561981201172,-2.80372023582458,0.59280467033386,2.87371993064880,4.31237268447876,1.32255029678345
607,3666212099,0.099729,-0.681179,0.099922,-0.718360,9.72116947174072,-2.82552361488342,0.55395519733429,1.96418678760529,4.69994354248047,1.48695826530457
608,3666228766,0.099704,-0.681033,0.099991,-0.718492,9.67439079284668,-2.83871865272522,0.54607862234116,2.40723562240601,4.93587493896484,1.43039250373840
609,3666245433,0.099682,-0.680889,0.100017,-0.718628,9.66551113128662,-2.85344862937927,0.48584017157555,3.18784642219543,4.73233079910278,1.27161931991577
610,3666262100,0.099794,-0.680771,0.099903,-0.718740,9.66962242126465,-2.82283997535706,0.49786841869354,3.90953469276428,4.48701143264771,1.24630105495453
611,3666278767,0.099864,-0.680665,0.099833,-0.718841,9.68631649017334,-2.77974319458008,0.48003220558167,4.05425977706909,4.25266885757446,1.27866291999817
612,3666295434,0.099896,-0.680605,0.099785,-0.718899,9.67389678955078,-2.77744436264038,0.48523697257042,3.51694440841675,3.93025660514832,1.17867088317871
613,3666312101,0.099847,-0.680586,0.099841,-0.718916,9.68581390380859,-2.76762056350708,0.48549810051918,2.44396400451660,3.69694995880127,1.25379300117493
614,3666328768,0.099712,-0.680593,0.099982,-0.718909,9.69201564788818,-2.77670645713806,0.50881606340408,1.72898519039154,3.52927613258362,1.23591518402100
615,3666345435,0.099600,-0.680630,0.100102,-0.718872,9.68939781188965,-2.80019307136536,0.51787394285202,1.76871085166931,3.25013685226440,1.24522554874420
616,3666362102,0.099458,-0.680681,0.100244,-0.718824,9.70531177520752,-2.80529546737671,0.54133510589600,1.68660914897919,3.10429763793945,1.20964944362640
617,3666378769,0.099359,-0.680690,0.100370,-0.718812,9.69453811645508,-2.84177422523499,0.54804658889771,1.90181970596313,3.48225116729736,1.34544777870178
618,3666395436,0.099315,-0.680699,0.100425,-0.718802,9.68469905853271,-2.86532735824585,0.53441715240479,2.32011389732361,3.46829271316528,1.26745736598969
619,3666412103,0.099303,-0.680712,0.100462,-0.718786,9.73686599731445,-2.84063172340393,0.54765427112579,2.67847371101379,3.33806514739990,1.35126209259033
620,3666428770,0.099279,-0.680722,0.100608,-0.718759,9.74373054504395,-2.75421166419983,0.55548340082169,2.45533585548401,3.26637482643127,1.83881270885468
621,3666445437,0.099245,-0.680697,0.100839,-0.718756,9.69308185577393,-2.76030564308167,0.58293569087982,1.37093257904053,3.82932972908020,2.15292716026306
622,3666462104,0.099142,-0.680687,0.101150,-0.718736,9.61814212799072,-2.81725883483887,0.55486619472504,0.81717324256897,3.71435379981995,2.20355033874512
623,3666478771,0.099011,-0.680634,0.101492,-0.718755,9.63028526306152,-2.86552643775940,0.51634436845779,0.89617556333542,4.05726957321167,2.21977615356445
624,3666495438,0.098945,-0.680565,0.101746,-0.718794,9.72720146179199,-2.90859842300415,0.47271424531937,1.65513110160828,4.12288904190063,2.13393497467041
625,3666512105,0.098866,-0.680459,0.101930,-0.718879,9.76771163940430,-2.88727164268494,0.49343734979630,1.79402899742126,4.55235099792480,1.72099423408508
626,3666528772,0.098702,-0.680401,0.102081,-0.718935,9.68859291076660,-2.85696887969971,0.52011716365814,1.49254190921783,4.21459579467773,1.14160931110382
627,3666545439,0.098601,-0.680352,0.102148,-0.718986,9.63848590850830,-2.92137408256531,0.50403875112534,1.74544155597687,4.18703651428223,1.02489233016968
628,3666562106,0.098557,-0.680290,0.102114,-0.719055,9.59202766418457,-2.90724658966064,0.48871463537216,3.18045735359192,4.02722644805908,0.86670821905136
629,3666578773,0.098594,-0.680233,0.101985,-0.719122,9.61411571502686,-2.83480000495911,0.49303734302521,3.93064022064209,3.89904737472534,0.81795436143875
630,3666595440,0.098642,-0.680169,0.101843,-0.719196,9.65663146972656,-2.79487943649292,0.49934673309326,4.00148534774780,3.96652364730835,0.80422610044479
631,3666612107,0.098598,-0.680108,0.101774,-0.719270,9.68837642669678,-2.76280522346497,0.49154561758041,3.32869076728821,4.02896785736084,0.70009768009186
632,3666628774,0.098422,-0.680090,0.101837,-0.719303,9.68576240539551,-2.75690698623657,0.51484960317612,1.97303569316864,3.81484508514404,0.65956532955170
633,3666645441,0.098170,-0.680111,0.101947,-0.719301,9.68261623382568,-2.81060838699341,0.51078027486801,1.52556931972504,3.47869181632996,0.50779742002487
634,3666662108,0.097971,-0.680189,0.101964,-0.719253,9.67944622039795,-2.86592388153076,0.52671235799789,2.04772257804871,2.92486786842346,0.32274565100670
635,3666678775,0.097908,-0.680283,0.101827,-0.719191,9.71077537536621,-2.88640141487122,0.50363183021545,3.20248365402222,2.64647054672241,0.26151844859123
636,3666695442,0.097959,-0.680390,0.101561,-0.719121,9.69952106475830,-2.83978724479675,0.52034020423889,4.38864660263062,2.37516832351685,0.21641449630260
637,3666712109,0.098016,-0.680518,0.101274,-0.719032,9.70744800567627,-2.81627583503723,0.50377410650253,4.62879085540771,2.11395668983459,0.15692901611328
638,3666728776,0.098045,-0.680680,0.100968,-0.718918,9.67080402374268,-2.80467462539673,0.51381903886795,4.45878696441650,1.86958611011505,-0.08552720397711
639,3666745443,0.098063,-0.680869,0.100633,-0.718784,9.66003608703613,-2.79618000984192,0.49813401699066,4.47788143157959,1.64313173294067,-0.28277063369751
640,3666762110,0.098078,-0.681063,0.100278,-0.718648,9.69431972503662,-2.85160946846008,0.47429567575455,4.69129943847656,1.55305159091949,-0.38689905405045
641,3666778777,0.098087,-0.681273,0.099846,-0.718507,9.71851348876953,-2.82298946380615,0.47147664427757,5.21675682067871,1.34324550628662,-0.76933515071869
642,3666795444,0.098091,-0.681532,0.099375,-0.718326,9.70836067199707,-2.80048203468323,0.47478201985359,5.46873474121094,0.84915065765381,-0.98002535104752
643,3666812111,0.098203,-0.681821,0.098824,-0.718112,9.73408412933350,-2.76793241500854,0.48698189854622,5.96594047546387,0.53257769346237,-0.84193432331085
644,3666828778,0.098351,-0.682141,0.098278,-0.717864,9.73520278930664,-2.74576210975647,0.46937394142151,5.95272541046143,0.23074483871460,-0.63799327611923
645,3666845445,0.098513,-0.682443,0.097785,-0.717622,9.72898769378662,-2.72024536132812,0.49546298384666,5.84849309921265,0.34912669658661,-0.31586223840714
646,3666862112,0.098558,-0.682688,0.097466,-0.717425,9.72441387176514,-2.70419073104858,0.49632349610329,5.29969072341919,0.80249720811844,-0.03060077503324
647,3666878779,0.098585,-0.682898,0.097210,-0.717257,9.69147682189941,-2.71996974945068,0.48979610204697,4.39784145355225,1.33428084850311,0.16260223090649
648,3666895446,0.098559,-0.683072,0.097096,-0.717110,9.69187164306641,-2.73690772056580,0.48416307568550,3.48040795326233,1.74144613742828,0.57103520631790
649,3666912113,0.098493,-0.683205,0.097090,-0.716994,9.71304321289062,-2.77519345283508,0.48777109384537,2.75417184829712,2.19997715950012,0.88622492551804
650,3666928780,0.098407,-0.683288,0.097151,-0.716917,9.72901153564453,-2.78346705436707,0.45534268021584,2.70082092285156,2.60478639602661,1.12494826316833
651,3666945447,0.098416,-0.683328,0.097211,-0.716870,9.71574497222900,-2.78158545494080,0.46188989281654,2.64639401435852,3.05533909797668,1.57014822959900
652,3666962114,0.098487,-0.683356,0.097231,-0.716831,9.73822402954102,-2.78357577323914,0.47281122207642,2.40393090248108,3.30995440483093,1.66248166561127
653,3666978781,0.098439,-0.683327,0.097400,-0.716842,9.73542594909668,-2.78620195388794,0.47455412149429,2.04411149024963,3.75107002258301,1.80948638916016
654,3666995448,0.098387,-0.683319,0.097530,-0.716839,9.71390056610107,-2.76543664932251,0.45545595884323,2.04468750953674,3.59894323348999,1.60008955001831
655,3667012115,0.098283,-0.683292,0.097730,-0.716852,9.74038505554199,-2.78144502639771,0.45637130737305,1.71049308776855,3.77683591842651,1.67997550964355
656,3667028782,0.098192,-0.683252,0.097901,-0.716879,9.69474792480469,-2.78409171104431,0.43975728750229,1.79990720748901,3.91689968109131,1.61082124710083
657,3667045449,0.098099,-0.683186,0.098064,-0.716932,9.71010875701904,-2.79808163642883,0.45876148343086,1.92182338237762,4.15037155151367,1.55854570865631
658,3667062116,0.098076,-0.683125,0.098160,-0.716981,9.67562961578369,-2.77118730545044,0.45286667346954,2.46725869178772,4.04498815536499,1.59030532836914
659,3667078783,0.098054,-0.683078,0.098227,-0.717019,9.70292091369629,-2.76146006584167,0.46199640631676,2.36078643798828,3.97733187675476,1.44134187698364
660,3667095450,0.098005,-0.683017,0.098337,-0.717069,9.69104194641113,-2.77473282814026,0.45501986145973,2.08693528175354,4.13487529754639,1.50975322723389
661,3667112117,0.097944,-0.682975,0.098411,-0.717108,9.69038963317871,-2.76099824905396,0.43609005212784,2.44095468521118,3.89959788322449,1.29492688179016
662,3667128784,0.097862,-0.682947,0.098494,-0.717134,9.67506217956543,-2.76122760772705,0.45116168260574,2.35557460784912,3.77010011672974,1.23363578319550
663,3667145451,0.097752,-0.682939,0.098579,-0.717144,9.71488285064697,-2.76920604705811,0.43432578444481,2.00797176361084,3.66367936134338,1.09248423576355
664,3667162118,0.097617,-0.682935,0.098643,-0.717158,9.69481182098389,-2.78001832962036,0.46203076839447,2.04877257347107,3.64918184280396,0.86814242601395
665,3667178785,0.097489,-0.682938,0.098647,-0.717172,9.68860626220703,-2.81231617927551,0.46295616030693,2.86229610443115,3.42088317871094,0.63828128576279
666,3667195452,0.097517,-0.682975,0.098476,-0.717156,9.69959640502930,-2.80595326423645,0.44379907846451,3.80074548721313,3.08220672607422,0.55781900882721
667,3667212119,0.097609,-0.683038,0.098228,-0.717118,9.71548748016357,-2.76538896560669,0.49179282784462,4.22653102874756,2.82221245765686,0.49161016941071
668,3667228786,0.097599,-0.683094,0.098046,-0.717091,9.70102310180664,-2.74594449996948,0.45278662443161,3.98082804679871,2.85430502891541,0.32697173953056
669,3667245453,0.097525,-0.683125,0.097965,-0.717083,9.72134208679199,-2.75366759300232,0.47302407026291,3.56778526306152,3.06299734115601,0.51015377044678
670,3667262120,0.097496,-0.683178,0.097827,-0.717054,9.70672512054443,-2.76013565063477,0.47194954752922,3.47563123703003,2.96295452117920,0.43122828006744
671,3667278787,0.097458,-0.683212,0.097715,-0.717043,9.65501785278320,-2.75225710868835,0.48150905966759,3.41656780242920,3.13787627220154,0.51275348663330
672,3667295454,0.097432,-0.683227,0.097631,-0.717044,9.65354347229004,-2.74081015586853,0.49631664156914,3.40386438369751,3.28356122970581,0.71408218145370
673,3667312121,0.097404,-0.683222,0.097574,-0.717060,9.67721652984619,-2.75384759902954,0.46804684400558,3.22575378417969,3.48561978340149,0.82725185155869
674,3667328788,0.097333,-0.683209,0.097539,-0.717086,9.74574470520020,-2.77471065521240,0.43951788544655,3.48463320732117,3.45123434066772,0.74899214506149
675,3667345455,0.097341,-0.683235,0.097397,-0.717080,9.81376361846924,-2.74410057067871,0.43718528747559,3.41772031784058,3.26120138168335,0.58500689268112
676,3667362122,0.097216,-0.683295,0.097357,-0.717046,9.77854537963867,-2.72552442550659,0.43312123417854,2.74066162109375,2.96952414512634,0.43038308620453
677,3667378789,0.097013,-0.683376,0.097428,-0.716986,9.68564128875732,-2.73598289489746,0.47024080157280,1.81416034698486,2.86782860755920,0.56947278976440
678,3667395456,0.096853,-0.683428,0.097487,-0.716951,9.65750503540039,-2.77291727066040,0.46508416533470,1.92569053173065,3.14052629470825,0.71967834234238
679,3667412123,0.096745,-0.683443,0.097477,-0.716952,9.64389324188232,-2.79934382438660,0.45986154675484,2.61176562309265,3.40374875068665,0.65505760908127
680,3667428790,0.096751,-0.683434,0.097346,-0.716978,9.65616607666016,-2.77133417129517,0.50058066844940,3.69328737258911,3.50156354904175,0.64162373542786
681,3667445457,0.096808,-0.683412,0.097184,-0.717013,9.70982646942139,-2.72936058044434,0.47263586521149,4.16822433471680,3.53268289566040,0.75768774747849
682,3667462124,0.096799,-0.683368,0.097134,-0.717062,9.74617004394531,-2.69307160377502,0.45988774299622,4.02805852890015,3.62048363685608,0.98845815658569
683,3667478791,0.096818,-0.683351,0.097070,-0.717085,9.73384761810303,-2.68193197250366,0.44792911410332,3.44431877136230,3.56490373611450,1.03150033950806
684,3667495458,0.096757,-0.683334,0.097169,-0.717096,9.74869441986084,-2.67045974731445,0.44737881422043,2.34411311149597,3.63852810859680,1.41453826427460
685,3667512125,0.096641,-0.683328,0.097359,-0.717092,9.74050903320312,-2.70705986022949,0.47170725464821,1.32605898380280,3.69907546043396,1.56149089336395
686,3667528792,0.096398,-0.683305,0.097695,-0.717100,9.73319721221924,-2.73347473144531,0.47646754980087,0.64381361007690,3.83589863777161,1.64904797077179
687,3667545459,0.096188,-0.683292,0.097958,-0.717105,9.69330501556396,-2.78097915649414,0.44532358646393,1.07671940326691,3.72618675231934,1.46298432350159
688,3667562126,0.096102,-0.683297,0.098096,-0.717093,9.61358261108398,-2.77802419662476,0.43826335668564,2.09858942031860,3.43805646896362,1.47968387603760
689,3667578793,0.096093,-0.683258,0.098169,-0.717121,9.62858581542969,-2.75258564949036,0.42037856578827,3.04255819320679,3.68614172935486,1.55968534946442
690,3667595460,0.096161,-0.683196,0.098164,-0.717172,9.67045879364014,-2.75427794456482,0.41643816232681,3.56994962692261,3.87506079673767,1.57090377807617
691,3667612127,0.096189,-0.683159,0.098138,-0.717207,9.67954158782959,-2.69847702980042,0.41365888714790,3.37083673477173,3.72014284133911,1.26075971126556
692,3667628794,0.096125,-0.683132,0.098211,-0.717232,9.69532203674316,-2.70647788047791,0.43047621846199,2.42761039733887,3.75783181190491,1.27288734912872
693,3667645461,0.095996,-0.683116,0.098353,-0.717244,9.68192291259766,-2.73280835151672,0.42763611674309,1.99394869804382,3.65518856048584,1.28450262546539
694,3667662128,0.095870,-0.683143,0.098494,-0.717217,9.68409633636475,-2.75039696693420,0.44693481922150,1.79114758968353,3.31154322624207,1.28833186626434
695,3667678795,0.095722,-0.683152,0.098647,-0.717206,9.68919849395752,-2.76009488105774,0.44822001457214,1.73578536510468,3.47317147254944,1.24448251724243
696,3667695462,0.095646,-0.683158,0.098681,-0.717206,9.67308330535889,-2.76299500465393,0.42008677124977,2.41892743110657,3.48938488960266,1.01432693004608
697,3667712129,0.095605,-0.683166,0.098643,-0.717210,9.70513439178467,-2.76004672050476,0.43383744359016,3.14776277542114,3.36103963851929,0.86291754245758
698,3667728796,0.095636,-0.683175,0.098512,-0.717215,9.70843601226807,-2.75199317932129,0.44867548346519,3.99006199836731,3.24101877212524,0.77981716394424
699,3667745463,0.095744,-0.683191,0.098327,-0.717211,9.73025989532471,-2.72641634941101,0.41950595378876,4.15991210937500,3.20946335792542,0.88124340772629
700,3667762130,0.095759,-0.683233,0.098290,-0.717174,9.77365970611572,-2.68495011329651,0.47661378979683,3.33255839347839,2.97486424446106,1.14484941959381
701,3667778797,0.095670,-0.683287,0.098368,-0.717123,9.78713703155518,-2.68801355361938,0.47370907664299,2.06132316589355,3.05363607406616,1.16112625598907
702,3667795464,0.095494,-0.683331,0.098542,-0.717081,9.75460338592529,-2.74140834808350,0.49199938774109,1.54267859458923,3.16519212722778,1.20286202430725
703,3667812131,0.095333,-0.683376,0.098693,-0.717038,9.75323581695557,-2.77875757217407,0.49887603521347,1.87396597862244,3.07515001296997,1.17455995082855
704,3667828798,0.095283,-0.683394,0.098748,-0.717021,9.72116947174072,-2.79119181632996,0.49828839302063,2.54332804679871,3.30818724632263,1.25833904743195
705,3667845465,0.095312,-0.683402,0.098712,-0.717014,9.70864963531494,-2.78108239173889,0.46874922513962,3.37673974037170,3.28649353981018,1.21656465530396
706,3667862132,0.095411,-0.683378,0.098609,-0.717038,9.70675659179688,-2.78290867805481,0.48278167843819,4.07122850418091,3.50735211372375,1.24799156188965
707,3667878799,0.095526,-0.683353,0.098499,-0.717062,9.71484088897705,-2.73249340057373,0.46099612116814,4.18989229202271,3.49020433425903,1.29100823402405
708,3667895466,0.095567,-0.683315,0.098470,-0.717096,9.74597930908203,-2.72049307823181,0.46530669927597,3.36247372627258,3.73707270622253,1.31160080432892
709,3667912133,0.095546,-0.683269,0.098515,-0.717137,9.71407413482666,-2.74937820434570,0.46612098813057,2.65544795989990,3.91901230812073,1.35078823566437
710,3667928800,0.095496,-0.683245,0.098576,-0.717158,9.73150062561035,-2.77165532112122,0.45040974020958,2.70389461517334,3.64795279502869,1.29761636257172
711,3667945467,0.095464,-0.683231,0.098585,-0.717175,9.73271942138672,-2.77376770973206,0.43078404664993,2.83723425865173,3.60721635818481,1.12045323848724
712,3667962134,0.095468,-0.683222,0.098540,-0.717189,9.69465351104736,-2.77377653121948,0.43823590874672,3.44476747512817,3.44525408744812,1.05277168750763
713,3667978801,0.095549,-0.683216,0.098415,-0.717201,9.70647430419922,-2.75170254707336,0.47465094923973,4.01133346557617,3.37651014328003,1.05031287670135
714,3667995468,0.095637,-0.683213,0.098285,-0.717210,9.71911144256592,-2.72199630737305,0.47414743900299,4.18182420730591,3.30841827392578,1.07087993621826
715,3668012135,0.095705,-0.683207,0.098189,-0.717220,9.72206878662109,-2.71740412712097,0.45835405588150,3.97121119499207,3.33964037895203,1.13078808784485
716,3668028802,0.095738,-0.683203,0.098156,-0.717224,9.72348976135254,-2.74794459342957,0.45216584205627,3.42905402183533,3.38911104202271,1.25251233577728
717,3668045469,0.095729,-0.683212,0.098148,-0.717217,9.71469688415527,-2.72741007804871,0.44758659601212,2.96214747428894,3.35919594764709,1.15944862365723
718,3668062136,0.095709,-0.683205,0.098155,-0.717226,9.66984272003174,-2.70984077453613,0.47916522622108,2.97282814979553,3.49585199356079,1.17558467388153
719,3668078803,0.095757,-0.683206,0.098066,-0.717230,9.64783763885498,-2.75706934928894,0.44727742671967,3.39933061599731,3.43502187728882,1.04811012744904
720,3668095470,0.095892,-0.683208,0.097915,-0.717231,9.67578220367432,-2.76142835617065,0.42568591237068,4.24346065521240,3.27163791656494,1.18553507328033
721,3668112137,0.096089,-0.683228,0.097663,-0.717220,9.73956775665283,-2.74523925781250,0.41159987449646,5.06981706619263,3.00331997871399,1.01923191547394
722,3668128804,0.096239,-0.683286,0.097443,-0.717175,9.80687427520752,-2.70591926574707,0.41814586520195,4.62637138366699,2.71342277526855,0.93387758731842
723,3668145471,0.096234,-0.683404,0.097373,-0.717073,9.78126907348633,-2.66705799102783,0.42958524823189,2.99156379699707,2.38066244125366,0.86636257171631
724,3668162138,0.096059,-0.683519,0.097471,-0.716973,9.72054481506348,-2.70517063140869,0.45940658450127,1.68680119514465,2.53514504432678,0.83485883474350
725,3668178805,0.095891,-0.683612,0.097548,-0.716897,9.66865634918213,-2.78818249702454,0.45275205373764,1.78240048885345,2.75547790527344,0.77010983228683
726,3668195472,0.095878,-0.683675,0.097471,-0.716848,9.65111541748047,-2.80765819549561,0.45384702086449,3.14917087554932,2.87535858154297,0.80349594354630
727,3668212139,0.095973,-0.683747,0.097265,-0.716796,9.66944408416748,-2.75876426696777,0.48046040534973,4.59932422637939,2.56155180931091,0.73366308212280
728,3668228806,0.096169,-0.683787,0.097023,-0.716764,9.70979404449463,-2.71900892257690,0.48111480474472,5.14390134811401,2.76402020454407,1.06927919387817
729,3668245473,0.096356,-0.683835,0.096813,-0.716721,9.74495220184326,-2.68121218681335,0.47643354535103,4.91097927093506,2.70986223220825,1.17245995998383
730,3668262140,0.096544,-0.683891,0.096637,-0.716666,9.77145767211914,-2.66927719116211,0.44968616962433,4.07449388504028,2.83454489707947,1.31317603588104
731,3668278807,0.096615,-0.683939,0.096613,-0.716614,9.77004241943359,-2.69061303138733,0.44384777545929,3.11249423027039,2.96369695663452,1.47280716896057
732,3668295474,0.096615,-0.683969,0.096716,-0.716572,9.76723766326904,-2.73747611045837,0.45063927769661,2.45490074157715,3.14977312088013,1.73618257045746
733,3668312141,0.096614,-0.684012,0.096831,-0.716515,9.76332187652588,-2.75210404396057,0.45057752728462,2.17307114601135,3.08284687995911,1.77969837188721
734,3668328808,0.096607,-0.684041,0.096934,-0.716475,9.75771427154541,-2.78163361549377,0.45961502194405,2.45003390312195,3.15996646881104,1.69680285453796
735,3668345475,0.096634,-0.684067,0.096977,-0.716440,9.66349601745605,-2.78278708457947,0.44328647851944,3.02379727363586,3.10318374633789,1.58980607986450
736,3668362142,0.096744,-0.684079,0.096941,-0.716419,9.64578247070312,-2.78760528564453,0.44749614596367,3.88073420524597,3.10363221168518,1.62778973579407
737,3668378809,0.097002,-0.684065,0.096751,-0.716423,9.69195175170898,-2.76184248924255,0.41981321573257,4.84561491012573,3.31462883949280,1.61317729949951
738,3668395476,0.097197,-0.684033,0.096610,-0.716446,9.72037029266357,-2.71455311775208,0.40436509251595,4.74635362625122,3.43794155120850,1.54856956005096
739,3668412143,0.097210,-0.684013,0.096626,-0.716461,9.73880767822266,-2.66701650619507,0.41045281291008,3.43573904037476,3.47123813629150,1.40221869945526
740,3668428810,0.097156,-0.684014,0.096750,-0.716451,9.71943187713623,-2.71123003959656,0.42286628484726,2.20082235336304,3.47826862335205,1.56469237804413
741,3668445477,0.097040,-0.684035,0.096925,-0.716423,9.69039440155029,-2.75318145751953,0.41083756089211,1.70548582077026,3.34112572669983,1.50629591941833
742,3668462144,0.096969,-0.684086,0.097015,-0.716372,9.69739818572998,-2.78925442695618,0.41804379224777,2.03186845779419,3.07759666442871,1.31172883510590
743,3668478811,0.096978,-0.684101,0.097026,-0.716354,9.68792152404785,-2.76442289352417,0.41159433126450,3.04806518554688,3.24582099914551,1.34681832790375
744,3668495478,0.097032,-0.684110,0.096932,-0.716352,9.70843982696533,-2.74965167045593,0.42368036508560,3.70509552955627,3.27615904808044,1.05812466144562
745,3668512145,0.097117,-0.684129,0.096803,-0.716340,9.70083332061768,-2.74415445327759,0.44955635070801,3.88046479225159,3.17733240127563,1.04154050350189
746,3668528812,0.097156,-0.684175,0.096707,-0.716303,9.71525096893311,-2.70142221450806,0.42209312319756,3.73575282096863,2.89458060264587,0.98420637845993
747,3668545479,0.097208,-0.684240,0.096629,-0.716245,9.72905731201172,-2.71220946311951,0.40946802496910,3.30977511405945,2.82492709159851,1.11809670925140
748,3668562146,0.097218,-0.684306,0.096611,-0.716183,9.71892261505127,-2.71525192260742,0.40805420279503,2.95745944976807,2.81720471382141,1.19872558116913
749,3668578813,0.097184,-0.684355,0.096652,-0.716135,9.74398326873779,-2.71290516853333,0.43815776705742,2.69491744041443,2.97293019294739,1.27087652683258
750,3668595480,0.097166,-0.684415,0.096688,-0.716075,9.73504829406738,-2.75661110877991,0.43966472148895,2.56103944778442,2.91231775283813,1.32014250755310
751,3668612147,0.097146,-0.684493,0.096698,-0.716001,9.73108863830566,-2.74423789978027,0.44586262106895,2.87054324150085,2.68565797805786,1.19252717494965
752,3668628814,0.097159,-0.684569,0.096668,-0.715931,9.73286342620850,-2.75966286659241,0.44797566533089,3.06377840042114,2.71114253997803,1.16279089450836
753,3668645481,0.097219,-0.684638,0.096575,-0.715870,9.72577285766602,-2.78413748741150,0.44024154543877,3.62262225151062,2.70361304283142,1.09066569805145
754,3668662148,0.097323,-0.684683,0.096416,-0.715834,9.72993659973145,-2.77847480773926,0.43507391214371,4.28345537185669,2.84516143798828,1.00226330757141
755,3668678815,0.097434,-0.684721,0.096226,-0.715809,9.71129608154297,-2.74349999427795,0.44720712304115,4.48396396636963,2.90166282653809,0.88598173856735
756,3668695482,0.097531,-0.684757,0.096075,-0.715781,9.71595191955566,-2.71929097175598,0.44123426079750,4.22726154327393,2.93680357933044,1.00605416297913
757,3668712149,0.097578,-0.684796,0.096001,-0.715747,9.72103118896484,-2.71996784210205,0.41240695118904,3.60922694206238,2.97052288055420,1.13003242015839
758,3668728816,0.097591,-0.684839,0.095973,-0.715708,9.73294639587402,-2.71417307853699,0.42283952236176,3.21485519409180,2.98824667930603,1.16957843303680
759,3668745483,0.097607,-0.684884,0.095925,-0.715669,9.73481464385986,-2.72799611091614,0.41935053467751,3.22576594352722,2.98842597007751,1.09211289882660
760,3668762150,0.097614,-0.684916,0.095883,-0.715643,9.73062133789062,-2.72949767112732,0.40856435894966,3.47176361083984,3.03038001060486,1.08126604557037
761,3668778817,0.097678,-0.684959,0.095790,-0.715606,9.71898937225342,-2.73780107498169,0.41106605529785,3.69743633270264,2.94333457946777,1.11607336997986
762,3668795484,0.097773,-0.685023,0.095638,-0.715552,9.72301959991455,-2.74989271163940,0.40685054659843,4.18620443344116,2.67337703704834,0.99739694595337
763,3668812151,0.097879,-0.685088,0.095469,-0.715498,9.73524856567383,-2.72504591941833,0.40696537494659,4.32309055328369,2.65017151832581,0.95915716886520
764,3668828818,0.097984,-0.685159,0.095322,-0.715436,9.74807739257812,-2.72154927253723,0.40260159969330,4.20018863677979,2.59448981285095,1.06391334533691
765,3668845485,0.098066,-0.685225,0.095212,-0.715376,9.73568153381348,-2.70917534828186,0.40651920437813,3.91249322891235,2.67254424095154,1.12916147708893
766,3668862152,0.098107,-0.685298,0.095151,-0.715308,9.75203609466553,-2.71208071708679,0.41302025318146,3.47273683547974,2.66142868995667,1.15727150440216
767,3668878819,0.098131,-0.685365,0.095089,-0.715249,9.73256778717041,-2.72729110717773,0.41013425588608,3.40520858764648,2.73460388183594,1.06424617767334
