sep=,
DeviceTag:,C
FirmwareVersion:,3.0.0
AppVersion:,2023.6.0
StartTime: ,2024-03-14_11:56:34_000 EDT
© Movella Technologies B. V. 2005-2024

PacketCounter,SampleTimeFine,Quat_W,Quat_X,Quat_Y,Quat_Z,Acc_X,Acc_Y,Acc_Z,Gyr_X,Gyr_Y,Gyr_Z
0,3656128564,0.633691,0.380181,-0.571050,0.357490,0.00000000000000,0.00000000000000,0.00000000000000,0.00000000000000,0.00000000000000,0.00000000000000
1,3656145231,0.633617,0.380354,-0.570964,0.357576,9.82911300659180,0.77484142780304,0.59067189693451,2.49882626533508,-0.17030523717403,-0.01870367489755
2,3656161898,0.633551,0.380459,-0.570942,0.357615,9.91222286224365,0.70152109861374,0.60763055086136,1.90247261524200,-0.36998179554939,0.18719039857388
3,3656178565,0.633539,0.380539,-0.570842,0.357711,9.89555168151855,0.75050455331802,0.58857715129852,2.12284469604492,0.39434596896172,0.20236594974995
4,3656195232,0.633499,0.380762,-0.570683,0.357798,9.82526683807373,0.75241059064865,0.58422291278839,2.89292883872986,0.16735339164734,-0.48050066828728
5,3656211899,0.633445,0.380974,-0.570557,0.357868,9.86553764343262,0.72451746463776,0.63086789846420,2.71508717536926,-0.05121900141239,-0.39314857125282
6,3656228566,0.633408,0.381075,-0.570504,0.357910,9.86638545989990,0.74082279205322,0.64338678121567,1.91063034534454,-0.09952453523874,0.06796329468489
7,3656245233,0.633394,0.381127,-0.570463,0.357947,9.87366867065430,0.73557001352310,0.59034496545792,1.60012769699097,0.04026316106319,0.21234206855297
8,3656261900,0.633381,0.381173,-0.570412,0.358002,9.86917400360107,0.74724459648132,0.61136388778687,1.65578413009644,0.15595573186874,0.28928261995316
9,3656278567,0.633384,0.381225,-0.570329,0.358072,9.85198879241943,0.74225604534149,0.63400769233704,1.75011587142944,0.37607127428055,0.20486320555210
10,3656295234,0.633403,0.381269,-0.570235,0.358143,9.84905910491943,0.69592982530594,0.57965677976608,1.67892539501190,0.50309753417969,0.16481773555279
11,3656311901,0.633414,0.381271,-0.570187,0.358197,9.81738281250000,0.69952446222305,0.57094943523407,1.36415803432465,0.34353032708168,0.40698575973511
12,3656328568,0.633403,0.381273,-0.570173,0.358236,9.81759262084961,0.73198610544205,0.54926031827927,1.27957201004028,0.06337861716747,0.48016127943993
13,3656345235,0.633370,0.381269,-0.570184,0.358282,9.83023834228516,0.75293469429016,0.56115353107452,1.29727041721344,-0.09632296115160,0.65336716175079
14,3656361902,0.633326,0.381274,-0.570222,0.358293,9.84625053405762,0.74880093336105,0.58071452379227,1.20391225814819,-0.36916223168373,0.56794881820679
15,3656378569,0.633280,0.381256,-0.570274,0.358311,9.86766433715820,0.74007695913315,0.56468659639359,1.05776607990265,-0.36377081274986,0.72455775737762
16,3656395236,0.633215,0.381282,-0.570305,0.358348,9.86600875854492,0.73638939857483,0.55769866704941,1.44374942779541,-0.40371376276016,0.63671886920929
17,3656411903,0.633117,0.381344,-0.570342,0.358398,9.85564136505127,0.73021739721298,0.56290471553802,1.72847282886505,-0.62257421016693,0.63765364885330
18,3656428570,0.633039,0.381362,-0.570391,0.358438,9.86795043945312,0.73366260528564,0.60241103172302,1.38371336460114,-0.50881552696228,0.75356411933899
19,3656445237,0.632986,0.381332,-0.570455,0.358461,9.89280700683594,0.73036855459213,0.60391664505005,1.02411103248596,-0.39667031168938,0.84589785337448
20,3656461904,0.632971,0.381291,-0.570486,0.358483,9.87839126586914,0.72959816455841,0.61653578281403,0.96517604589462,-0.08548878878355,0.70739710330963
21,3656478571,0.632939,0.381278,-0.570512,0.358512,9.87714767456055,0.72565180063248,0.58192223310471,1.13679409027100,-0.17504359781742,0.65535217523575
22,3656495238,0.632927,0.381273,-0.570505,0.358550,9.88661098480225,0.72736746072769,0.59689438343048,1.25434339046478,0.03711280226707,0.52374130487442
23,3656511905,0.632930,0.381234,-0.570505,0.358585,9.87613582611084,0.72794675827026,0.58789122104645,1.04983901977539,0.15409882366657,0.62698608636856
24,3656528572,0.632945,0.381211,-0.570483,0.358618,9.86027050018311,0.72187799215317,0.56007802486420,1.13567984104156,0.24837917089462,0.47204205393791
25,3656545239,0.632964,0.381218,-0.570442,0.358644,9.86977577209473,0.72136074304581,0.59229308366776,1.25093686580658,0.25806075334549,0.26109585165977
26,3656561906,0.632985,0.381262,-0.570370,0.358673,9.85732364654541,0.72104269266129,0.59094029664993,1.51404345035553,0.30780065059662,0.04172308743000
27,3656578573,0.633016,0.381327,-0.570271,0.358707,9.86344051361084,0.72340321540833,0.55039674043655,1.68936252593994,0.43819490075111,-0.11197232455015
28,3656595240,0.633053,0.381378,-0.570191,0.358715,9.84648036956787,0.69854050874710,0.54057782888412,1.42567968368530,0.33628192543983,-0.14049206674099
29,3656611907,0.633101,0.381411,-0.570116,0.358714,9.88296318054199,0.70356345176697,0.52774989604950,1.28317070007324,0.38708472251892,-0.11519952118397
30,3656628574,0.633184,0.381414,-0.570039,0.358687,9.85478782653809,0.72620779275894,0.53229552507401,0.97277027368546,0.53585606813431,-0.20366577804089
31,3656645241,0.633305,0.381391,-0.569946,0.358645,9.86201286315918,0.72071689367294,0.52943450212479,0.78336441516876,0.77869009971619,-0.30383706092834
32,3656661908,0.633457,0.381349,-0.569843,0.358585,9.86075305938721,0.72148007154465,0.55448150634766,0.51283031702042,0.93871825933456,-0.40851613879204
33,3656678575,0.633627,0.381292,-0.569746,0.358500,9.85633468627930,0.73062807321548,0.53304368257523,0.29571142792702,0.95554584264755,-0.49060487747192
34,3656695242,0.633776,0.381236,-0.569657,0.358437,9.84957408905029,0.73711764812469,0.53959715366364,0.45187202095985,0.90172064304352,-0.32823312282562
35,3656711909,0.633922,0.381235,-0.569546,0.358356,9.82036685943604,0.73147809505463,0.57347434759140,0.69760030508041,0.79964131116867,-0.66495054960251
36,3656728576,0.634036,0.381281,-0.569452,0.358255,9.84832191467285,0.70016002655029,0.59855490922928,0.83813726902008,0.43134349584579,-0.81974095106125
37,3656745243,0.634111,0.381289,-0.569424,0.358158,9.89202976226807,0.68883836269379,0.66158729791641,0.62181234359741,0.09408824145794,-0.37997081875801
38,3656761910,0.634194,0.381259,-0.569416,0.358057,9.89893817901611,0.72810506820679,0.67157238721848,0.37270316481590,0.12319708615541,-0.21944320201874
39,3656778577,0.634272,0.381241,-0.569385,0.357985,9.88740825653076,0.73273968696594,0.67409753799438,0.60257714986801,0.24659904837608,-0.18332931399345
40,3656795244,0.634370,0.381209,-0.569355,0.357895,9.88264465332031,0.74944758415222,0.69663119316101,0.44222891330719,0.30853056907654,-0.25235551595688
41,3656811911,0.634357,0.381313,-0.569284,0.357920,9.87725448608398,0.72362411022186,0.52408939599991,1.84397351741791,0.02034928835928,-0.12252475321293
42,3656828578,0.634327,0.381495,-0.569212,0.357893,9.82727909088135,0.80710935592651,0.70139151811600,2.01586031913757,-0.37128809094429,-0.61732369661331
43,3656845245,0.634460,0.381513,-0.569108,0.357805,9.92277240753174,0.70970517396927,0.68507707118988,0.72480100393295,0.65192013978958,-0.72894382476807
44,3656861912,0.634658,0.381300,-0.569122,0.357657,9.76364612579346,0.74328953027725,0.52829754352570,-0.98053735494614,0.80160069465637,0.07074227929115
45,3656878579,0.634792,0.381183,-0.569113,0.357559,9.80634307861328,0.72899198532104,0.54861521720886,-0.12454816699028,0.54759955406189,0.00765819801018
46,3656895246,0.634776,0.381079,-0.569228,0.357515,9.82223510742188,0.74160373210907,0.56130576133728,0.23124425113201,-0.47522440552711,0.88625055551529
47,3656911913,0.634633,0.381168,-0.569270,0.357607,9.86772918701172,0.78187108039856,0.60834985971451,2.11218976974487,-0.76727330684662,0.84594911336899
48,3656928580,0.634503,0.381376,-0.569233,0.357675,9.82361793518066,0.79327034950256,0.59010058641434,2.65435934066772,-0.73328524827957,0.03313003107905
49,3656945247,0.634400,0.381566,-0.569243,0.357638,9.85239028930664,0.78074258565903,0.60031521320343,2.01629567146301,-1.05678641796112,-0.29433476924896
50,3656961914,0.634365,0.381626,-0.569258,0.357613,9.89202785491943,0.78810286521912,0.60013765096664,1.33006751537323,-0.46039471030235,0.11261904239655
51,3656978581,0.634385,0.381612,-0.569261,0.357588,9.87574291229248,0.75717443227768,0.56910645961761,0.87942481040955,-0.01656501553953,0.23927383124828
52,3656995248,0.634403,0.381658,-0.569217,0.357578,9.84665870666504,0.75067669153214,0.54633432626724,1.30714416503906,0.07582639902830,-0.05718676000834
53,3657011915,0.634413,0.381756,-0.569145,0.357571,9.82489681243896,0.75741630792618,0.57402575016022,1.65466988086700,0.04830554500222,-0.29553851485252
54,3657028582,0.634382,0.381875,-0.569072,0.357614,9.83274173736572,0.75410199165344,0.58276134729385,2.01858782768250,-0.02839807979763,-0.06716290116310
55,3657045249,0.634376,0.381930,-0.569034,0.357627,9.83607578277588,0.77063328027725,0.59129828214645,1.48691976070404,-0.01085338182747,0.08549519628286
56,3657061916,0.634390,0.381927,-0.569051,0.357578,9.86963462829590,0.77492475509644,0.59699773788452,0.79079204797745,-0.18741452693939,0.13757860660553
57,3657078583,0.634414,0.381871,-0.569100,0.357517,9.89059448242188,0.78061419725418,0.67397952079773,0.43258565664291,-0.18890005350113,0.35499200224876
58,3657095250,0.634459,0.381821,-0.569112,0.357470,9.90897655487061,0.79479777812958,0.67166894674301,0.53977483510971,0.07521169632673,0.24088743329048
59,3657111917,0.634528,0.381749,-0.569116,0.357418,9.91362571716309,0.78957319259644,0.69424217939377,0.36845147609711,0.23863349854946,0.22516123950481
60,3657128584,0.634634,0.381671,-0.569068,0.357390,9.90147399902344,0.74889642000198,0.57215118408203,0.50115090608597,0.69923943281174,0.13222555816174
61,3657145251,0.634748,0.381595,-0.569036,0.357321,9.80208015441895,0.78269588947296,0.64335256814957,0.23306275904179,0.54222077131271,-0.04376569762826
62,3657161918,0.634816,0.381500,-0.569057,0.357267,9.80469131469727,0.76593416929245,0.58973801136017,0.23913295567036,0.21496737003326,0.35591405630112
63,3657178585,0.634879,0.381269,-0.569210,0.357158,9.88344573974609,0.74660909175873,0.74228864908218,-0.88505321741104,-0.18603144586086,1.00709140300751
64,3657195252,0.634994,0.381081,-0.569195,0.357179,9.85437488555908,0.78054040670395,0.63581013679504,0.11036512255669,0.98437285423279,0.83885431289673
65,3657211919,0.635036,0.380953,-0.569257,0.357142,9.85823059082031,0.79589563608170,0.62261766195297,0.12247993052006,0.06222605332732,0.72755438089371
66,3657228586,0.635110,0.380803,-0.569292,0.357115,9.89199638366699,0.78888630867004,0.66111201047897,0.05405559763312,0.38805800676346,0.71059870719910
67,3657245253,0.635194,0.380616,-0.569338,0.357090,9.86912345886230,0.76296174526215,0.65363413095474,-0.18286827206612,0.47228533029556,0.86659282445908
68,3657261920,0.635317,0.380378,-0.569379,0.357061,9.88643360137939,0.74875473976135,0.67080408334732,-0.48730087280273,0.76234930753708,0.93934577703476
69,3657278587,0.635472,0.380136,-0.569379,0.357041,9.90153884887695,0.76664733886719,0.64859914779663,-0.46412128210068,1.09722256660461,0.80861854553223
70,3657295254,0.635650,0.379897,-0.569350,0.357025,9.87112426757812,0.74510675668716,0.66714560985565,-0.43720236420631,1.31600618362427,0.68147712945938
71,3657311921,0.635801,0.379713,-0.569263,0.357092,9.84739685058594,0.73038536310196,0.67550384998322,0.37000107765198,1.55204010009766,0.74678951501846
72,3657328588,0.635858,0.379637,-0.569155,0.357242,9.82653999328613,0.73901927471161,0.65097838640213,1.43417024612427,1.22186648845673,0.85592514276505
73,3657345255,0.635902,0.379545,-0.569100,0.357350,9.90358352661133,0.78221899271011,0.62317156791687,1.13535988330841,0.87233018875122,0.91384840011597
74,3657361922,0.635958,0.379515,-0.568992,0.357453,9.90668678283691,0.76897078752518,0.63576030731201,1.49444973468781,0.98989230394363,0.48123693466187
75,3657378589,0.636021,0.379563,-0.568827,0.357555,9.89844989776611,0.75968027114868,0.67158383131027,1.96581315994263,1.06974005699158,0.00682578468695
76,3657395256,0.636126,0.379635,-0.568624,0.357612,9.90992164611816,0.74946844577789,0.64152067899704,1.83237111568451,1.21892106533051,-0.48981085419655
77,3657411923,0.636255,0.379748,-0.568374,0.357662,9.89483928680420,0.73890072107315,0.61485016345978,2.07839369773865,1.40688002109528,-0.86165601015091
78,3657428590,0.636383,0.379860,-0.568091,0.357764,9.89220905303955,0.74564641714096,0.65844565629959,2.34677648544312,1.67580056190491,-0.71659857034683
79,3657445257,0.636524,0.379877,-0.567848,0.357882,9.90893745422363,0.75768762826920,0.71116048097610,1.83039867877960,1.83126962184906,-0.20141185820103
80,3657461924,0.636682,0.379853,-0.567596,0.358026,9.90278244018555,0.74532854557037,0.73722720146179,1.75299727916718,2.10818123817444,0.00822167564183
81,3657478591,0.636851,0.379882,-0.567289,0.358181,9.88192844390869,0.73379534482956,0.68759036064148,2.12965798377991,2.28741955757141,-0.32094639539719
82,3657495258,0.637036,0.379955,-0.566967,0.358282,9.82899093627930,0.73134219646454,0.64874529838562,2.11673593521118,2.16550254821777,-0.80812555551529
83,3657511925,0.637207,0.380069,-0.566669,0.358330,9.81329822540283,0.73797410726547,0.67018210887909,2.07891869544983,1.76918435096741,-1.10030233860016
84,3657528592,0.637371,0.380142,-0.566416,0.358362,9.79087257385254,0.74531292915344,0.66550111770630,1.68353545665741,1.59686219692230,-0.88587284088135
85,3657545259,0.637535,0.380196,-0.566189,0.358370,9.79267406463623,0.74321126937866,0.67639267444611,1.48681724071503,1.47189795970917,-0.83650445938110
86,3657561926,0.637693,0.380234,-0.565985,0.358372,9.82144069671631,0.74424374103546,0.69708430767059,1.33481848239899,1.37391638755798,-0.73857420682907
87,3657578593,0.637861,0.380238,-0.565816,0.358335,9.82012176513672,0.78385484218597,0.69292145967484,0.89866006374359,1.23247039318085,-0.70431727170944
88,3657595260,0.638024,0.380217,-0.565685,0.358273,9.80458354949951,0.78014039993286,0.65020704269409,0.67353725433350,1.05429565906525,-0.60172557830811
89,3657611927,0.638147,0.380215,-0.565591,0.358205,9.81991291046143,0.75747472047806,0.62705141305923,0.74539357423782,0.67182111740112,-0.50548583269119
90,3657628594,0.638238,0.380213,-0.565538,0.358130,9.81990623474121,0.76397275924683,0.64802443981171,0.68803399801254,0.34523361921310,-0.35504966974258
91,3657645261,0.638338,0.380200,-0.565491,0.358039,9.81361389160156,0.75450819730759,0.64590597152710,0.57944887876511,0.34864005446434,-0.38282659649849
92,3657661928,0.638419,0.380180,-0.565465,0.357956,9.81814098358154,0.74338263273239,0.63278484344482,0.54829108715057,0.21359708905220,-0.22181239724159
93,3657678595,0.638487,0.380124,-0.565485,0.357863,9.81556224822998,0.76549780368805,0.64612764120102,0.29037120938301,0.02963389642537,0.02538218721747
94,3657695262,0.638550,0.380072,-0.565520,0.357752,9.84245872497559,0.78904056549072,0.66955190896988,0.15833769738674,-0.12211494147778,-0.01504105702043
95,3657711929,0.638599,0.380036,-0.565538,0.357674,9.87824630737305,0.78625404834747,0.66441637277603,0.49596425890923,-0.04920839145780,0.06098383292556
96,3657728596,0.638652,0.380063,-0.565494,0.357619,9.85351753234863,0.79873192310333,0.66212105751038,0.96731477975845,0.14043444395065,-0.26372757554054
97,3657745263,0.638711,0.380125,-0.565438,0.357536,9.85096454620361,0.80385351181030,0.70759111642838,0.96855700016022,0.05605338886380,-0.57054209709167
98,3657761930,0.638813,0.380125,-0.565378,0.357449,9.85381507873535,0.82754701375961,0.71345275640488,0.64155966043472,0.38071998953819,-0.45397871732712
99,3657778597,0.638852,0.380201,-0.565301,0.357421,9.87163829803467,0.81344622373581,0.68086719512939,1.38987302780151,0.18779230117798,-0.38823086023331
100,3657795264,0.638802,0.380492,-0.565166,0.357414,9.76854038238525,0.77396887540817,0.64821285009384,2.78810906410217,-0.38860231637955,-1.06208825111389
101,3657811931,0.638872,0.380599,-0.565096,0.357286,9.86711120605469,0.76781207323074,0.70233350992203,1.04361510276794,-0.06499862670898,-1.00223135948181
102,3657828598,0.638983,0.380455,-0.565276,0.356956,9.71905231475830,0.73885124921799,0.62291419506073,-1.56756734848022,-0.91782450675964,-0.36497452855110
103,3657845265,0.638892,0.380462,-0.565459,0.356821,9.80531311035156,0.76994681358337,0.64075458049774,0.42358279228210,-1.57353532314301,0.41514340043068
104,3657861932,0.638717,0.380457,-0.565749,0.356680,9.85000610351562,0.81905770301819,0.69947659969330,0.25512811541557,-2.35615730285645,0.91888123750687
105,3657878599,0.638491,0.380641,-0.565859,0.356712,9.91196441650391,0.82148319482803,0.70015591382980,2.34294724464417,-1.78083193302155,0.59765952825546
106,3657895266,0.638298,0.380934,-0.565822,0.356804,9.86692619323730,0.83187741041183,0.65641826391220,3.35021781921387,-1.11253249645233,-0.02497878484428
107,3657911933,0.638120,0.381229,-0.565820,0.356811,9.83051204681396,0.79862004518509,0.68928128480911,2.89007282257080,-1.43721175193787,-0.35544663667679
108,3657928600,0.637977,0.381414,-0.565862,0.356801,9.87109947204590,0.81104153394699,0.70750951766968,2.12170481681824,-1.26819360256195,0.02499799430370
109,3657945267,0.637896,0.381505,-0.565898,0.356792,9.87007427215576,0.81226503849030,0.67486655712128,1.58066213130951,-0.76614630222321,0.23219193518162
110,3657961934,0.637794,0.381595,-0.565955,0.356789,9.86176872253418,0.81519567966461,0.64869368076324,1.60071682929993,-0.92028349637985,0.36690190434456
111,3657978601,0.637692,0.381687,-0.566009,0.356788,9.81518077850342,0.80868494510651,0.66433435678482,1.64442467689514,-0.91034567356110,0.35801425576210
112,3657995268,0.637518,0.381819,-0.566094,0.356822,9.82287597656250,0.81649261713028,0.66835248470306,2.02815437316895,-1.32833218574524,0.61822658777237
113,3658011935,0.637357,0.381937,-0.566179,0.356848,9.83217048645020,0.83904492855072,0.65628457069397,1.93158161640167,-1.26842415332794,0.60636782646179
114,3658028602,0.637250,0.382013,-0.566282,0.356794,9.83210277557373,0.82767879962921,0.63126325607300,1.27605020999908,-1.24046778678894,0.33096727728844
115,3658045269,0.637169,0.382039,-0.566416,0.356699,9.87785530090332,0.83654189109802,0.67290562391281,0.69926512241364,-1.26763010025024,0.36308559775352
116,3658061936,0.637089,0.382043,-0.566544,0.356634,9.88477802276611,0.83947288990021,0.70326197147369,0.74457395076752,-1.09902179241180,0.56186580657959
117,3658078603,0.637013,0.382078,-0.566624,0.356605,9.89379119873047,0.83308321237564,0.63958865404129,1.12123429775238,-0.85480457544327,0.46367952227592
118,3658095270,0.636944,0.382158,-0.566687,0.356543,9.82741069793701,0.85602498054504,0.67038106918335,1.24455952644348,-0.95424586534500,0.08361266553402
119,3658111937,0.636929,0.382146,-0.566772,0.356447,9.88101005554199,0.84439122676849,0.69956499338150,0.50531303882599,-0.69995033740997,0.21841230988503
120,3658128604,0.636922,0.382089,-0.566872,0.356361,9.85639190673828,0.77649831771851,0.61659890413284,0.29916912317276,-0.59761464595795,0.45240992307663
121,3658145271,0.636863,0.382153,-0.566917,0.356327,9.82254409790039,0.81275510787964,0.64084941148758,1.29887127876282,-0.71750777959824,0.20339044928551
122,3658161938,0.636765,0.382245,-0.567007,0.356261,9.81203174591064,0.80205678939819,0.63967216014862,1.25878739356995,-1.22330737113953,0.15714673697948
123,3658178605,0.636629,0.382316,-0.567136,0.356222,9.81805038452148,0.83775198459625,0.66869533061981,1.27666497230530,-1.42332971096039,0.55451494455338
124,3658195272,0.636513,0.382361,-0.567266,0.356174,9.84386444091797,0.86030495166779,0.67097389698029,1.07264709472656,-1.30213046073914,0.56528508663177
125,3658211939,0.636441,0.382353,-0.567412,0.356080,9.85259628295898,0.82247775793076,0.66540396213531,0.46360266208649,-1.20407223701477,0.50801509618759
126,3658228606,0.636423,0.382328,-0.567525,0.355959,9.84610366821289,0.82921236753464,0.65602374076843,0.27038046717644,-0.86713713407516,0.23992693424225
127,3658245273,0.636389,0.382325,-0.567628,0.355856,9.83504486083984,0.79234164953232,0.64755147695541,0.54286116361618,-0.89360785484314,0.25073549151421
128,3658261940,0.636313,0.382320,-0.567760,0.355787,9.82868576049805,0.78130280971527,0.65289711952209,0.67672598361969,-1.08691966533661,0.58020448684692
129,3658278607,0.636214,0.382299,-0.567923,0.355729,9.84192943572998,0.80035257339478,0.60381132364273,0.61814975738525,-1.25233948230743,0.82672679424286
130,3658295274,0.636104,0.382269,-0.568096,0.355679,9.84102153778076,0.80473750829697,0.60461175441742,0.62050616741180,-1.29425454139709,0.95311266183853
131,3658311941,0.635980,0.382254,-0.568282,0.355620,9.83933544158936,0.81627666950226,0.58951210975647,0.63242864608765,-1.46483480930328,0.92424690723419
132,3658328608,0.635860,0.382241,-0.568470,0.355549,9.86094856262207,0.83140397071838,0.65596413612366,0.61254042387009,-1.49372601509094,0.86148303747177
133,3658345275,0.635732,0.382260,-0.568622,0.355514,9.85995864868164,0.81028079986572,0.60916262865067,1.02230513095856,-1.34705495834351,0.80773478746414
134,3658361942,0.635580,0.382338,-0.568756,0.355489,9.86186408996582,0.80266827344894,0.57535362243652,1.41841852664948,-1.48480021953583,0.64723300933838
135,3658378609,0.635392,0.382443,-0.568895,0.355489,9.86896800994873,0.78611809015274,0.61103600263596,1.68887591362000,-1.65086019039154,0.73814523220062
136,3658395276,0.635234,0.382504,-0.569022,0.355503,9.87604808807373,0.80439811944962,0.62759590148926,1.52774631977081,-1.32778167724609,0.87510907649994
137,3658411943,0.635117,0.382536,-0.569141,0.355486,9.87127304077148,0.81471455097198,0.59510463476181,1.15202069282532,-1.15179669857025,0.73112726211548
138,3658428610,0.635038,0.382560,-0.569238,0.355446,9.84777164459229,0.80702030658722,0.58188503980637,1.01508259773254,-0.94585782289505,0.51211315393448
139,3658445277,0.634956,0.382567,-0.569360,0.355389,9.85274982452393,0.82056897878647,0.57249307632446,0.79471081495285,-1.07061719894409,0.57039481401443
140,3658461944,0.634856,0.382564,-0.569485,0.355371,9.86903572082520,0.80564868450165,0.57561165094376,0.96087324619293,-1.02383565902710,0.83839333057404
141,3658478611,0.634745,0.382576,-0.569596,0.355378,9.85139179229736,0.80411136150360,0.57000899314880,1.17650663852692,-0.97892385721207,0.87801617383957
142,3658495278,0.634643,0.382610,-0.569684,0.355383,9.87050151824951,0.80036693811417,0.55653542280197,1.33446013927460,-0.89618200063705,0.69561541080475
143,3658511945,0.634554,0.382628,-0.569777,0.355374,9.88062286376953,0.80356872081757,0.59767413139343,1.16505765914917,-0.86583095788956,0.68654841184616
144,3658528612,0.634493,0.382607,-0.569867,0.355360,9.88399696350098,0.80305486917496,0.57064628601074,0.86882126331329,-0.66418212652206,0.74047601222992
145,3658545279,0.634465,0.382566,-0.569938,0.355341,9.86208629608154,0.81271255016327,0.55869096517563,0.73992520570755,-0.42189875245094,0.66532826423645
146,3658561946,0.634437,0.382561,-0.569989,0.355316,9.85678863525391,0.80047214031219,0.55760765075684,0.90061938762665,-0.43191334605217,0.43964195251465
147,3658578613,0.634412,0.382541,-0.570049,0.355283,9.85864067077637,0.78175973892212,0.56538701057434,0.81461185216904,-0.44373360276222,0.48448982834816
148,3658595280,0.634358,0.382522,-0.570120,0.355288,9.86699962615967,0.78239792585373,0.55903530120850,0.96933823823929,-0.51044189929962,0.73841416835785
149,3658611947,0.634318,0.382536,-0.570149,0.355296,9.86654663085938,0.78698098659515,0.56588643789291,1.20795881748199,-0.34620040655136,0.49016302824020
150,3658628614,0.634320,0.382523,-0.570166,0.355280,9.87948894500732,0.78744280338287,0.58012157678604,0.90982711315155,-0.12545739114285,0.34970295429230
151,3658645281,0.634342,0.382470,-0.570198,0.355246,9.84810638427734,0.78331458568573,0.57413864135742,0.58229190111160,-0.06501142680645,0.41892129182816
152,3658661948,0.634182,0.382626,-0.570176,0.355400,9.86924076080322,0.76929610967636,0.40398195385933,2.79519081115723,-0.55386823415756,0.72061336040497
153,3658678615,0.634117,0.382679,-0.570284,0.355285,9.87171363830566,0.82123410701752,0.75140452384949,0.80271488428116,-1.20097303390503,0.06746385246515
154,3658695282,0.634241,0.382548,-0.570252,0.355257,9.88144302368164,0.74727785587311,0.48371341824532,0.19427233934402,0.82332026958466,0.33336210250854
155,3658711949,0.634348,0.382282,-0.570405,0.355106,9.80812740325928,0.75368577241898,0.48056191205978,-1.32187795639038,-0.04324064403772,0.85625827312469
156,3658728616,0.634322,0.382192,-0.570517,0.355068,9.81043720245361,0.77269470691681,0.50112688541412,0.32884141802788,-0.51904767751694,0.87740141153336
157,3658745283,0.634145,0.382176,-0.570718,0.355079,9.89038944244385,0.76237249374390,0.58212697505951,1.05844473838806,-1.54911375045776,1.39797949790955
158,3658761950,0.633972,0.382255,-0.570788,0.355193,9.90809917449951,0.79502534866333,0.60405933856964,2.11075544357300,-0.92806965112686,1.12409019470215
159,3658778617,0.633839,0.382373,-0.570834,0.355228,9.84832859039307,0.79199397563934,0.54206693172455,1.95556795597076,-0.96721881628036,0.46508824825287
160,3658795284,0.633734,0.382449,-0.570905,0.355218,9.86521720886230,0.77321374416351,0.56098854541779,1.46973371505737,-0.98521190881729,0.43051108717918
161,3658811951,0.633673,0.382449,-0.570979,0.355210,9.86928939819336,0.78428024053574,0.55843502283096,1.02633929252625,-0.62732535600662,0.63852459192276
162,3658828618,0.633631,0.382437,-0.571042,0.355196,9.87502574920654,0.76532000303268,0.53435987234116,0.91424536705017,-0.49685436487198,0.58145952224731
163,3658845285,0.633584,0.382466,-0.571072,0.355201,9.82191085815430,0.78294581174850,0.52692902088165,1.27484655380249,-0.42212927341461,0.43329006433487
164,3658861952,0.633508,0.382529,-0.571097,0.355228,9.84777545928955,0.75506561994553,0.54112106561661,1.69695651531219,-0.53144425153732,0.45453575253487
165,3658878619,0.633417,0.382586,-0.571125,0.355282,9.85828113555908,0.74419975280762,0.54797184467316,1.72615504264832,-0.52396535873413,0.63685977458954
166,3658895286,0.633350,0.382607,-0.571175,0.355300,9.84238815307617,0.79044187068939,0.51738673448563,1.30976939201355,-0.53106009960175,0.62617927789688
167,3658911953,0.633328,0.382580,-0.571248,0.355249,9.87224960327148,0.79323363304138,0.53390657901764,0.64556801319122,-0.52146816253662,0.45805746316910
168,3658928620,0.633316,0.382540,-0.571312,0.355212,9.89008426666260,0.80877512693405,0.57012778520584,0.62661474943161,-0.37255594134331,0.52243500947952
169,3658945287,0.633295,0.382513,-0.571364,0.355196,9.88695049285889,0.79518777132034,0.57039785385132,0.84400254487991,-0.33528944849968,0.55799829959869
170,3658961954,0.633294,0.382496,-0.571371,0.355206,9.89746475219727,0.77078098058701,0.55809241533279,1.03988838195801,-0.01041796617210,0.46215558052063
171,3658978621,0.633265,0.382552,-0.571327,0.355266,9.85683822631836,0.75453841686249,0.53805452585220,1.75872170925140,0.04934287071228,0.32424399256706
172,3658995288,0.633272,0.382557,-0.571285,0.355315,9.82124042510986,0.78405189514160,0.55165457725525,1.37859082221985,0.27878141403198,0.39791887998581
173,3659011955,0.633236,0.382534,-0.571356,0.355291,9.82154846191406,0.75471258163452,0.52848243713379,0.77656418085098,-0.50772690773010,0.58399516344070
174,3659028622,0.633173,0.382537,-0.571406,0.355319,9.91775321960449,0.75036549568176,0.61461871862411,1.24794042110443,-0.44297805428505,0.72690123319626
175,3659045289,0.633125,0.382593,-0.571382,0.355383,9.83355522155762,0.79464745521545,0.54781728982925,1.75776124000549,-0.10127902776003,0.44312533736229
176,3659061956,0.633047,0.382686,-0.571362,0.355453,9.88217258453369,0.75272029638290,0.57482951879501,1.97888827323914,-0.31660497188568,0.40815117955208
177,3659078623,0.633001,0.382681,-0.571392,0.355493,9.85872745513916,0.77869206666946,0.54500448703766,1.23176598548889,-0.24033036828041,0.71120071411133
178,3659095290,0.633013,0.382624,-0.571441,0.355455,9.86409187316895,0.78356492519379,0.53050887584686,0.54794526100159,-0.17613212764263,0.48756334185600
179,3659111957,0.633051,0.382540,-0.571485,0.355407,9.87750339508057,0.79697573184967,0.53743553161621,0.34819182753563,-0.01028990186751,0.48060947656631
180,3659128624,0.633088,0.382490,-0.571472,0.355414,9.87595367431641,0.78325843811035,0.56054270267487,0.80204886198044,0.29046082496643,0.42570865154266
181,3659145291,0.633156,0.382445,-0.571425,0.355418,9.85386753082275,0.75842118263245,0.56309813261032,0.82597118616104,0.54548645019531,0.23600819706917
182,3659161958,0.633220,0.382370,-0.571399,0.355426,9.85503101348877,0.73181444406509,0.54155057668686,0.68452495336533,0.51869553327560,0.43661966919899
183,3659178625,0.633263,0.382284,-0.571418,0.355412,9.83240604400635,0.74112606048584,0.51176601648331,0.49454277753830,0.21805371344090,0.54861116409302
184,3659195292,0.633302,0.382204,-0.571434,0.355403,9.85888481140137,0.76990377902985,0.48709374666214,0.55505275726318,0.20185367763042,0.55397713184357
185,3659211959,0.633320,0.382122,-0.571478,0.355387,9.84444808959961,0.76580548286438,0.51859605312347,0.50798946619034,-0.01255662553012,0.65240663290024
186,3659228626,0.633324,0.382060,-0.571512,0.355392,9.88572406768799,0.75144284963608,0.53589862585068,0.74202543497086,-0.01078934967518,0.67358833551407
187,3659245293,0.633327,0.382049,-0.571507,0.355408,9.86841297149658,0.73905187845230,0.53841769695282,1.09952759742737,0.05426050722599,0.42435118556023
188,3659261960,0.633317,0.382045,-0.571497,0.355446,9.87190818786621,0.74655938148499,0.53917807340622,1.26075947284698,0.06624724715948,0.51056355237961
189,3659278627,0.633307,0.382014,-0.571514,0.355468,9.87188053131104,0.76273000240326,0.56051176786423,1.01458311080933,-0.02980678156018,0.61569094657898
190,3659295294,0.633330,0.381961,-0.571523,0.355471,9.87022781372070,0.76375329494476,0.55321621894836,0.76831692457199,0.13818050920963,0.52097511291504
191,3659311961,0.633370,0.381932,-0.571515,0.355444,9.86674118041992,0.78046077489853,0.54314720630646,0.77176183462143,0.14622288942337,0.20348007977009
192,3659328628,0.633417,0.381943,-0.571472,0.355417,9.86942481994629,0.79088407754898,0.55856597423553,1.03303706645966,0.22656995058060,-0.05783988535404
193,3659345295,0.633445,0.381955,-0.571437,0.355410,9.87126159667969,0.76840794086456,0.55903679132462,1.10084664821625,0.16540679335594,0.08938831835985
194,3659361962,0.633476,0.381948,-0.571401,0.355421,9.86140251159668,0.76939922571182,0.56978189945221,1.09980928897858,0.27541333436966,0.23951718211174
195,3659378629,0.633503,0.381939,-0.571364,0.355440,9.86634635925293,0.76849359273911,0.53830617666245,1.16348242759705,0.29350870847702,0.28796356916428
196,3659395296,0.633539,0.381923,-0.571323,0.355462,9.87272834777832,0.77113568782806,0.54758185148239,1.10479116439819,0.36965528130531,0.29513517022133
197,3659411963,0.633569,0.381953,-0.571262,0.355474,9.86057758331299,0.76075273752213,0.58306854963303,1.33407592773438,0.29122924804688,0.02887832000852
198,3659428630,0.633602,0.381982,-0.571209,0.355468,9.86477375030518,0.76909261941910,0.55592143535614,1.23271358013153,0.22680044174194,-0.02560629695654
199,3659445297,0.633652,0.381984,-0.571152,0.355469,9.86258125305176,0.75610119104385,0.56299918889999,1.09302198886871,0.39266827702522,0.05422208085656
200,3659461964,0.633706,0.381958,-0.571100,0.355484,9.85305404663086,0.76297253370285,0.54081815481186,1.02677464485168,0.49470928311348,0.22402144968510
201,3659478631,0.633750,0.381951,-0.571052,0.355491,9.82945346832275,0.75930488109589,0.55288481712341,1.10484218597412,0.37535411119461,0.15498243272305
202,3659495298,0.633796,0.381926,-0.571025,0.355477,9.82522392272949,0.72267639636993,0.52478575706482,0.86090695858002,0.27095675468445,0.18638363480568
203,3659511965,0.633808,0.381892,-0.571037,0.355474,9.85363197326660,0.74936449527740,0.54513156414032,0.82417821884155,0.01710928231478,0.45128291845322
204,3659528632,0.633821,0.381848,-0.571042,0.355490,9.84513759613037,0.77915143966675,0.58094948530197,0.88244712352753,0.12726950645447,0.55464297533035
205,3659545299,0.633875,0.381831,-0.571006,0.355470,9.86767768859863,0.76498365402222,0.56970196962357,0.89932590723038,0.31462636590004,0.08234483003616
206,3659561966,0.633935,0.381804,-0.570965,0.355458,9.85429763793945,0.77891147136688,0.59196007251740,0.85475975275040,0.40322071313858,0.12894712388515
207,3659578633,0.633802,0.381983,-0.570907,0.355597,9.84082126617432,0.75455290079117,0.38860765099525,2.90459561347961,-0.39392974972725,0.40602535009384
208,3659595300,0.633766,0.382060,-0.570968,0.355480,9.86175251007080,0.80049341917038,0.76229363679886,0.93760406970978,-0.94853430986404,-0.23145554959774
209,3659611967,0.633867,0.381966,-0.570941,0.355444,9.87009239196777,0.72776889801025,0.48748353123665,0.34052085876465,0.60250031948090,0.22252315282822
210,3659628634,0.633979,0.381732,-0.571076,0.355279,9.80418586730957,0.77174365520477,0.50490391254425,-1.19973087310791,-0.05800635740161,0.61339855194092
211,3659645301,0.633979,0.381632,-0.571181,0.355216,9.80657196044922,0.73538446426392,0.53704738616943,0.15222907066345,-0.42484423518181,0.72410941123962
212,3659661968,0.633804,0.381579,-0.571382,0.355264,9.88666534423828,0.77748608589172,0.59638082981110,1.01296949386597,-1.35409867763519,1.70173358917236
213,3659678635,0.633651,0.381659,-0.571420,0.355390,9.89560127258301,0.80422836542130,0.58401858806610,2.24066305160522,-0.68291783332825,1.04095149040222
214,3659695302,0.633527,0.381753,-0.571484,0.355406,9.85942173004150,0.76609939336777,0.53674685955048,1.70790600776672,-1.00506150722504,0.49933233857155
215,3659711969,0.633427,0.381804,-0.571567,0.355397,9.88183116912842,0.79033064842224,0.55878126621246,1.33018267154694,-0.94704872369766,0.55329835414886
216,3659728636,0.633360,0.381810,-0.571641,0.355389,9.88106822967529,0.78008055686951,0.55065864324570,1.05972540378571,-0.67004746198654,0.63130182027817
217,3659745303,0.633287,0.381831,-0.571691,0.355416,9.86327648162842,0.75134015083313,0.54076874256134,1.33848130702972,-0.53176450729370,0.67563748359680
218,3659761970,0.633199,0.381911,-0.571713,0.355453,9.84452724456787,0.75466078519821,0.50503975152969,1.75445699691772,-0.58854782581329,0.44386807084084
219,3659778637,0.633075,0.382015,-0.571746,0.355509,9.82784652709961,0.71472793817520,0.53333956003189,2.00626850128174,-0.78548395633698,0.55931735038757
220,3659795304,0.632968,0.382050,-0.571804,0.355568,9.83506298065186,0.73345994949341,0.51988559961319,1.60471224784851,-0.65506392717361,0.86253321170807
221,3659811971,0.632866,0.382077,-0.571895,0.355574,9.83402633666992,0.77342909574509,0.49361342191696,1.24854218959808,-0.89561837911606,0.73581439256668
222,3659828638,0.632784,0.382072,-0.571999,0.355558,9.85603523254395,0.77700680494308,0.51022905111313,0.95436751842499,-0.85395938158035,0.75193768739700
223,3659845305,0.632690,0.382066,-0.572114,0.355546,9.88476657867432,0.78004360198975,0.55921185016632,1.00376164913177,-0.93210387229919,0.83565270900726
224,3659861972,0.632622,0.382070,-0.572183,0.355553,9.89139366149902,0.75981003046036,0.57257664203644,1.14680850505829,-0.60627174377441,0.69334858655930
225,3659878639,0.632587,0.382048,-0.572228,0.355565,9.89911937713623,0.74715602397919,0.54252779483795,1.02965617179871,-0.29592272639275,0.67568862438202
226,3659895306,0.632533,0.382058,-0.572248,0.355618,9.86941719055176,0.75408893823624,0.52434051036835,1.45208632946014,-0.23198062181473,0.70603972673416
227,3659911973,0.632511,0.382023,-0.572265,0.355670,9.83178806304932,0.75336337089539,0.48552346229553,1.15486383438110,0.01850517466664,0.79236733913422
228,3659928640,0.632453,0.381933,-0.572418,0.355623,9.84597873687744,0.71816122531891,0.51866018772125,0.29420030117035,-0.84878569841385,1.02526342868805
229,3659945307,0.632395,0.381887,-0.572486,0.355666,9.89557933807373,0.74173086881638,0.57514721155167,1.00431239604950,-0.35070830583572,1.01722121238708
230,3659961974,0.632341,0.381880,-0.572527,0.355702,9.82359409332275,0.77905023097992,0.52468091249466,1.23006272315979,-0.32682445645332,0.75168156623840
231,3659978641,0.632277,0.381907,-0.572544,0.355762,9.89602851867676,0.75146144628525,0.57049703598022,1.50395202636719,-0.28493487834930,0.68052941560745
232,3659995308,0.632243,0.381861,-0.572597,0.355784,9.86634540557861,0.78655338287354,0.56471991539001,0.86818093061447,-0.24515835940838,0.82653462886810
233,3660011975,0.632260,0.381753,-0.572665,0.355762,9.89221000671387,0.75986409187317,0.57073253393173,0.30691695213318,-0.07319468259811,0.79277700185776
234,3660028642,0.632318,0.381639,-0.572684,0.355750,9.88560676574707,0.75902843475342,0.53046923875809,0.33115938305855,0.34545129537582,0.63865262269974
235,3660045309,0.632378,0.381559,-0.572649,0.355786,9.89204692840576,0.75455427169800,0.57058566808701,0.81900447607040,0.62989306449890,0.56718039512634
236,3660061976,0.632433,0.381513,-0.572592,0.355829,9.85610103607178,0.72015148401260,0.57308644056320,1.05019748210907,0.64276349544525,0.41013616323471
237,3660078643,0.632489,0.381414,-0.572578,0.355858,9.85702323913574,0.70894664525986,0.54969555139542,0.66874766349792,0.54750990867615,0.67288404703140
238,3660095310,0.632534,0.381293,-0.572593,0.355883,9.86502647399902,0.73680645227432,0.53393507003784,0.49295482039452,0.42981949448586,0.84705036878586
239,3660111977,0.632571,0.381202,-0.572596,0.355911,9.83866882324219,0.73693871498108,0.49713400006294,0.71187937259674,0.38211584091187,0.72897577285767
240,3660128644,0.632595,0.381153,-0.572592,0.355926,9.78564834594727,0.71986305713654,0.49479946494102,0.86715638637543,0.22098635137081,0.51458477973938
241,3660145311,0.632538,0.381129,-0.572670,0.355929,9.83578491210938,0.72940164804459,0.53099161386490,0.93479955196381,-0.54428911209106,0.78244239091873
242,3660161978,0.632476,0.381122,-0.572723,0.355961,9.83667564392090,0.74484747648239,0.52939188480377,1.21628320217133,-0.42097675800323,0.79093301296234
243,3660178645,0.632372,0.381136,-0.572807,0.355995,9.83151817321777,0.72399222850800,0.51926565170288,1.33988976478577,-0.76934778690338,0.89340937137604
244,3660195312,0.632272,0.381132,-0.572897,0.356032,9.87579727172852,0.73596805334091,0.53520286083221,1.24317646026611,-0.72795784473419,0.98740792274475
245,3660211979,0.632185,0.381092,-0.573004,0.356057,9.86246109008789,0.72093510627747,0.50999921560287,0.96735328435898,-0.69568574428558,1.09390556812286
246,3660228646,0.632128,0.381005,-0.573127,0.356053,9.85331821441650,0.73964756727219,0.52460831403732,0.54496145248413,-0.60531133413315,1.11673939228058
247,3660245313,0.632066,0.380910,-0.573258,0.356055,9.88510036468506,0.77346551418304,0.55266392230988,0.50796389579773,-0.62508434057236,1.20670402050018
248,3660261980,0.632013,0.380797,-0.573372,0.356086,9.91164112091064,0.76549696922302,0.57586520910263,0.57798904180527,-0.38989573717117,1.33648347854614
249,3660278647,0.631979,0.380681,-0.573449,0.356146,9.92318916320801,0.76154994964600,0.56802672147751,0.70641112327576,-0.07447533309460,1.33415269851685
250,3660295314,0.631972,0.380581,-0.573475,0.356225,9.92059135437012,0.73698884248734,0.54632145166397,0.90868741273880,0.25571721792221,1.14963889122009
251,3660311981,0.631975,0.380500,-0.573486,0.356287,9.91893100738525,0.72752499580383,0.55133187770844,0.93774497509003,0.27857652306557,0.94183027744293
252,3660328648,0.632025,0.380409,-0.573440,0.356370,9.90097808837891,0.71933120489120,0.57936567068100,0.99573206901550,0.78543895483017,0.80475097894669
253,3660345315,0.632072,0.380336,-0.573387,0.356449,9.90797042846680,0.71778982877731,0.56625038385391,1.05010783672333,0.74928683042526,0.70691055059433
254,3660361982,0.632162,0.380241,-0.573294,0.356540,9.88656330108643,0.70265519618988,0.54929298162460,1.01006245613098,1.17998993396759,0.63680863380432
255,3660378649,0.632249,0.380121,-0.573223,0.356628,9.88138484954834,0.71484029293060,0.50724279880524,0.83175963163376,1.13151776790619,0.78648918867111
256,3660395316,0.632329,0.379986,-0.573167,0.356720,9.85181140899658,0.70481312274933,0.47863778471947,0.77940726280212,1.07803857326508,0.92213404178619
257,3660411983,0.632397,0.379873,-0.573132,0.356775,9.83034229278564,0.68573945760727,0.49345150589943,0.60499763488770,0.78451699018478,0.74997824430466
258,3660428650,0.632445,0.379776,-0.573106,0.356836,9.87718963623047,0.69623333215714,0.51560318470001,0.82640653848648,0.64449238777161,0.78800034523010
259,3660445317,0.632491,0.379696,-0.573051,0.356928,9.90596580505371,0.71305799484253,0.53227746486664,1.10666072368622,0.81262689828873,0.79027980566025
260,3660461984,0.632606,0.379590,-0.572958,0.356987,9.89836883544922,0.72886770963669,0.53882503509521,0.75325673818588,1.21999692916870,0.47742071747780
261,3660478651,0.632752,0.379441,-0.572867,0.357033,9.88315486907959,0.71110820770264,0.58557683229446,0.40789502859116,1.40488207340240,0.51948958635330
262,3660495318,0.632740,0.379495,-0.572716,0.357239,9.90949249267578,0.67056488990784,0.40105712413788,2.53333926200867,0.96821123361588,0.64953809976578
263,3660511985,0.632811,0.379471,-0.572659,0.357230,9.87402820587158,0.67589980363846,0.73212581872940,0.84474521875381,0.50877064466476,0.06257182359695
264,3660528652,0.632986,0.379390,-0.572435,0.357365,9.87819766998291,0.65627986192703,0.40255790948868,1.35610270500183,2.16259551048279,0.21807932853699
265,3660545319,0.633183,0.379050,-0.572574,0.357152,9.79361820220947,0.62505656480789,0.54480278491974,-2.09877538681030,0.40625587105751,0.61809855699539
266,3660561986,0.633264,0.378839,-0.572620,0.357160,9.85605812072754,0.68555253744125,0.53435653448105,-0.16050839424133,0.60348641872406,1.11370432376862
267,3660578653,0.633222,0.378712,-0.572703,0.357237,9.91377925872803,0.68885987997055,0.57640016078949,0.74418979883194,-0.06209158152342,1.48858451843262
268,3660595320,0.633186,0.378786,-0.572566,0.357442,9.89941787719727,0.70722478628159,0.54664963483810,2.67381215095520,0.76357865333557,0.66292077302933
269,3660611987,0.633126,0.378966,-0.572406,0.357612,9.85883331298828,0.68894410133362,0.53716719150543,3.10205698013306,0.41469529271126,0.09559942036867
270,3660628654,0.633111,0.379110,-0.572248,0.357739,9.90988636016846,0.68343347311020,0.59806281328201,2.62814450263977,0.55177438259125,-0.06166897714138
271,3660645321,0.633181,0.379121,-0.572089,0.357858,9.92404937744141,0.67214041948318,0.58486986160278,1.79295301437378,1.20309257507324,0.21910382807255
272,3660661988,0.633315,0.379098,-0.571902,0.357945,9.84461116790771,0.66642129421234,0.55397480726242,1.43808913230896,1.57642328739166,-0.01811457984149
273,3660678655,0.633426,0.379094,-0.571742,0.358008,9.81225872039795,0.66667056083679,0.54481089115143,1.38819539546967,1.25544488430023,-0.06738060712814
274,3660695322,0.633467,0.379138,-0.571604,0.358110,9.79223823547363,0.66427499055862,0.55052751302719,1.84433186054230,0.86834722757339,0.13441543281078
275,3660711989,0.633472,0.379199,-0.571485,0.358226,9.79378986358643,0.67205059528351,0.55512893199921,2.09888410568237,0.64581143856049,0.27680927515030
276,3660728656,0.633485,0.379263,-0.571399,0.358271,9.82621955871582,0.69698172807693,0.56486475467682,1.66602933406830,0.33027577400208,0.01598232612014
277,3660745323,0.633534,0.379272,-0.571361,0.358234,9.85748767852783,0.69661456346512,0.58284246921539,0.93634903430939,0.19145491719246,-0.08888246864080
278,3660761990,0.633599,0.379259,-0.571327,0.358189,9.87087917327881,0.70209175348282,0.60883498191833,0.75105392932892,0.27244228124619,-0.06092621013522
279,3660778657,0.633673,0.379246,-0.571278,0.358149,9.84626483917236,0.70039612054825,0.62114989757538,0.77054524421692,0.37776166200638,-0.10765657573938
280,3660795324,0.633693,0.379300,-0.571210,0.358165,9.87448883056641,0.66433125734329,0.49020335078239,1.52398121356964,0.23824930191040,-0.03626117855310
281,3660811991,0.633761,0.379272,-0.571209,0.358077,9.79076862335205,0.73343360424042,0.69373059272766,0.44122996926308,0.06602953374386,-0.11399570852518
282,3660828658,0.633771,0.379218,-0.571283,0.357998,9.83949470520020,0.65474313497543,0.61172789335251,0.32804745435715,-0.40776056051254,0.36790084838867
283,3660845325,0.633743,0.379168,-0.571368,0.357965,9.83869266510010,0.63789731264114,0.59843826293945,0.57089430093765,-0.49107870459557,0.66954159736633
284,3660861992,0.633712,0.379193,-0.571407,0.357932,9.81788539886475,0.69380033016205,0.61238068342209,1.05820155143738,-0.48525175452232,0.27047014236450
285,3660878659,0.633594,0.379280,-0.571499,0.357901,9.82029914855957,0.69631427526474,0.60603469610214,1.42518007755280,-1.21110284328461,0.38042533397675
286,3660895326,0.633479,0.379337,-0.571603,0.357879,9.85524082183838,0.72548460960388,0.61280870437622,1.27671635150909,-1.14970934391022,0.56187868118286
287,3660911993,0.633390,0.379348,-0.571741,0.357804,9.87390422821045,0.71146649122238,0.60824847221375,0.76135033369064,-1.22326898574829,0.54305326938629
288,3660928660,0.633378,0.379298,-0.571855,0.357698,9.89236831665039,0.69906687736511,0.58787930011749,0.18689586222172,-0.74262094497681,0.39215600490570
289,3660945327,0.633371,0.379261,-0.571965,0.357573,9.85645294189453,0.69789564609528,0.59074139595032,0.18870157003403,-0.78822439908981,0.23794196546078
290,3660961994,0.633333,0.379241,-0.572071,0.357490,9.85031604766846,0.66677594184875,0.60918647050858,0.50738757848740,-0.83180445432663,0.41543799638748
291,3660978661,0.633261,0.379225,-0.572200,0.357428,9.86896896362305,0.66219162940979,0.57174342870712,0.65060102939606,-1.01198995113373,0.63870394229889
292,3660995328,0.633195,0.379216,-0.572326,0.357353,9.85737323760986,0.67558330297470,0.54580712318420,0.59065449237823,-1.03017485141754,0.53160440921783
293,3661011995,0.633105,0.379216,-0.572471,0.357280,9.87593460083008,0.69177037477493,0.55011481046677,0.65988552570343,-1.22591984272003,0.60832715034485
294,3661028662,0.632993,0.379281,-0.572608,0.357190,9.86490535736084,0.69882529973984,0.52747726440430,0.97494751214981,-1.47887086868286,0.31374275684357
295,3661045329,0.632884,0.379380,-0.572725,0.357091,9.86678695678711,0.67548376321793,0.56051039695740,1.11685454845428,-1.48974335193634,0.08251130580902
296,3661061996,0.632766,0.379500,-0.572821,0.357019,9.87776088714600,0.68927621841431,0.53015404939651,1.41634380817413,-1.40919137001038,0.08517502993345
297,3661078663,0.632631,0.379633,-0.572899,0.356991,9.89182758331299,0.69418144226074,0.53205615282059,1.69306361675262,-1.31865048408508,0.21672187745571
298,3661095330,0.632472,0.379767,-0.572985,0.356992,9.86527824401855,0.68888527154922,0.54369056224823,1.86373364925385,-1.37721407413483,0.42432561516762
299,3661111997,0.632334,0.379861,-0.573061,0.357015,9.88538742065430,0.71429133415222,0.56732761859894,1.75765883922577,-1.09420657157898,0.60118132829666
300,3661128664,0.632215,0.379923,-0.573139,0.357035,9.87187194824219,0.72646552324295,0.56432902812958,1.52957761287689,-0.95630770921707,0.66375309228897
301,3661145331,0.632106,0.379954,-0.573227,0.357054,9.88316440582275,0.73732900619507,0.54322916269302,1.33730328083038,-0.88924098014832,0.78756493330002
302,3661161998,0.632006,0.379974,-0.573306,0.357081,9.86037731170654,0.74657553434372,0.52989614009857,1.33547174930573,-0.76416128873825,0.81587976217270
303,3661178665,0.631887,0.380014,-0.573383,0.357125,9.87085437774658,0.75202894210815,0.54396587610245,1.53231811523438,-0.83809226751328,0.85733383893967
304,3661195332,0.631786,0.380080,-0.573435,0.357153,9.85877418518066,0.72894531488419,0.52406990528107,1.59559428691864,-0.76135671138763,0.57459527254105
305,3661211999,0.631692,0.380150,-0.573488,0.357156,9.87468147277832,0.71485918760300,0.49432212114334,1.46312558650970,-0.81796079874039,0.43281623721123
306,3661228666,0.631618,0.380221,-0.573526,0.357153,9.87718772888184,0.71590304374695,0.49902451038361,1.47704601287842,-0.68528699874878,0.31810975074768
307,3661245333,0.631559,0.380295,-0.573556,0.357130,9.87302112579346,0.70608907938004,0.50064402818680,1.32694280147552,-0.65710020065308,0.15198576450348
308,3661262000,0.631513,0.380336,-0.573617,0.357069,9.88146495819092,0.67683345079422,0.51568537950516,0.97132313251495,-0.75926929712296,0.18201664090157
309,3661278667,0.631467,0.380370,-0.573667,0.357035,9.90622329711914,0.70109510421753,0.48384442925453,1.10088491439819,-0.61395549774170,0.29225367307663
310,3661295334,0.631433,0.380421,-0.573671,0.357033,9.88248348236084,0.70245289802551,0.51133096218109,1.31685137748718,-0.33623710274696,0.21200914680958
311,3661312001,0.631434,0.380453,-0.573676,0.356989,9.90293121337891,0.70556044578552,0.50626820325851,1.03107774257660,-0.26247256994247,0.01892778463662
312,3661328668,0.631463,0.380452,-0.573674,0.356943,9.88662910461426,0.71889263391495,0.56044173240662,0.72223967313766,-0.04817108809948,0.04917638376355
313,3661345335,0.631308,0.380657,-0.573638,0.357056,9.89499187469482,0.66576021909714,0.38684719800949,2.90043330192566,-0.71196264028549,0.29977104067802
314,3661362002,0.631222,0.380775,-0.573719,0.356952,9.88846302032471,0.70927530527115,0.72546160221100,1.20672941207886,-1.30050396919250,-0.16272386908531
315,3661378669,0.631341,0.380720,-0.573636,0.356935,9.88985157012939,0.62748140096664,0.46356493234634,0.63500273227692,0.87019139528275,-0.03795161470771
316,3661395336,0.631427,0.380493,-0.573818,0.356730,9.77840709686279,0.63457697629929,0.46821379661560,-1.43689167499542,-0.48322835564613,0.59965735673904
317,3661412003,0.631341,0.380459,-0.573941,0.356722,9.80467319488525,0.70668262243271,0.49747970700264,0.83588314056396,-0.85853117704391,0.96039921045303
318,3661428670,0.631088,0.380569,-0.574088,0.356816,9.87017726898193,0.68623757362366,0.57376068830490,2.19709587097168,-1.71485364437103,1.30960309505463
319,3661445337,0.630831,0.380785,-0.574116,0.356994,9.89778327941895,0.69149100780487,0.55833721160889,3.34241890907288,-1.24608993530273,0.95432919263840
320,3661462004,0.630611,0.381032,-0.574104,0.357139,9.86115169525146,0.70290625095367,0.54155647754669,3.22936415672302,-1.09109461307526,0.48539897799492
321,3661478671,0.630415,0.381214,-0.574139,0.357234,9.87416934967041,0.70319986343384,0.55578911304474,2.69117760658264,-1.17122399806976,0.59322857856750
322,3661495338,0.630260,0.381281,-0.574217,0.357312,9.89313030242920,0.74256736040115,0.54505109786987,1.92015826702118,-0.96461910009384,0.99296599626541
323,3661512005,0.630156,0.381318,-0.574262,0.357383,9.87716484069824,0.74931001663208,0.48033320903778,1.64952170848846,-0.55528968572617,0.86122697591782
324,3661528672,0.630043,0.381403,-0.574295,0.357438,9.85939979553223,0.75529766082764,0.47622901201248,1.90513682365417,-0.70188403129578,0.59472686052322
325,3661545339,0.629895,0.381538,-0.574315,0.357525,9.84097862243652,0.73953258991241,0.47971540689468,2.27050185203552,-0.82876938581467,0.59011662006378
326,3661562006,0.629773,0.381660,-0.574312,0.357612,9.82609748840332,0.71273022890091,0.45159265398979,2.29475712776184,-0.58789467811584,0.51577574014664
327,3661578673,0.629663,0.381753,-0.574363,0.357626,9.82963466644287,0.70928722620010,0.46441844105721,1.70972442626953,-0.89345419406891,0.43268811702728
328,3661595340,0.629599,0.381783,-0.574445,0.357574,9.87409496307373,0.72003066539764,0.48291286826134,0.97467857599258,-0.86827689409256,0.35768136382103
329,3661612007,0.629559,0.381740,-0.574565,0.357498,9.90399742126465,0.73280656337738,0.49893996119499,0.39408975839615,-0.82120072841644,0.58317553997040
330,3661628674,0.629545,0.381688,-0.574649,0.357441,9.92642688751221,0.71138870716095,0.48641487956047,0.45850574970245,-0.48833820223808,0.54457724094391
331,3661645341,0.629558,0.381705,-0.574626,0.357437,9.90779018402100,0.64190876483917,0.38084867596626,1.15050959587097,0.04867693781853,0.15044899284840
332,3661662008,0.629603,0.381687,-0.574626,0.357378,9.86983489990234,0.66883659362793,0.58575415611267,0.64760434627533,0.02297459170222,0.03908497840166
333,3661678675,0.629623,0.381644,-0.574645,0.357358,9.86009025573730,0.61772543191910,0.42692404985428,0.70514321327209,-0.00273415562697,0.41345304250717
334,3661695342,0.629562,0.381618,-0.574722,0.357369,9.86008167266846,0.61600911617279,0.47390845417976,0.88746720552444,-0.53642594814301,0.82725173234940
335,3661712009,0.629504,0.381586,-0.574768,0.357434,9.90083694458008,0.65430325269699,0.52229332923889,1.21899807453156,-0.23073838651180,0.99922829866409
336,3661728676,0.629418,0.381576,-0.574831,0.357492,9.83472728729248,0.66922569274902,0.51643794775009,1.36797428131104,-0.48167887330055,1.00090587139130
337,3661745343,0.629337,0.381569,-0.574887,0.357553,9.89911174774170,0.68190824985504,0.50288742780685,1.40699541568756,-0.42960822582245,0.96736609935760
338,3661762010,0.629311,0.381509,-0.574937,0.357582,9.89600563049316,0.71920335292816,0.48326814174652,0.90182310342789,-0.13995419442654,0.88959312438965
339,3661778677,0.629319,0.381453,-0.574950,0.357607,9.89473342895508,0.67670428752899,0.49734127521515,0.87929672002792,0.12920325994492,0.67402380704880
340,3661795344,0.629345,0.381405,-0.574941,0.357628,9.89242744445801,0.68932640552521,0.50068610906601,0.95229291915894,0.26717886328697,0.52498352527618
341,3661812011,0.629367,0.381360,-0.574929,0.357655,9.87497138977051,0.68654602766037,0.52300715446472,0.96658480167389,0.26995784044266,0.54015898704529
342,3661828678,0.629399,0.381266,-0.574942,0.357679,9.87821960449219,0.68556201457977,0.51504945755005,0.62912470102310,0.31306400895119,0.76087641716003
343,3661845345,0.629433,0.381167,-0.574968,0.357684,9.88414859771729,0.67902457714081,0.47472718358040,0.55474543571472,0.23343415558338,0.72792577743530
344,3661862012,0.629467,0.381103,-0.574969,0.357688,9.88477802276611,0.70154732465744,0.45721954107285,0.72829711437225,0.25178563594818,0.51831144094467
345,3661878679,0.629515,0.381095,-0.574926,0.357682,9.84892940521240,0.68681770563126,0.44836530089378,1.01661920547485,0.33222231268883,0.11191469430923
346,3661895346,0.629556,0.381096,-0.574893,0.357662,9.86888122558594,0.65987110137939,0.47238808870316,0.96516329050064,0.19865207374096,0.04784452170134
347,3661912013,0.629578,0.381090,-0.574876,0.357658,9.85131835937500,0.65677654743195,0.44941183924675,1.02247178554535,0.11585904657841,0.23474037647247
348,3661928680,0.629569,0.381108,-0.574873,0.357659,9.86908912658691,0.65425097942352,0.46708089113235,1.20498800277710,-0.11138322204351,0.27942174673080
349,3661945347,0.629563,0.381109,-0.574868,0.357676,9.90421009063721,0.65248775482178,0.49435347318649,1.17356121540070,-0.01215963065624,0.40172237157822
350,3661962014,0.629551,0.381117,-0.574851,0.357717,9.89762210845947,0.67202526330948,0.48858284950256,1.35378491878510,0.06800171732903,0.46246287226677
351,3661978681,0.629568,0.381160,-0.574798,0.357727,9.87336921691895,0.67734891176224,0.47325819730759,1.38261198997498,0.17109285295010,0.02416558377445
352,3661995348,0.629577,0.381214,-0.574758,0.357716,9.87574577331543,0.67862826585770,0.48252341151237,1.34853434562683,-0.00710112135857,-0.05645679682493
353,3662012015,0.629583,0.381262,-0.574730,0.357700,9.87821006774902,0.67319399118423,0.49680018424988,1.28089106082916,-0.06041395291686,-0.01528437901288
354,3662028682,0.629588,0.381286,-0.574713,0.357694,9.87571239471436,0.68038702011108,0.53623622655869,1.19903302192688,-0.02953784726560,0.14568504691124
355,3662045349,0.629592,0.381312,-0.574688,0.357698,9.88564777374268,0.65807944536209,0.49579334259033,1.26261651515961,0.01986264809966,0.17520368099213
356,3662062016,0.629607,0.381332,-0.574651,0.357709,9.87715530395508,0.66518598794937,0.51080983877182,1.27315616607666,0.15557152032852,0.16575258970261
357,3662078683,0.629617,0.381362,-0.574625,0.357702,9.88549804687500,0.65855491161346,0.50044518709183,1.24341976642609,0.00991211552173,0.08769788593054
358,3662095350,0.629646,0.381368,-0.574594,0.357695,9.87627983093262,0.65274178981781,0.49539065361023,1.06611585617065,0.17070864140987,0.12345319986343
359,3662112017,0.629681,0.381355,-0.574566,0.357692,9.86144256591797,0.66202682256699,0.48292121291161,0.97150242328644,0.23123143613338,0.20418442785740
360,3662128684,0.629707,0.381348,-0.574551,0.357678,9.86551952362061,0.68629109859467,0.47354802489281,0.94599223136902,0.09617567807436,0.19238977134228
361,3662145351,0.629705,0.381341,-0.574581,0.357639,9.84981250762939,0.66375023126602,0.47483620047569,0.83306580781937,-0.26705718040466,0.27812826633453
362,3662162018,0.629693,0.381324,-0.574620,0.357617,9.86293029785156,0.67107069492340,0.48863232135773,0.85880661010742,-0.28095209598541,0.43422487378120
363,3662178685,0.629686,0.381330,-0.574637,0.357596,9.87266826629639,0.70566296577454,0.49329319596291,1.00347983837128,-0.21670264005661,0.27452972531319
364,3662195352,0.629718,0.381321,-0.574633,0.357556,9.87965488433838,0.68863803148270,0.51378297805786,0.80121642351151,0.01091100927442,0.10622866451740
365,3662212019,0.629778,0.381276,-0.574629,0.357505,9.88029861450195,0.70660489797592,0.49879866838455,0.53565120697021,0.17776495218277,0.12785859405994
366,3662228686,0.629651,0.381442,-0.574594,0.357607,9.87667751312256,0.68033027648926,0.31350934505463,2.63452243804932,-0.53636199235916,0.33564162254333
367,3662245353,0.629589,0.381580,-0.574642,0.357491,9.86261653900146,0.73626714944839,0.67632359266281,1.27978980541229,-1.14019417762756,-0.43625473976135
368,3662262020,0.629649,0.381605,-0.574584,0.357454,9.91137218475342,0.59789764881134,0.44785079360008,1.03494513034821,0.27930650115013,-0.22500118613243
369,3662278687,0.629776,0.381368,-0.574728,0.357249,9.81551551818848,0.70608603954315,0.43284106254578,-1.43038594722748,-0.12588001787663,0.44302287697792
370,3662295354,0.629827,0.381262,-0.574805,0.357150,9.85544776916504,0.66096538305283,0.43618285655975,-0.07610172778368,-0.17833481729031,0.39747068285942
371,3662312021,0.629683,0.381221,-0.574995,0.357140,9.89669418334961,0.69169354438782,0.48383799195290,0.75657349824905,-1.36535537242889,1.30084323883057
372,3662328688,0.629529,0.381369,-0.574993,0.357258,9.91234016418457,0.73032879829407,0.51783245801926,2.56992697715759,-0.70402258634567,0.62562853097916
373,3662345355,0.629388,0.381585,-0.574986,0.357288,9.87414646148682,0.66152173280716,0.47815194725990,2.52205705642700,-1.03256964683533,-0.06309048831463
374,3662362022,0.629296,0.381737,-0.575006,0.357256,9.88880252838135,0.68245446681976,0.47812053561211,1.79367005825043,-0.95559054613113,-0.13716240227222
375,3662378689,0.629240,0.381803,-0.575043,0.357222,9.89899349212646,0.68993681669235,0.50783616304398,1.25727629661560,-0.68299466371536,0.15893961489201
376,3662395356,0.629217,0.381816,-0.575072,0.357202,9.89162158966064,0.67357003688812,0.45421668887138,1.06042981147766,-0.34855681657791,0.32629296183586
377,3662412023,0.629180,0.381900,-0.575049,0.357216,9.87046527862549,0.68580085039139,0.43799909949303,1.63861083984375,-0.26509782671928,0.08833820372820
378,3662428690,0.629108,0.382049,-0.574998,0.357265,9.85242462158203,0.65424430370331,0.46403366327286,2.22282361984253,-0.35315430164337,-0.00421969266608
379,3662445357,0.629020,0.382164,-0.574971,0.357341,9.83602714538574,0.66314327716827,0.45110329985619,2.16424775123596,-0.36398851871490,0.34684720635414
380,3662462024,0.628963,0.382211,-0.575002,0.357339,9.85379314422607,0.68929940462112,0.44042837619781,1.32900452613831,-0.52787131071091,0.35547867417336
381,3662478691,0.628925,0.382213,-0.575074,0.357289,9.89722919464111,0.71203023195267,0.46828818321228,0.83584481477737,-0.64234733581543,0.38894164562225
382,3662495358,0.628901,0.382181,-0.575132,0.357271,9.91466999053955,0.71077245473862,0.47261074185371,0.78506761789322,-0.36237487196922,0.59052634239197
383,3662512025,0.628911,0.382181,-0.575132,0.357255,9.90393829345703,0.71335864067078,0.49332895874977,0.97584378719330,-0.05344729870558,0.23663574457169
384,3662528692,0.628949,0.382192,-0.575095,0.357236,9.91804981231689,0.68462127447128,0.47732990980148,1.03191006183624,0.18091531097889,0.01335702370852
385,3662545359,0.628949,0.382265,-0.575017,0.357285,9.85636425018311,0.69973033666611,0.44367513060570,1.78185009956360,0.23824936151505,0.04666634276509
386,3662562026,0.628960,0.382311,-0.574945,0.357330,9.84932994842529,0.69807457923889,0.42692080140114,1.62196266651154,0.31471604108810,0.12691092491150
387,3662578693,0.628937,0.382280,-0.575018,0.357287,9.85776329040527,0.67038339376450,0.48568046092987,0.64118826389313,-0.49369108676910,0.51385480165482
388,3662595360,0.628920,0.382276,-0.575013,0.357329,9.90439224243164,0.68822246789932,0.49993744492531,1.27197790145874,0.02168115042150,0.55792146921158
389,3662612027,0.628885,0.382340,-0.574988,0.357362,9.84185791015625,0.70915067195892,0.46930634975433,1.64432251453400,-0.14758677780628,0.24171985685825
390,3662628694,0.628841,0.382447,-0.574939,0.357404,9.88513851165771,0.66614532470703,0.47578442096710,1.94488739967346,-0.16613036394119,0.06570937484503
391,3662645361,0.628818,0.382472,-0.574938,0.357419,9.88585567474365,0.70506823062897,0.46855571866035,1.31503283977509,-0.15377224981785,0.35314792394638
392,3662662028,0.628848,0.382432,-0.574949,0.357392,9.89154243469238,0.69974219799042,0.44915375113487,0.67408782243729,0.05127661675215,0.32046607136726
393,3662678695,0.628915,0.382350,-0.574962,0.357339,9.88379669189453,0.70930135250092,0.48033827543259,0.27664273977280,0.21588943898678,0.29596754908562
394,3662695362,0.628993,0.382294,-0.574930,0.357314,9.87506008148193,0.70955884456635,0.50889432430267,0.60349929332733,0.46821299195290,0.16521473228931
395,3662712029,0.629057,0.382260,-0.574881,0.357318,9.87076568603516,0.67840200662613,0.49069404602051,0.91464227437973,0.51407247781754,0.19931802153587
396,3662728696,0.629117,0.382221,-0.574836,0.357325,9.84762763977051,0.65925675630569,0.47654986381531,0.87936079502106,0.49120032787323,0.24795651435852
397,3662745363,0.629166,0.382179,-0.574815,0.357318,9.86053371429443,0.68117719888687,0.46662786602974,0.82383245229721,0.32414150238037,0.28789955377579
398,3662762030,0.629198,0.382145,-0.574805,0.357315,9.86765098571777,0.69529253244400,0.45711013674736,0.84223514795303,0.19885697960854,0.34693679213524
399,3662778697,0.629220,0.382151,-0.574782,0.357305,9.84190654754639,0.70228606462479,0.45082676410675,1.03129541873932,0.09264113754034,0.14948852360249
400,3662795364,0.629227,0.382159,-0.574783,0.357283,9.88605403900146,0.70588034391403,0.44582745432854,1.03128266334534,-0.09870494902134,0.18666537106037
401,3662812031,0.629226,0.382185,-0.574769,0.357281,9.87569046020508,0.68982881307602,0.46796062588692,1.18138587474823,-0.06478092074394,0.18534630537033
402,3662828698,0.629216,0.382219,-0.574755,0.357284,9.87022495269775,0.69309604167938,0.45402896404266,1.30964136123657,-0.10066431015730,0.19571943581104
403,3662845365,0.629211,0.382257,-0.574728,0.357296,9.87223720550537,0.69414615631104,0.46743965148926,1.36146867275238,-0.01342745684087,0.17027322947979
404,3662862032,0.629209,0.382287,-0.574719,0.357282,9.85011959075928,0.67805689573288,0.48220387101173,1.18877506256104,-0.13232161104679,0.13985815644264
405,3662878699,0.629212,0.382291,-0.574717,0.357275,9.86579036712646,0.70774322748184,0.43900531530380,1.04994153976440,-0.05532983317971,0.26673066616058
406,3662895366,0.629198,0.382313,-0.574731,0.357254,9.85110378265381,0.70929390192032,0.45774200558662,1.09449446201324,-0.27410069108009,0.22459775209427
407,3662912033,0.629170,0.382340,-0.574752,0.357240,9.86824703216553,0.70909160375595,0.46645423769951,1.14728236198425,-0.35845613479614,0.28542789816856
408,3662928700,0.629145,0.382354,-0.574773,0.357236,9.86250782012939,0.70261657238007,0.47758504748344,1.12585747241974,-0.27949219942093,0.37316426634789
409,3662945367,0.629123,0.382370,-0.574783,0.357240,9.87205219268799,0.68309617042542,0.46028688549995,1.15944838523865,-0.21268144249916,0.36209952831268
410,3662962034,0.629109,0.382378,-0.574802,0.357226,9.85856151580811,0.70218181610107,0.47435262799263,1.08851397037506,-0.24231533706188,0.32667717337608
411,3662978701,0.629108,0.382372,-0.574811,0.357219,9.88692569732666,0.69791358709335,0.47938275337219,0.98793298006058,-0.09228895604610,0.34458044171333
412,3662995368,0.629114,0.382372,-0.574809,0.357213,9.88632106781006,0.69815587997437,0.46050491929054,1.02656972408295,-0.03369990736246,0.28573524951935
413,3663012035,0.629125,0.382365,-0.574813,0.357195,9.87153720855713,0.70912122726440,0.47083073854446,0.92945921421051,-0.05331923440099,0.26345220208168
414,3663028702,0.629147,0.382346,-0.574824,0.357158,9.88282394409180,0.68486160039902,0.45265129208565,0.71266049146652,-0.06271909922361,0.21713164448738
415,3663045369,0.629176,0.382285,-0.574860,0.357114,9.86832618713379,0.69322276115417,0.47780275344849,0.49392813444138,-0.05826249346137,0.40350246429443
416,3663062036,0.629205,0.382215,-0.574899,0.357074,9.87500667572021,0.71024906635284,0.48135751485825,0.44352233409882,-0.03532631695271,0.46530589461327
417,3663078703,0.629247,0.382140,-0.574935,0.357024,9.87900447845459,0.70949447154999,0.46978130936623,0.33114659786224,0.01301125157624,0.39754751324654
418,3663095370,0.629338,0.382022,-0.574969,0.356935,9.86598968505859,0.70683372020721,0.46512138843536,-0.10809200257063,0.21841230988503,0.28158602118492
419,3663112037,0.629303,0.382007,-0.575011,0.356944,9.88089179992676,0.68736743927002,0.34110063314438,1.03567504882812,-0.30764055252075,0.62074935436249
420,3663128704,0.629222,0.382134,-0.575034,0.356915,9.82911014556885,0.73824471235275,0.49260377883911,1.67457103729248,-0.85393381118774,-0.03583856672049
421,3663145371,0.629263,0.382109,-0.575063,0.356823,9.96189022064209,0.62534219026566,0.53492546081543,0.41228762269020,-0.19973422586918,0.00612143473700
422,3663162038,0.629410,0.381824,-0.575196,0.356654,9.80620574951172,0.70179170370102,0.36369490623474,-1.53421986103058,0.21787445247173,0.71555477380753
423,3663178705,0.629492,0.381669,-0.575270,0.356557,9.87001228332520,0.66316097974777,0.41566920280457,-0.37237659096718,0.08283145725727,0.51688987016678
424,3663195372,0.629431,0.381527,-0.575468,0.356496,9.83554267883301,0.67715263366699,0.44559818506241,-0.11660821735859,-0.96204495429993,1.29935789108276
425,3663212039,0.629278,0.381547,-0.575548,0.356616,9.93444538116455,0.72134983539581,0.51853209733963,1.82595503330231,-0.73925292491913,1.35081374645233
426,3663228706,0.629177,0.381659,-0.575538,0.356690,9.89056015014648,0.69725632667542,0.46661400794983,2.09975481033325,-0.48324123024940,0.42295530438423
427,3663245373,0.629076,0.381757,-0.575573,0.356707,9.88830566406250,0.69439625740051,0.47890198230743,1.70074725151062,-0.80129963159561,0.35300701856613
428,3663262040,0.629042,0.381794,-0.575587,0.356703,9.92058658599854,0.71169263124466,0.51059168577194,1.24559688568115,-0.34703287482262,0.28741291165352
429,3663278707,0.629065,0.381787,-0.575563,0.356710,9.91044902801514,0.68389296531677,0.47453340888023,1.05298924446106,0.17914801836014,0.27029085159302
430,3663295374,0.629093,0.381806,-0.575493,0.356754,9.88116455078125,0.70422536134720,0.45292487740517,1.40136051177979,0.43303394317627,0.18858630955219
431,3663312041,0.629108,0.381894,-0.575373,0.356826,9.86421775817871,0.67994457483292,0.45061317086220,1.96882259845734,0.50140696763992,-0.06128478795290
432,3663328708,0.629101,0.381969,-0.575265,0.356933,9.84929943084717,0.65672677755356,0.44025522470474,2.06896829605103,0.48829331994057,0.22797864675522
433,3663345375,0.629118,0.381961,-0.575217,0.356989,9.83757972717285,0.69489258527756,0.45344576239586,1.32329285144806,0.38714873790741,0.43599215149879
434,3663362042,0.629187,0.381917,-0.575189,0.356959,9.86854743957520,0.72754687070847,0.46312591433525,0.64673346281052,0.37187081575394,0.13223837316036
435,3663378709,0.629256,0.381865,-0.575169,0.356926,9.90292263031006,0.72615635395050,0.49630969762802,0.54269468784332,0.34843513369560,0.16297359764576
436,3663395376,0.629350,0.381819,-0.575093,0.356933,9.92577362060547,0.72318512201309,0.51202255487442,0.82480585575104,0.78283941745758,0.11314411461353
437,3663412043,0.629484,0.381811,-0.574947,0.356939,9.92360591888428,0.70284909009933,0.49730181694031,1.05099129676819,1.14309465885162,-0.32071581482887
438,3663428710,0.629586,0.381902,-0.574734,0.357004,9.88201141357422,0.67916172742844,0.43910181522369,1.97199857234955,1.22369801998138,-0.56266617774963
439,3663445377,0.629740,0.381892,-0.574547,0.357045,9.86589431762695,0.70794308185577,0.48985829949379,1.22857713699341,1.49975144863129,-0.31981936097145
440,3663462044,0.629853,0.381838,-0.574464,0.357037,9.87419700622559,0.66007071733475,0.47513890266418,0.70724338293076,0.87220203876495,0.01183306705207
441,3663478711,0.629978,0.381763,-0.574373,0.357042,9.92704677581787,0.66547697782516,0.56643241643906,0.65133094787598,1.03110325336456,0.09885221719742
442,3663495378,0.630133,0.381756,-0.574183,0.357082,9.80578613281250,0.71446478366852,0.47119975090027,1.27003109455109,1.51102101802826,-0.34378001093864
443,3663512045,0.630209,0.381803,-0.574052,0.357109,9.88509654998779,0.71908181905746,0.51440864801407,1.48846936225891,0.77346515655518,-0.27141138911247
444,3663528712,0.630319,0.381767,-0.573932,0.357146,9.90221214294434,0.76428258419037,0.52950340509415,1.10048806667328,1.09058880805969,0.05404279753566
445,3663545379,0.630493,0.381672,-0.573805,0.357145,9.90472221374512,0.73410958051682,0.50483125448227,0.50705462694168,1.41980159282684,-0.06644574552774
446,3663562046,0.630709,0.381532,-0.573672,0.357127,9.88082981109619,0.72015368938446,0.52065789699554,0.14279080927372,1.67559552192688,-0.07395027577877
447,3663578713,0.630931,0.381409,-0.573519,0.357111,9.88375473022461,0.72853064537048,0.54451787471771,0.27044451236725,1.74676060676575,-0.19754436612129
448,3663595380,0.631175,0.381288,-0.573326,0.357120,9.87023162841797,0.70605695247650,0.52187961339951,0.40973919630051,2.06821274757385,-0.26514908671379
449,3663612047,0.631397,0.381167,-0.573155,0.357130,9.86579418182373,0.67833185195923,0.53393572568893,0.42531165480614,1.89307296276093,-0.14035119116306
450,3663628714,0.631615,0.381043,-0.572975,0.357166,9.85940074920654,0.68343526124954,0.53477096557617,0.54238730669022,1.99232220649719,-0.03402006253600
451,3663645381,0.631812,0.380974,-0.572780,0.357203,9.85795593261719,0.69885849952698,0.49479553103447,0.88297206163406,1.83682715892792,-0.23122501373291
452,3663662048,0.632014,0.380896,-0.572604,0.357212,9.88143348693848,0.73729223012924,0.55202877521515,0.67723816633224,1.72879314422607,-0.27964588999748
453,3663678715,0.632221,0.380789,-0.572456,0.357198,9.89580726623535,0.73992234468460,0.55655884742737,0.39610043168068,1.63754796981812,-0.20202659070492
454,3663695382,0.632437,0.380677,-0.572293,0.357195,9.88047218322754,0.72833722829819,0.52232122421265,0.41848587989807,1.77556192874908,-0.20073311030865
455,3663712049,0.632630,0.380576,-0.572113,0.357249,9.85345554351807,0.73309898376465,0.55109059810638,0.78136658668518,1.88074040412903,0.02041332051158
456,3663728716,0.632792,0.380492,-0.571946,0.357318,9.86188220977783,0.74237900972366,0.53945791721344,0.96734040975571,1.70408964157104,0.12222379446030
457,3663745383,0.632959,0.380411,-0.571802,0.357340,9.85337924957275,0.73940694332123,0.54730850458145,0.72878378629684,1.49044144153595,-0.04074340686202
458,3663762050,0.633146,0.380339,-0.571654,0.357323,9.82758426666260,0.71544891595840,0.54096543788910,0.56319767236710,1.46099972724915,-0.30820402503014
459,3663778717,0.633308,0.380297,-0.571529,0.357280,9.82407760620117,0.70611172914505,0.55575263500214,0.61099088191986,1.12493538856506,-0.41668656468391
460,3663795384,0.633470,0.380246,-0.571409,0.357239,9.82011318206787,0.70932453870773,0.54790008068085,0.59246009588242,1.12855958938599,-0.36151683330536
461,3663812051,0.633598,0.380170,-0.571328,0.357223,9.83769607543945,0.73149091005325,0.56952226161957,0.57049727439880,0.95558422803879,0.03548639640212
462,3663828718,0.633728,0.380063,-0.571262,0.357211,9.84940147399902,0.74293506145477,0.58410859107971,0.42533728480339,0.97995460033417,0.21267504990101
463,3663845385,0.633854,0.379948,-0.571187,0.357231,9.85737419128418,0.73175132274628,0.57680469751358,0.48381108045578,1.11020803451538,0.36354666948318
464,3663862052,0.633974,0.379868,-0.571090,0.357258,9.85664653778076,0.73490858078003,0.57035672664642,0.75388419628143,1.11047708988190,0.21198353171349
465,3663878719,0.634073,0.379823,-0.570996,0.357279,9.85937786102295,0.71063178777695,0.58087122440338,0.88491886854172,0.90904587507248,0.10661286860704
466,3663895386,0.634144,0.379775,-0.570930,0.357311,9.84187602996826,0.72438114881516,0.62335711717606,0.90234816074371,0.71355700492859,0.30399712920189
467,3663912053,0.634186,0.379734,-0.570872,0.357371,9.86245536804199,0.72999894618988,0.60920292139053,1.12713813781738,0.62379735708237,0.50031846761703
468,3663928720,0.634234,0.379725,-0.570787,0.357434,9.89009189605713,0.73672020435333,0.63798439502716,1.36226272583008,0.69777959585190,0.29792696237564
469,3663945387,0.634321,0.379706,-0.570650,0.357515,9.86040496826172,0.73383373022079,0.60912567377090,1.32760882377625,1.14194226264954,0.18112021684647
470,3663962054,0.634371,0.379679,-0.570560,0.357600,9.89165973663330,0.74295169115067,0.65013128519058,1.39406096935272,0.82653474807739,0.44718500971794
471,3663978721,0.634337,0.379854,-0.570371,0.357775,9.78175449371338,0.69074720144272,0.50289058685303,3.06594252586365,0.66876041889191,-0.00013446668163
472,3663995388,0.634342,0.379887,-0.570334,0.357791,9.89690589904785,0.68839019536972,0.70611864328384,1.34432089328766,0.09037441015244,0.15855543315411
473,3664012055,0.634548,0.379624,-0.570360,0.357665,9.74901580810547,0.72594833374023,0.51294338703156,-1.16710031032562,0.96292233467102,0.37166586518288
474,3664028722,0.634570,0.379423,-0.570528,0.357571,9.88148307800293,0.65442919731140,0.59009265899658,-0.63301146030426,-0.44516795873642,1.09551918506622
475,3664045389,0.634539,0.379216,-0.570747,0.357494,9.82997989654541,0.77617359161377,0.61775636672974,-0.59492534399033,-0.81895971298218,1.45702958106995
476,3664062056,0.634413,0.379229,-0.570811,0.357602,9.95235443115234,0.71688944101334,0.61847680807114,1.70989108085632,-0.57243746519089,1.22189223766327
477,3664078723,0.634288,0.379392,-0.570749,0.357751,9.88227462768555,0.74499756097794,0.54983520507812,2.89467024803162,-0.27558624744415,0.49517032504082
478,3664095390,0.634169,0.379618,-0.570669,0.357849,9.83687877655029,0.70617735385895,0.60555708408356,2.95576953887939,-0.47322660684586,-0.04696729034185
479,3664112057,0.634110,0.379716,-0.570650,0.357879,9.90800189971924,0.70081996917725,0.62163615226746,1.80564403533936,-0.35848176479340,0.17242468893528
480,3664128724,0.634144,0.379672,-0.570635,0.357890,9.85902595520020,0.70390433073044,0.59412795305252,0.86309671401978,0.28389114141464,0.42691245675087
481,3664145391,0.634165,0.379644,-0.570635,0.357883,9.79549407958984,0.70930922031403,0.51518881320953,0.83960986137390,0.08052632957697,0.35599091649055
482,3664162058,0.634101,0.379654,-0.570692,0.357893,9.79842758178711,0.70519375801086,0.54997903108597,1.21103250980377,-0.54366159439087,0.64254575967789
483,3664178725,0.633969,0.379707,-0.570766,0.357955,9.79456424713135,0.70049196481705,0.52785986661911,1.70043981075287,-0.85602122545242,0.90959668159485
484,3664195392,0.633821,0.379776,-0.570847,0.358013,9.84139442443848,0.71489351987839,0.54055052995682,1.80887150764465,-1.00162959098816,0.89152687788010
485,3664212059,0.633713,0.379803,-0.570954,0.358006,9.86576938629150,0.72830772399902,0.57871693372726,1.18709754943848,-1.02459120750427,0.73713356256485
486,3664228726,0.633648,0.379801,-0.571054,0.357965,9.90290927886963,0.73572677373886,0.57738828659058,0.82221883535385,-0.84179335832596,0.58172845840454
487,3664245393,0.633618,0.379771,-0.571127,0.357933,9.90058708190918,0.73575872182846,0.61333096027374,0.72126632928848,-0.49543285369873,0.57255899906158
488,3664262060,0.633591,0.379765,-0.571158,0.357937,9.89690113067627,0.71515870094299,0.56154924631119,1.06857454776764,-0.26385566592216,0.52112883329391
489,3664278727,0.633539,0.379816,-0.571181,0.357938,9.83835601806641,0.70602756738663,0.57877820730209,1.36716735363007,-0.47194597125053,0.32286089658737
490,3664295394,0.633579,0.379727,-0.571230,0.357884,9.85940647125244,0.71354633569717,0.62120866775513,0.25553789734840,-0.02875665761530,0.46907097101212
491,3664312061,0.633597,0.379585,-0.571332,0.357840,9.84659290313721,0.64379268884659,0.54423546791077,-0.01452880259603,-0.18957878649235,0.91952151060104
492,3664328728,0.633529,0.379587,-0.571406,0.357841,9.84465312957764,0.70567494630814,0.59916949272156,1.00814139842987,-0.64556169509888,0.68534457683563
493,3664345395,0.633417,0.379654,-0.571475,0.357856,9.82570743560791,0.68911558389664,0.57095968723297,1.54986262321472,-0.91280442476273,0.58706855773926
494,3664362062,0.633281,0.379675,-0.571608,0.357863,9.86306285858154,0.74199092388153,0.62002456188202,1.19547259807587,-1.20236897468567,0.95680075883865
495,3664378729,0.633190,0.379647,-0.571738,0.357846,9.89821624755859,0.75669652223587,0.61436575651169,0.78922981023788,-0.94645977020264,0.92927992343903
496,3664395396,0.633164,0.379575,-0.571859,0.357774,9.89615821838379,0.72447562217712,0.58793067932129,0.24707289040089,-0.69281709194183,0.67868524789810
497,3664412063,0.633197,0.379501,-0.571930,0.357681,9.87598609924316,0.72552305459976,0.57710331678391,0.14984709024429,-0.28549832105637,0.32528129220009
498,3664428730,0.633210,0.379443,-0.572004,0.357602,9.87878990173340,0.72516900300980,0.59242022037506,0.27058535814285,-0.38249364495277,0.37330508232117
499,3664445397,0.633210,0.379373,-0.572075,0.357562,9.85332775115967,0.68753677606583,0.59892135858536,0.42435118556023,-0.28718876838684,0.61671537160873
500,3664462064,0.633184,0.379288,-0.572176,0.357537,9.85983562469482,0.71047228574753,0.57149749994278,0.42121362686157,-0.45184001326561,0.88330513238907
501,3664478731,0.633166,0.379205,-0.572276,0.357496,9.85468864440918,0.69710153341293,0.56968438625336,0.33608984947205,-0.45969030261040,0.78034210205078
502,3664495398,0.633139,0.379131,-0.572378,0.357460,9.85129547119141,0.69692504405975,0.58630853891373,0.45868504047394,-0.51067245006561,0.79709291458130
503,3664512065,0.633121,0.379088,-0.572461,0.357402,9.87134075164795,0.71057677268982,0.55639255046844,0.49773156642914,-0.52569419145584,0.50961583852768
504,3664528732,0.633100,0.379077,-0.572522,0.357355,9.87918090820312,0.67337924242020,0.55733811855316,0.72282886505127,-0.49406263232231,0.37566149234772
505,3664545399,0.633045,0.379102,-0.572594,0.357311,9.87029552459717,0.67899698019028,0.53506863117218,0.96361386775970,-0.75795024633408,0.36379000544548
506,3664562066,0.632961,0.379138,-0.572677,0.357288,9.86892700195312,0.69536375999451,0.55332863330841,1.14857590198517,-0.88959944248199,0.51486647129059
507,3664578733,0.632874,0.379158,-0.572778,0.357260,9.87991428375244,0.70087575912476,0.57873499393463,1.02034580707550,-0.95381051301956,0.60388338565826
508,3664595400,0.632815,0.379150,-0.572880,0.357210,9.86821460723877,0.71784102916718,0.56940144300461,0.72089505195618,-0.83345645666122,0.55244034528732
509,3664612067,0.632784,0.379143,-0.572948,0.357163,9.86300563812256,0.70124030113220,0.55083936452866,0.75704741477966,-0.57545971870422,0.40816399455070
510,3664628734,0.632740,0.379153,-0.573019,0.357115,9.85238742828369,0.71717023849487,0.56677424907684,0.88178128004074,-0.68056136369705,0.37582796812057
511,3664645401,0.632695,0.379175,-0.573091,0.357057,9.85150909423828,0.69611549377441,0.55452883243561,0.93713027238846,-0.74354302883148,0.29258665442467
512,3664662068,0.632617,0.379204,-0.573187,0.357010,9.87684249877930,0.68917554616928,0.56164664030075,0.97571569681168,-0.96108454465866,0.45121896266937
513,3664678735,0.632525,0.379220,-0.573276,0.357013,9.88705253601074,0.70573532581329,0.57034063339233,1.17897820472717,-0.83355891704559,0.73983561992645
514,3664695402,0.632446,0.379279,-0.573319,0.357021,9.90285873413086,0.70785140991211,0.57020586729050,1.43272316455841,-0.67068773508072,0.43752893805504
515,3664712069,0.632438,0.379278,-0.573345,0.356994,9.86897182464600,0.70621711015701,0.58149951696396,0.93150824308395,-0.26645532250404,0.30362573266029
516,3664728736,0.632379,0.379284,-0.573416,0.356979,9.87181472778320,0.70316267013550,0.54386210441589,0.96853142976761,-0.64913463592529,0.57022833824158
517,3664745403,0.632172,0.379527,-0.573424,0.357075,9.83826065063477,0.70032674074173,0.44577100872993,3.02018547058105,-1.24035251140594,0.31736695766449
518,3664762070,0.632107,0.379570,-0.573550,0.356941,9.95035076141357,0.68418842554092,0.74412852525711,0.57538926601410,-1.31322062015533,0.06531238555908
519,3664778737,0.632271,0.379346,-0.573610,0.356792,9.80911827087402,0.65767115354538,0.42801487445831,-1.06056427955627,0.49987024068832,0.32248952984810
520,3664795404,0.632298,0.379180,-0.573787,0.356637,9.84732818603516,0.62537503242493,0.46487143635750,-0.77448326349258,-0.70951664447784,0.70931816101074
521,3664812071,0.632217,0.379141,-0.573950,0.356560,9.80842399597168,0.72011822462082,0.51450461149216,0.39460209012032,-1.18712949752808,0.76605021953583
522,3664828738,0.631994,0.379240,-0.574104,0.356601,9.87830448150635,0.69889414310455,0.54672819375992,1.86163341999054,-1.73781514167786,1.06851053237915
523,3664845405,0.631779,0.379423,-0.574174,0.356675,9.92490673065186,0.69765567779541,0.54367929697037,2.54550552368164,-1.45003104209900,0.63892161846161
524,3664862072,0.631603,0.379616,-0.574229,0.356693,9.87735939025879,0.70431053638458,0.54107040166855,2.29370689392090,-1.41264939308167,0.21531318128109
525,3664878739,0.631464,0.379737,-0.574315,0.356672,9.93459796905518,0.68653768301010,0.56097030639648,1.66166234016418,-1.32027721405029,0.33004525303841
526,3664895406,0.631413,0.379747,-0.574379,0.356649,9.93440341949463,0.69398909807205,0.57001948356628,0.97675293684006,-0.61615824699402,0.48154434561729
527,3664912073,0.631382,0.379749,-0.574400,0.356666,9.91898918151855,0.70470732450485,0.51890534162521,1.15248179435730,-0.22580794990063,0.52509874105453
528,3664928740,0.631345,0.379856,-0.574332,0.356728,9.87597370147705,0.69505590200424,0.51148718595505,2.03505706787109,-0.00336166657507,0.08685266226530
529,3664945407,0.631272,0.380024,-0.574246,0.356818,9.84046649932861,0.67584133148193,0.52229565382004,2.56906890869141,-0.13971087336540,0.01498342957348
530,3664962074,0.631204,0.380141,-0.574197,0.356892,9.84037780761719,0.68241554498672,0.49253121018410,2.18847727775574,-0.19308774173260,0.23070636391640
531,3664978741,0.631150,0.380195,-0.574210,0.356908,9.85524272918701,0.68986690044403,0.50302702188492,1.49173486232758,-0.41252455115318,0.35392910242081
532,3664995408,0.631122,0.380203,-0.574248,0.356888,9.88446044921875,0.72016143798828,0.53186601400375,1.05006945133209,-0.39399373531342,0.38485640287399
533,3665012075,0.631116,0.380178,-0.574276,0.356880,9.90501308441162,0.73089915513992,0.54468327760696,0.86404436826706,-0.15158234536648,0.47776645421982
534,3665028742,0.631129,0.380193,-0.574245,0.356892,9.92070007324219,0.72690504789352,0.54292207956314,1.21479749679565,0.12972831726074,0.21417340636253
535,3665045409,0.631090,0.380334,-0.574125,0.357004,9.88868427276611,0.66764277219772,0.44774982333183,2.52781963348389,0.26286309957504,0.03872639685869
536,3665062076,0.631110,0.380394,-0.574049,0.357026,9.86545181274414,0.73594123125076,0.57985669374466,1.52019059658051,0.26506581902504,-0.06087498366833
537,3665078743,0.631096,0.380462,-0.574000,0.357057,9.84428501129150,0.66266006231308,0.44551840424538,1.63774013519287,0.02777697332203,0.10064511001110
538,3665095410,0.631057,0.380451,-0.574067,0.357030,9.89259815216064,0.66304612159729,0.61478078365326,0.87925833463669,-0.54083132743835,0.53029811382294
539,3665112077,0.631036,0.380509,-0.574003,0.357109,9.86141204833984,0.68009179830551,0.50094521045685,1.82592904567719,0.20989604294300,0.32634416222572
540,3665128744,0.630939,0.380594,-0.574025,0.357153,9.89216804504395,0.68886631727219,0.51718705892563,1.81528711318970,-0.62509709596634,0.48281213641167
541,3665145411,0.630889,0.380630,-0.574024,0.357205,9.88362598419189,0.73266398906708,0.54509305953979,1.54495811462402,-0.19079540669918,0.52977311611176
542,3665162078,0.630898,0.380626,-0.574013,0.357213,9.87539482116699,0.72867941856384,0.54550796747208,1.07295429706573,0.05935742706060,0.33050626516342
543,3665178745,0.630945,0.380601,-0.573986,0.357199,9.90105819702148,0.71898186206818,0.53951352834702,0.83952021598816,0.27782094478607,0.18252889811993
544,3665195412,0.631017,0.380599,-0.573919,0.357180,9.88531684875488,0.72277444601059,0.52453804016113,0.95598113536835,0.48319634795189,-0.09493988007307
545,3665212079,0.631072,0.380642,-0.573834,0.357173,9.87422943115234,0.70878332853317,0.52905577421188,1.30609393119812,0.40895792841911,-0.22634582221508
546,3665228746,0.631092,0.380672,-0.573786,0.357183,9.86909580230713,0.67775970697403,0.56189912557602,1.30679833889008,0.19037918746471,0.08020617067814
547,3665245413,0.631121,0.380662,-0.573749,0.357203,9.85923767089844,0.68513035774231,0.51296985149384,1.14248013496399,0.30692979693413,0.29015347361565
548,3665262080,0.631123,0.380644,-0.573748,0.357219,9.88267135620117,0.71032017469406,0.53749841451645,1.04775142669678,0.04848484322429,0.46376916766167
549,3665278747,0.631143,0.380656,-0.573734,0.357195,9.85762500762939,0.71348285675049,0.51966798305511,1.01167607307434,-0.00056988262804,0.09128366410732
550,3665295414,0.631149,0.380682,-0.573731,0.357160,9.86275291442871,0.70686167478561,0.51874423027039,1.02505874633789,-0.17536376416683,0.05049544200301
551,3665312081,0.631114,0.380754,-0.573725,0.357156,9.85140609741211,0.70131462812424,0.50452363491058,1.46029531955719,-0.34757074713707,0.10333444178104
552,3665328748,0.631060,0.380858,-0.573704,0.357175,9.85938358306885,0.69358646869659,0.53783851861954,1.81595313549042,-0.37350359559059,0.07866940647364
553,3665345415,0.630980,0.380958,-0.573713,0.357194,9.84255981445312,0.68959105014801,0.51974385976791,1.77837920188904,-0.59981739521027,0.24320538341999
554,3665362082,0.630902,0.381041,-0.573736,0.357207,9.84782695770264,0.70324862003326,0.52501785755157,1.62136077880859,-0.62522524595261,0.30865868926048
555,3665378749,0.630835,0.381092,-0.573778,0.357203,9.86452007293701,0.69982933998108,0.50761008262634,1.34465396404266,-0.63491958379745,0.38383191823959
556,3665395416,0.630779,0.381156,-0.573810,0.357184,9.85355377197266,0.70712149143219,0.49231001734734,1.35552656650543,-0.61538994312286,0.21924473345280
557,3665412083,0.630709,0.381209,-0.573873,0.357148,9.85673236846924,0.71989810466766,0.48772755265236,1.19607460498810,-0.82103431224823,0.29786288738251
558,3665428750,0.630631,0.381240,-0.573948,0.357131,9.86684608459473,0.70642822980881,0.49775648117065,1.15237939357758,-0.80310541391373,0.52926087379456
559,3665445417,0.630562,0.381260,-0.574031,0.357100,9.89910316467285,0.71900421380997,0.48298248648643,1.01591503620148,-0.81450307369232,0.50273889303207
560,3665462084,0.630495,0.381279,-0.574097,0.357090,9.89670658111572,0.70066255331039,0.50754326581955,1.11603510379791,-0.66950958967209,0.54818862676620
561,3665478751,0.630451,0.381287,-0.574154,0.357069,9.88117218017578,0.70291632413864,0.52809721231461,1.00481176376343,-0.54802852869034,0.46809768676758
562,3665495418,0.630425,0.381292,-0.574202,0.357031,9.89661598205566,0.70543509721756,0.51174461841583,0.88324111700058,-0.47012752294540,0.33210706710815
563,3665512085,0.630441,0.381238,-0.574260,0.356968,9.89259719848633,0.69113427400589,0.53050529956818,0.40140226483345,-0.27206453680992,0.38896730542183
564,3665528752,0.630452,0.381191,-0.574313,0.356914,9.87258529663086,0.70664066076279,0.51245617866516,0.44147327542305,-0.26395806670189,0.38461306691170
565,3665545419,0.630266,0.381411,-0.574302,0.357026,9.83699798583984,0.70960962772369,0.33564063906670,2.97268676757812,-0.98637706041336,0.37368932366371
566,3665562086,0.630271,0.381420,-0.574403,0.356845,9.93408870697021,0.69363826513290,0.73245006799698,0.14600518345833,-0.96344089508057,-0.23688544332981
567,3665578753,0.630414,0.381231,-0.574432,0.356748,9.81158256530762,0.64272081851959,0.35962349176407,-0.61433982849121,0.59726256132126,0.38244882225990
568,3665595420,0.630472,0.381053,-0.574579,0.356598,9.84465217590332,0.72421109676361,0.42938670516014,-0.80319505929947,-0.41525232791901,0.62962424755096
569,3665612087,0.630462,0.380974,-0.574705,0.356497,9.81684875488281,0.69144785404205,0.45366734266281,0.02782819792628,-0.70229369401932,0.55500155687332
570,3665628754,0.630311,0.380945,-0.574876,0.356518,9.88179016113281,0.69669818878174,0.47330433130264,1.03790354728699,-1.26186740398407,1.35637176036835
571,3665645421,0.630170,0.381067,-0.574914,0.356576,9.88009357452393,0.67413032054901,0.44811683893204,2.08580875396729,-0.91960483789444,0.54286122322083
572,3665662088,0.630007,0.381233,-0.574992,0.356560,9.86213207244873,0.68638122081757,0.44487071037292,1.99229681491852,-1.47946012020111,0.21076691150665
573,3665678755,0.629904,0.381322,-0.575071,0.356521,9.89532470703125,0.72544676065445,0.46439987421036,1.36821770668030,-1.12409675121307,0.26886934041977
574,3665695422,0.629842,0.381342,-0.575157,0.356469,9.88789939880371,0.69075757265091,0.46640947461128,0.88092315196991,-0.85106515884399,0.40359207987785
575,3665712089,0.629806,0.381354,-0.575214,0.356429,9.88580226898193,0.71090805530548,0.44921228289604,0.90115714073181,-0.57147687673569,0.34449079632759
576,3665728756,0.629770,0.381458,-0.575197,0.356408,9.85932922363281,0.70062434673309,0.43279588222504,1.55881440639496,-0.42964664101601,-0.12621296942234
577,3665745423,0.629707,0.381575,-0.575189,0.356409,9.84972286224365,0.67115050554276,0.42843461036682,1.76367735862732,-0.54609465599060,0.00113976502325
578,3665762090,0.629653,0.381650,-0.575196,0.356412,9.84241676330566,0.66288965940475,0.42556646466255,1.51327526569366,-0.47199723124504,0.19874174892902
579,3665778757,0.629633,0.381669,-0.575241,0.356354,9.86434650421143,0.70161700248718,0.44109100103378,0.85586124658585,-0.52534848451614,0.16822423040867
580,3665795424,0.629642,0.381613,-0.575337,0.356243,9.87261104583740,0.71827769279480,0.44409334659576,0.12429842352867,-0.57780325412750,0.30230668187141
581,3665812091,0.629663,0.381549,-0.575432,0.356122,9.86423873901367,0.67822414636612,0.45108491182327,0.04028877615929,-0.54010134935379,0.25565314292908
582,3665828758,0.629667,0.381498,-0.575502,0.356055,9.86851882934570,0.64843434095383,0.45735043287277,0.38862147927284,-0.38783392310143,0.41500252485275
583,3665845425,0.629639,0.381424,-0.575578,0.356060,9.86961174011230,0.64739477634430,0.37462911009789,0.62439912557602,-0.29661425948143,0.91074919700623
584,3665862092,0.629613,0.381292,-0.575705,0.356043,9.84769248962402,0.73250919580460,0.46200865507126,0.16967131197453,-0.42461371421814,1.17390680313110
585,3665878759,0.629638,0.381064,-0.575917,0.355900,9.85683536529541,0.74432045221329,0.44317650794983,-1.08469140529633,-0.68915444612503,1.10707044601440
586,3665895426,0.629700,0.380786,-0.576163,0.355691,9.90710353851318,0.71245932579041,0.50499051809311,-1.80854463577271,-0.74186539649963,1.01667058467865
587,3665912093,0.629793,0.380618,-0.576281,0.355514,9.88474178314209,0.74368435144424,0.46850439906120,-0.90813034772873,-0.24348074197769,0.31132236123085
588,3665928760,0.629840,0.380630,-0.576331,0.355337,9.87879753112793,0.72374212741852,0.49391001462936,0.16461281478405,-0.57732945680618,-0.46732288599014
589,3665945427,0.629854,0.380643,-0.576386,0.355209,9.88928222656250,0.70105105638504,0.50683438777924,0.42880785465240,-0.59948444366455,-0.16800011694431
590,3665962094,0.629863,0.380613,-0.576454,0.355115,9.87949752807617,0.69946682453156,0.47842502593994,0.35722035169601,-0.48253685235977,0.19579629600048
591,3665978761,0.629882,0.380549,-0.576538,0.355015,9.87346172332764,0.69895541667938,0.47423011064529,0.15297183394432,-0.44150531291962,0.32572945952415
592,3665995428,0.629915,0.380520,-0.576583,0.354911,9.86234664916992,0.71990126371384,0.49701771140099,0.36295753717422,-0.31178978085518,0.03361666575074
593,3666012095,0.629934,0.380536,-0.576587,0.354855,9.86533355712891,0.69991737604141,0.50044029951096,0.83622896671295,-0.17724627256393,-0.01317133009434
594,3666028762,0.629944,0.380574,-0.576551,0.354855,9.85707664489746,0.67553716897964,0.48360815644264,1.25486862659454,0.04775488004088,0.05978004261851
595,3666045429,0.629930,0.380626,-0.576514,0.354884,9.89106369018555,0.67925631999969,0.50023317337036,1.51714253425598,0.00145992368925,0.18469315767288
596,3666062096,0.629905,0.380674,-0.576473,0.354944,9.87087821960449,0.70621585845947,0.42515477538109,1.66588842868805,0.07355967909098,0.35099643468857
597,3666078763,0.629871,0.380717,-0.576442,0.355009,9.85025787353516,0.70867860317230,0.41167742013931,1.67979621887207,0.01303686480969,0.44523841142654
598,3666095430,0.629830,0.380767,-0.576427,0.355051,9.88239574432373,0.68676400184631,0.45459964871407,1.56619107723236,-0.16217322647572,0.37531572580338
599,3666112097,0.629787,0.380809,-0.576419,0.355096,9.90542602539062,0.67452067136765,0.47674369812012,1.56305348873138,-0.16852517426014,0.44075617194176
600,3666128764,0.629759,0.380860,-0.576383,0.355150,9.91090869903564,0.69042998552322,0.46440765261650,1.65541291236877,0.01082136575133,0.33350297808647
601,3666145431,0.629741,0.380908,-0.576330,0.355216,9.89470100402832,0.70048618316650,0.45398765802383,1.72149372100830,0.16202594339848,0.33614107966423
602,3666162098,0.629727,0.380933,-0.576277,0.355300,9.88840389251709,0.68663156032562,0.49028712511063,1.63598573207855,0.28517180681229,0.48550152778625
603,3666178765,0.629715,0.380933,-0.576230,0.355397,9.88783550262451,0.71622085571289,0.48651066422462,1.54768574237823,0.35079154372215,0.65021681785583
604,3666195432,0.629746,0.380936,-0.576148,0.355472,9.87662315368652,0.70559722185135,0.43476897478104,1.52894997596741,0.62233734130859,0.35675925016403
605,3666212099,0.629781,0.380927,-0.576083,0.355524,9.87201309204102,0.70033490657806,0.47819378972054,1.32151281833649,0.52956813573837,0.33697348833084
606,3666228766,0.629813,0.380910,-0.576007,0.355609,9.88288211822510,0.72983175516129,0.48236110806465,1.39573848247528,0.66969531774521,0.48715358972549
607,3666245433,0.629863,0.380883,-0.575925,0.355684,9.87384414672852,0.71938610076904,0.48702162504196,1.31366252899170,0.76516669988632,0.42608007788658
608,3666262100,0.629922,0.380855,-0.575821,0.355777,9.91289997100830,0.72334313392639,0.48884788155556,1.39103865623474,0.94063925743103,0.42652833461761
609,3666278767,0.630007,0.380811,-0.575708,0.355857,9.89322566986084,0.70721054077148,0.44016006588936,1.24671101570129,1.09818303585052,0.34683439135551
610,3666295434,0.630089,0.380787,-0.575584,0.355936,9.86962985992432,0.67945998907089,0.43878221511841,1.35979115962982,1.07884538173676,0.24115636944771
611,3666312101,0.630130,0.380783,-0.575495,0.356013,9.88368225097656,0.69703370332718,0.46733322739601,1.43277442455292,0.70116049051285,0.34113556146622
612,3666328768,0.630172,0.380775,-0.575412,0.356082,9.87884140014648,0.72719848155975,0.48558375239372,1.39339482784271,0.67926156520844,0.34580984711647
613,3666345435,0.630223,0.380750,-0.575331,0.356148,9.90025901794434,0.70844572782516,0.50544750690460,1.25618767738342,0.73491805791855,0.37310022115707
614,3666362102,0.630328,0.380665,-0.575232,0.356213,9.88356399536133,0.73276925086975,0.50945323705673,0.92171138525009,1.17179381847382,0.43430170416832
615,3666378769,0.630322,0.380681,-0.575124,0.356382,9.88119506835938,0.68315547704697,0.39464518427849,2.08667969703674,0.79510784149170,0.72884780168533
616,3666395436,0.630244,0.380848,-0.575012,0.356522,9.82569694519043,0.73318338394165,0.52699339389801,2.81772971153259,0.08503415435553,0.17940415441990
617,3666412103,0.630324,0.380835,-0.574883,0.356602,9.94675064086914,0.58284819126129,0.62032955884933,1.38564717769623,1.06707632541656,0.18847106397152
618,3666428770,0.630482,0.380551,-0.574876,0.356636,9.76598358154297,0.71060204505920,0.38176494836807,-0.40495592355728,1.39343309402466,1.19629216194153
619,3666445437,0.630605,0.380320,-0.574912,0.356608,9.88401794433594,0.67410737276077,0.49723616242409,-0.51186335086823,0.76899570226669,0.90889221429825
620,3666462104,0.630640,0.380014,-0.575061,0.356632,9.86964225769043,0.70798730850220,0.46006196737289,-0.62522518634796,0.25187528133392,1.95086812973022
621,3666478771,0.630532,0.379954,-0.575083,0.356851,9.93859863281250,0.72324132919312,0.48663297295570,1.88720750808716,0.14544169604778,1.83913266658783
622,3666495438,0.630437,0.380136,-0.574920,0.357088,9.86981201171875,0.69590550661087,0.48749426007271,3.45045304298401,0.45864656567574,0.44083294272423
623,3666512105,0.630321,0.380360,-0.574798,0.357249,9.87569522857666,0.69040244817734,0.52376264333725,3.26518392562866,-0.11033311486244,0.11097984015942
624,3666528772,0.630265,0.380494,-0.574681,0.357395,9.90407752990723,0.67847084999084,0.55027920007706,2.60012435913086,0.28353258967400,0.26135197281837
625,3666545439,0.630251,0.380545,-0.574572,0.357540,9.87467288970947,0.64709597826004,0.51122164726257,2.13187313079834,0.61508905887604,0.50442934036255
626,3666562106,0.630245,0.380501,-0.574526,0.357671,9.84463977813721,0.68252402544022,0.48266154527664,1.50396490097046,0.57637536525726,0.96416443586349
627,3666578773,0.630197,0.380543,-0.574451,0.357832,9.83348655700684,0.69395840167999,0.49336323142052,2.18407201766968,0.40582042932510,0.78517013788223
628,3666595440,0.630095,0.380619,-0.574400,0.358014,9.80933189392090,0.69595873355865,0.47407650947571,2.46162343025208,0.05646319314837,0.93312180042267
629,3666612107,0.629973,0.380681,-0.574395,0.358170,9.84878635406494,0.69153726100922,0.48990869522095,2.29151701927185,-0.25984725356102,1.05009496212006
630,3666628774,0.629883,0.380719,-0.574407,0.358269,9.89231872558594,0.69820588827133,0.51241970062256,1.84991550445557,-0.28670212626457,0.86179047822952
631,3666645441,0.629816,0.380759,-0.574390,0.358371,9.91753673553467,0.70535784959793,0.51813650131226,1.86740899085999,-0.07190125435591,0.73582720756531
632,3666662108,0.629783,0.380790,-0.574343,0.358470,9.89063549041748,0.70180964469910,0.50943750143051,1.82751727104187,0.20874351263046,0.59776198863983
633,3666678775,0.629800,0.380782,-0.574277,0.358557,9.91238307952881,0.69879359006882,0.54785114526749,1.48866128921509,0.55023759603500,0.52001458406448
634,3666695442,0.629803,0.380826,-0.574158,0.358694,9.88485336303711,0.66506040096283,0.47080901265144,2.06553626060486,0.72700375318527,0.43236801028252
635,3666712109,0.629873,0.380796,-0.574048,0.358779,9.82600688934326,0.67872923612595,0.49162152409554,1.35644865036011,0.99974066019058,0.35430049896240
636,3666728776,0.629886,0.380719,-0.574099,0.358758,9.82991027832031,0.62462753057480,0.53308016061783,0.50878345966339,-0.08529669791460,0.64915382862091
637,3666745443,0.629874,0.380653,-0.574115,0.358823,9.93144416809082,0.66717082262039,0.52326267957687,1.03590559959412,0.17049093544483,0.94221436977386
638,3666762110,0.629879,0.380640,-0.574099,0.358851,9.82763862609863,0.73263943195343,0.47180840373039,1.15631103515625,0.14399459958076,0.45256364345551
639,3666778777,0.629860,0.380667,-0.574117,0.358829,9.91980648040771,0.69356179237366,0.55776900053024,1.14349186420441,-0.32579997181892,0.22726149857044
640,3666795444,0.629899,0.380625,-0.574110,0.358817,9.89552688598633,0.71641802787781,0.54380166530609,0.73407274484634,0.20421004295349,0.32713818550110
641,3666812111,0.629972,0.380525,-0.574093,0.358822,9.92406272888184,0.64848065376282,0.56514191627502,0.51253569126129,0.57135528326035,0.52109032869339
642,3666828778,0.630089,0.380436,-0.574011,0.358840,9.92284107208252,0.66352796554565,0.54992079734802,0.64145725965500,1.03529095649719,0.25789427757263
643,3666845445,0.630264,0.380292,-0.573911,0.358847,9.92072200775146,0.66568166017532,0.53359705209732,0.25736922025681,1.45231699943542,0.23385676741600
644,3666862112,0.630466,0.380100,-0.573822,0.358836,9.85591316223145,0.63621282577515,0.50160193443298,-0.10809198766947,1.57518076896667,0.31206509470940
645,3666878779,0.630619,0.379912,-0.573785,0.358827,9.84994602203369,0.65843719244003,0.50289368629456,-0.06145127117634,1.15395462512970,0.56093096733093
646,3666895446,0.630748,0.379765,-0.573734,0.358837,9.86967086791992,0.65179157257080,0.49461236596107,0.24843037128448,1.07135355472565,0.50122767686844
647,3666912113,0.630859,0.379662,-0.573657,0.358874,9.86576175689697,0.66357266902924,0.51999425888062,0.65354639291763,1.07411968708038,0.42345473170280
648,3666928780,0.630992,0.379589,-0.573552,0.358885,9.87619018554688,0.66400134563446,0.52294993400574,0.74684071540833,1.13916313648224,0.06633688509464
649,3666945447,0.631128,0.379473,-0.573493,0.358862,9.86057090759277,0.64000242948532,0.52846235036850,0.29952770471573,0.97042667865753,0.20377463102341
650,3666962114,0.631232,0.379353,-0.573463,0.358856,9.85936641693115,0.63177669048309,0.51071530580521,0.34299245476723,0.77343946695328,0.43905285000801
651,3666978781,0.631267,0.379269,-0.573461,0.358885,9.85058307647705,0.61745285987854,0.54164803028107,0.75081068277359,0.38402405381203,0.69751071929932
652,3666995448,0.631291,0.379206,-0.573450,0.358928,9.88803005218506,0.64481002092361,0.53550940752029,0.92687249183655,0.35910284519196,0.68246328830719
653,3667012115,0.631344,0.379122,-0.573440,0.358938,9.88959789276123,0.67088955640793,0.56698787212372,0.59416341781616,0.43136906623840,0.54368078708649
654,3667028782,0.631437,0.379036,-0.573385,0.358955,9.87944698333740,0.68546116352081,0.55662965774536,0.71327525377274,0.81977289915085,0.37443205714226
655,3667045449,0.631547,0.378956,-0.573319,0.358950,9.84644222259521,0.68460208177567,0.55716359615326,0.57673394680023,0.85283881425858,0.18298991024494
656,3667062116,0.631631,0.378888,-0.573259,0.358971,9.86338615417480,0.66534394025803,0.55991071462631,0.78424799442291,0.76822721958160,0.32426956295967
657,3667078783,0.631707,0.378822,-0.573199,0.359002,9.85459327697754,0.64344441890717,0.56416618824005,0.85956215858459,0.74909466505051,0.38306349515915
658,3667095450,0.631768,0.378779,-0.573117,0.359070,9.85238265991211,0.66038227081299,0.56341737508774,1.19556248188019,0.83227187395096,0.42996037006378
659,3667112117,0.631842,0.378748,-0.573044,0.359089,9.85395240783691,0.66858303546906,0.56002867221832,1.00806462764740,0.68771386146545,0.16717410087585
660,3667128784,0.631929,0.378675,-0.573009,0.359069,9.86633014678955,0.65324074029922,0.56077075004578,0.52917116880417,0.57152181863785,0.22297133505344
661,3667145451,0.632005,0.378576,-0.573003,0.359050,9.85544776916504,0.67078202962875,0.56923562288284,0.37258791923523,0.46645843982697,0.43279057741165
662,3667162118,0.632035,0.378515,-0.573009,0.359052,9.88476276397705,0.70274108648300,0.55753654241562,0.73842692375183,0.20168718695641,0.52025789022446
663,3667178785,0.632060,0.378495,-0.572982,0.359072,9.88492774963379,0.67862641811371,0.57017451524734,1.05362963676453,0.26405408978462,0.36865636706352
664,3667195452,0.632114,0.378457,-0.572927,0.359105,9.87652301788330,0.66105288267136,0.56792885065079,1.01845061779022,0.58391839265823,0.34887060523033
665,3667212119,0.632164,0.378420,-0.572876,0.359138,9.86882114410400,0.72371774911880,0.64234477281570,1.03960669040680,0.54676711559296,0.36088293790817
666,3667228786,0.632089,0.378614,-0.572730,0.359296,9.87496280670166,0.65407484769821,0.41432976722717,3.11907625198364,0.22216457128525,0.06115032359958
667,3667245453,0.632082,0.378720,-0.572743,0.359176,9.78989124298096,0.67876988649368,0.71482717990875,1.04786670207977,-0.70371538400650,-0.55616050958633
668,3667262120,0.632249,0.378583,-0.572732,0.359045,9.81582069396973,0.62476742267609,0.49663856625557,-0.46346819400787,0.65127968788147,-0.13809724152088
669,3667278787,0.632278,0.378285,-0.573053,0.358795,9.84279346466064,0.59974545240402,0.52807551622391,-2.06649017333984,-1.24501407146454,1.17991280555725
670,3667295454,0.632246,0.378135,-0.573254,0.358689,9.82021713256836,0.71868926286697,0.56425392627716,-0.42332026362419,-0.95903551578522,1.06419491767883
671,3667312121,0.632075,0.378134,-0.573445,0.358687,9.91430473327637,0.67493206262589,0.59155774116516,1.00673282146454,-1.55523526668549,1.24599385261536
672,3667328788,0.631905,0.378264,-0.573468,0.358814,9.94963073730469,0.67713385820389,0.54919528961182,2.52351665496826,-0.81053304672241,0.84506547451019
673,3667345455,0.631796,0.378472,-0.573401,0.358893,9.86909961700439,0.67262738943100,0.55239194631577,2.74067425727844,-0.49451076984406,-0.05001519992948
674,3667362122,0.631692,0.378609,-0.573429,0.358886,9.89321422576904,0.63593471050262,0.60512822866440,1.84273123741150,-0.93863493204117,0.09078420698643
675,3667378789,0.631670,0.378597,-0.573472,0.358867,9.87273406982422,0.66823422908783,0.56023931503296,0.93670761585236,-0.33797872066498,0.46055474877357
676,3667395456,0.631644,0.378555,-0.573550,0.358832,9.83892440795898,0.64656406641006,0.53601294755936,0.65138214826584,-0.47998833656311,0.61324483156204
677,3667412123,0.631588,0.378549,-0.573617,0.358831,9.83768177032471,0.65182387828827,0.53609746694565,1.03470182418823,-0.54249620437622,0.66715961694717
678,3667428790,0.631489,0.378590,-0.573646,0.358916,9.85062408447266,0.64906883239746,0.53518223762512,1.79475855827332,-0.44466844201088,0.86057382822037
679,3667445457,0.631415,0.378610,-0.573667,0.358991,9.85655021667480,0.65480864048004,0.54478180408478,1.59364795684814,-0.28968605399132,0.81443274021149
680,3667462124,0.631404,0.378568,-0.573708,0.358991,9.86708068847656,0.66120880842209,0.56255471706390,0.79257220029831,-0.16700120270252,0.62940645217896
681,3667478791,0.631431,0.378473,-0.573761,0.358958,9.90682697296143,0.67505562305450,0.55573546886444,0.33033978939056,-0.02814195305109,0.63084077835083
682,3667495458,0.631472,0.378372,-0.573794,0.358938,9.90844726562500,0.68580925464630,0.54871177673340,0.33246561884880,0.16344742476940,0.62943208217621
683,3667512125,0.631523,0.378270,-0.573801,0.358947,9.90599441528320,0.66755276918411,0.58039164543152,0.45700737833977,0.39303967356682,0.65495508909225
684,3667528792,0.631574,0.378246,-0.573753,0.358958,9.86068153381348,0.67011910676956,0.52041769027710,0.99842149019241,0.44972062110901,0.23071920871735
685,3667545459,0.631768,0.378060,-0.573742,0.358830,9.81393623352051,0.63778686523438,0.60814362764359,-0.71425497531891,0.88714700937271,-0.00201699999161
686,3667562126,0.631924,0.377758,-0.573833,0.358727,9.85886955261230,0.59246635437012,0.54199695587158,-1.28853011131287,0.64906430244446,0.92607843875885
687,3667578793,0.631986,0.377631,-0.573843,0.358736,9.80984115600586,0.64047956466675,0.44747552275658,0.36704275012016,0.48920252919197,0.74676382541656
688,3667595460,0.631980,0.377525,-0.573977,0.358645,9.79979801177979,0.61313307285309,0.56987130641937,-0.08304277807474,-0.63304984569550,0.71067553758621
689,3667612127,0.631966,0.377402,-0.574067,0.358655,9.83662509918213,0.63932383060455,0.54147034883499,0.36516028642654,-0.17162431776524,1.12644660472870
690,3667628794,0.631956,0.377285,-0.574178,0.358617,9.84770488739014,0.64313459396362,0.52277505397797,0.16864681243896,-0.37995797395706,0.93802672624588
691,3667645461,0.631984,0.377134,-0.574287,0.358551,9.86959457397461,0.62949556112289,0.55667680501938,-0.15082676708698,-0.20223145186901,0.85942125320435
692,3667662128,0.631996,0.377003,-0.574372,0.358533,9.86805057525635,0.64259350299835,0.54700446128845,0.16223083436489,-0.09870494157076,0.96046334505081
693,3667678795,0.631992,0.376905,-0.574431,0.358550,9.85578918457031,0.61899977922440,0.60663628578186,0.57186758518219,-0.03620995581150,0.95546901226044
694,3667695462,0.631939,0.376833,-0.574487,0.358628,9.87396717071533,0.59555006027222,0.53790020942688,1.07021391391754,-0.12447131425142,1.22888457775116
695,3667712129,0.631898,0.376740,-0.574563,0.358678,9.86902618408203,0.62741601467133,0.57471913099289,0.76435983181000,-0.18253532052040,1.21277427673340
696,3667728796,0.631853,0.376634,-0.574644,0.358736,9.87979125976562,0.62119132280350,0.57443910837173,0.75463980436325,-0.16807693243027,1.32244777679443
697,3667745463,0.631818,0.376533,-0.574710,0.358801,9.86690711975098,0.64108610153198,0.53331995010376,0.79249531030655,-0.05731482058764,1.26745724678040
698,3667762130,0.631778,0.376470,-0.574779,0.358826,9.89504051208496,0.65742862224579,0.57134503126144,0.81119263172150,-0.29196557402611,0.96347290277481
699,3667778797,0.631742,0.376440,-0.574813,0.358865,9.87493515014648,0.63371747732162,0.53377771377563,1.09914338588715,-0.16414539515972,0.79759228229523
700,3667795464,0.631673,0.376450,-0.574853,0.358912,9.88153553009033,0.61322993040085,0.53222602605820,1.30669593811035,-0.40110129117966,0.76333528757095
701,3667812131,0.631599,0.376467,-0.574903,0.358945,9.90370273590088,0.63142204284668,0.57007884979248,1.31227946281433,-0.51885569095612,0.71561890840530
702,3667828798,0.631563,0.376458,-0.574950,0.358942,9.87946605682373,0.63752120733261,0.57550024986267,0.99086570739746,-0.38150754570961,0.56536185741425
703,3667845465,0.631548,0.376432,-0.575001,0.358914,9.88036727905273,0.63344645500183,0.57269328832626,0.73791474103928,-0.34007900953293,0.48005884885788
704,3667862132,0.631545,0.376394,-0.575025,0.358921,9.88827610015869,0.62378501892090,0.56554788351059,0.84374630451202,-0.05979924649000,0.57660579681396
705,3667878799,0.631559,0.376374,-0.575007,0.358946,9.85751628875732,0.60782068967819,0.54689925909042,1.08920574188232,0.19783250987530,0.43527504801750
706,3667895466,0.631583,0.376361,-0.574987,0.358950,9.84723854064941,0.61890816688538,0.54180550575256,0.96960717439651,0.17439684271812,0.28719517588615
707,3667912133,0.631562,0.376345,-0.575026,0.358940,9.86033535003662,0.59359788894653,0.54226928949356,0.87609511613846,-0.29201677441597,0.50077950954437
708,3667928800,0.631510,0.376368,-0.575049,0.358971,9.87509250640869,0.64643460512161,0.53932142257690,1.34984040260315,-0.33512294292450,0.56363308429718
709,3667945467,0.631424,0.376471,-0.575039,0.359031,9.88212108612061,0.64763194322586,0.56592619419098,1.99808502197266,-0.44561612606049,0.36767029762268
710,3667962134,0.631379,0.376574,-0.575006,0.359055,9.91165351867676,0.61407071352005,0.56550228595734,1.80153310298920,-0.27138575911522,0.05310792848468
711,3667978801,0.631395,0.376606,-0.574953,0.359077,9.88064098358154,0.62524539232254,0.56231391429901,1.38230454921722,0.21822020411491,0.12481068819761
712,3667995468,0.631350,0.376683,-0.574892,0.359174,9.88489437103271,0.66863691806793,0.59658551216125,2.05435633659363,0.09959498792887,0.40004479885101
713,3668012135,0.631163,0.377017,-0.574739,0.359396,9.84528064727783,0.63108795881271,0.38431054353714,4.23459863662720,-0.37392619252205,0.03866237401962
714,3668028802,0.631206,0.377030,-0.574765,0.359266,9.89725017547607,0.58138066530228,0.69713532924652,0.45353683829308,-0.35821279883385,-0.32148417830467
715,3668045469,0.631357,0.376755,-0.574900,0.359074,9.79239463806152,0.61049658060074,0.45014539361000,-1.63079273700714,0.13336533308029,0.55707627534866
716,3668062136,0.631289,0.376663,-0.575100,0.358968,9.84681129455566,0.57599955797195,0.45544534921646,-0.09244263917208,-1.23018443584442,0.92181384563446
717,3668078803,0.631181,0.376619,-0.575319,0.358852,9.83804416656494,0.65747570991516,0.57026714086533,0.14742667973042,-1.62038099765778,0.83113205432892
718,3668095470,0.630966,0.376668,-0.575495,0.358899,9.94713687896729,0.60570693016052,0.56710219383240,1.56064581871033,-1.66845607757568,1.32854354381561
719,3668112137,0.630801,0.376838,-0.575486,0.359024,9.91949748992920,0.63375306129456,0.53893774747849,2.72416663169861,-0.75946140289307,0.57897508144379
720,3668128804,0.630644,0.377074,-0.575468,0.359081,9.89309978485107,0.62185662984848,0.54802870750427,2.75171327590942,-1.03043091297150,-0.01516912132502
721,3668145471,0.630550,0.377196,-0.575491,0.359081,9.92063331604004,0.60623252391815,0.55608588457108,1.75545597076416,-0.82324969768524,0.13558082282543
722,3668162138,0.630528,0.377198,-0.575518,0.359074,9.88966464996338,0.62418901920319,0.52774739265442,1.02768397331238,-0.27449768781662,0.41828095912933
723,3668178805,0.630517,0.377196,-0.575528,0.359079,9.85848808288574,0.61337846517563,0.51989942789078,1.04690635204315,-0.12680207192898,0.40990567207336
724,3668195472,0.630484,0.377210,-0.575543,0.359100,9.82641887664795,0.62739276885986,0.52039837837219,1.25922274589539,-0.22311864793301,0.48876717686653
725,3668212139,0.630409,0.377250,-0.575557,0.359165,9.83704662322998,0.62385070323944,0.50822436809540,1.66253304481506,-0.33372706174850,0.67805773019791
726,3668228806,0.630347,0.377282,-0.575570,0.359221,9.85523223876953,0.62906765937805,0.50589120388031,1.55268037319183,-0.28690707683563,0.63137871026993
727,3668245473,0.630323,0.377274,-0.575599,0.359226,9.87656593322754,0.61634385585785,0.52900809049606,1.00606679916382,-0.24095787107944,0.51457190513611
728,3668262140,0.630313,0.377246,-0.575654,0.359183,9.89321899414062,0.63237661123276,0.54894417524338,0.64623409509659,-0.37060940265656,0.42332673072815
729,3668278807,0.630289,0.377226,-0.575709,0.359159,9.91118621826172,0.64014184474945,0.53486841917038,0.81000161170959,-0.39699044823647,0.50396823883057
730,3668295474,0.630289,0.377218,-0.575724,0.359142,9.89641857147217,0.62487661838531,0.51419681310654,0.90868729352951,-0.13773868978024,0.32613930106163
731,3668312141,0.630271,0.377289,-0.575697,0.359143,9.90123462677002,0.62731277942657,0.45210170745850,1.49078714847565,-0.17924408614635,0.03056875802577
732,3668328808,0.630379,0.377244,-0.575674,0.359037,9.85559463500977,0.64195781946182,0.58820742368698,0.22537893056870,0.31347379088402,-0.27315303683281
733,3668345475,0.630433,0.377186,-0.575695,0.358970,9.87516403198242,0.56065273284912,0.46533250808716,0.34949809312820,0.03825256973505,0.18809966742992
734,3668362142,0.630399,0.377227,-0.575721,0.358945,9.86403465270996,0.59741222858429,0.56636488437653,1.14308190345764,-0.46459513902664,0.20747566223145
735,3668378809,0.630348,0.377323,-0.575693,0.358980,9.82758617401123,0.61627048254013,0.49772104620934,1.80830776691437,-0.27666193246841,0.15403476357460
736,3668395476,0.630278,0.377363,-0.575762,0.358948,9.86733818054199,0.66230344772339,0.57280105352402,1.13648676872253,-0.80380982160568,0.39073455333710
737,3668412143,0.630269,0.377347,-0.575806,0.358912,9.89072990417480,0.66926598548889,0.57313317060471,0.73817080259323,-0.33260008692741,0.37206283211708
738,3668428810,0.630320,0.377277,-0.575842,0.358838,9.88529109954834,0.62046122550964,0.55755573511124,0.24425549805164,-0.02296818606555,0.25616538524628
739,3668445477,0.630376,0.377217,-0.575854,0.358782,9.89072036743164,0.64240485429764,0.54927325248718,0.38959473371506,0.12373495101929,0.21435266733170
740,3668462144,0.630449,0.377192,-0.575815,0.358742,9.87276744842529,0.61404192447662,0.54835772514343,0.67744308710098,0.36222758889198,-0.02518368512392
741,3668478811,0.630491,0.377168,-0.575800,0.358719,9.85197067260742,0.59467905759811,0.55552059412003,0.80398261547089,0.17812350392342,0.18051829934120
742,3668495478,0.630510,0.377106,-0.575830,0.358701,9.86798286437988,0.61632716655731,0.55649363994598,0.58754253387451,0.00554514955729,0.53000360727310
743,3668512145,0.630527,0.377052,-0.575852,0.358694,9.87533473968506,0.63180428743362,0.52239954471588,0.69365584850311,0.03685666993260,0.52826189994812
744,3668528812,0.630565,0.376977,-0.575890,0.358645,9.86530017852783,0.64205080270767,0.52015578746796,0.36869481205940,-0.00558997225016,0.42276325821877
745,3668545479,0.630593,0.376910,-0.575931,0.358600,9.87342929840088,0.60745102167130,0.49264043569565,0.36717084050179,-0.07402709126472,0.43038296699524
746,3668562146,0.630580,0.376910,-0.575946,0.358600,9.85828971862793,0.61389303207397,0.45167693495750,1.04425549507141,-0.16990825533867,0.40323349833488
747,3668578813,0.630521,0.376968,-0.575966,0.358610,9.88452053070068,0.61505591869354,0.49555781483650,1.43863964080811,-0.48891440033913,0.34089222550392
748,3668595480,0.630476,0.377021,-0.575990,0.358595,9.86896896362305,0.62018722295761,0.52842849493027,1.29780828952789,-0.50125974416733,0.22995083034039
749,3668612147,0.630446,0.377038,-0.576034,0.358560,9.88420200347900,0.62894177436829,0.53849542140961,0.94138193130493,-0.49460041522980,0.29572421312332
750,3668628814,0.630445,0.377036,-0.576062,0.358518,9.89617919921875,0.63448554277420,0.51857650279999,0.80991202592850,-0.28055512905121,0.23532950878143
751,3668645481,0.630442,0.377056,-0.576079,0.358476,9.88565731048584,0.63046479225159,0.50971370935440,0.97355157136917,-0.28853344917297,0.12174996733665
752,3668662148,0.630425,0.377089,-0.576092,0.358449,9.87622928619385,0.63048285245895,0.53231006860733,1.12791931629181,-0.31967851519585,0.15897803008556
753,3668678815,0.630402,0.377117,-0.576103,0.358443,9.89049053192139,0.64326065778732,0.52960252761841,1.19547259807587,-0.27839082479477,0.27862775325775
754,3668695482,0.630377,0.377149,-0.576111,0.358439,9.87275791168213,0.63058841228485,0.51046216487885,1.19900739192963,-0.27484348416328,0.26396447420120
755,3668712149,0.630375,0.377189,-0.576079,0.358452,9.88647079467773,0.62320268154144,0.51922649145126,1.37728440761566,0.01272951066494,0.15170401334763
756,3668728816,0.630400,0.377217,-0.576039,0.358443,9.86994934082031,0.63423812389374,0.49339848756790,1.19576740264893,0.13049671053886,0.02300020679832
757,3668745483,0.630434,0.377239,-0.576009,0.358408,9.87288856506348,0.61319249868393,0.48834025859833,1.02495610713959,0.07226622849703,-0.07402710616589
758,3668762150,0.630445,0.377241,-0.576005,0.358393,9.86454486846924,0.62297993898392,0.51466590166092,0.92221075296402,-0.03895051032305,0.21620959043503
759,3668778817,0.630431,0.377235,-0.576036,0.358374,9.89533519744873,0.63386440277100,0.52712464332581,0.89787888526917,-0.27376773953438,0.38600900769234
760,3668795484,0.630432,0.377247,-0.576026,0.358377,9.89691734313965,0.62912291288376,0.52996635437012,1.11506164073944,-0.03037025965750,0.26351627707481
761,3668812151,0.630433,0.377311,-0.575991,0.358363,9.87272357940674,0.60679519176483,0.52266341447830,1.33932650089264,-0.08630839735270,-0.07811233401299
762,3668828818,0.630441,0.377371,-0.575955,0.358344,9.87443351745605,0.61907505989075,0.53664493560791,1.29547762870789,-0.05995292589068,-0.10117656737566
763,3668845485,0.630300,0.377575,-0.575890,0.358481,9.88721275329590,0.61289840936661,0.41081607341766,3.00479245185852,-0.47860532999039,0.29165184497833
764,3668862152,0.630206,0.377776,-0.575888,0.358438,9.84743785858154,0.68794161081314,0.70262688398361,1.98298645019531,-1.02378439903259,-0.42380696535110
765,3668878819,0.630354,0.377702,-0.575840,0.358334,9.94962692260742,0.57220029830933,0.53356295824051,0.08853029459715,0.66245961189270,-0.31246849894524
766,3668895486,0.630548,0.377399,-0.575966,0.358108,9.78133010864258,0.59871041774750,0.36630392074585,-1.96703600883484,0.32959699630737,0.39648455381393
767,3668912153,0.630566,0.377317,-0.576067,0.358000,9.81334877014160,0.61671692132950,0.42763930559158,-0.03350781276822,-0.49846795201302,0.40154308080673
768,3668928820,0.630434,0.377270,-0.576284,0.357933,9.87051200866699,0.60953825712204,0.51039266586304,0.37609690427780,-1.56888663768768,1.11580431461334
769,3668945487,0.630246,0.377386,-0.576378,0.357991,9.91702175140381,0.62468039989471,0.52717405557632,2.02586197853088,-1.34198379516602,0.82157850265503
770,3668962154,0.630078,0.377552,-0.576436,0.358018,9.88794898986816,0.62712728977203,0.53712379932404,2.24025297164917,-1.30000448226929,0.36069083213806
771,3668978821,0.629955,0.377665,-0.576504,0.358006,9.91496562957764,0.63427340984344,0.55093055963516,1.64270901679993,-1.14212775230408,0.31004172563553
772,3668995488,0.629913,0.377700,-0.576529,0.358003,9.91815090179443,0.62762618064880,0.54885590076447,1.17333054542542,-0.43064555525780,0.34447801113129
773,3669012155,0.629893,0.377726,-0.576519,0.358025,9.89104080200195,0.61526173353195,0.48019182682037,1.33462667465210,-0.08847267180681,0.34392735362053
