sep=,
DeviceTag:,D
FirmwareVersion:,3.0.0
AppVersion:,2023.6.0
StartTime: ,2024-03-14_11:56:34_000 EDT
© Movella Technologies B. V. 2005-2024

PacketCounter,SampleTimeFine,Quat_W,Quat_X,Quat_Y,Quat_Z,Acc_X,Acc_Y,Acc_Z,Gyr_X,Gyr_Y,Gyr_Z
0,3656111897,0.000201,-0.696436,-0.058957,-0.715193,0.00000000000000,0.00000000000000,0.00000000000000,0.00000000000000,0.00000000000000,0.00000000000000
1,3656128564,0.000107,-0.696527,-0.059006,-0.715100,9.81796073913574,0.79347962141037,0.21135923266411,0.73277926445007,-0.30276128649712,-0.73825401067734
2,3656145231,0.000035,-0.696627,-0.059048,-0.714999,9.81246566772461,0.78382569551468,0.18069735169411,0.79935956001282,-0.38427373766899,-0.59726893901825
3,3656161898,-0.000005,-0.696712,-0.059116,-0.714911,9.79348850250244,0.80553746223450,0.19115141034126,1.06981694698334,-0.23035421967506,-0.56229484081268
4,3656178565,-0.000032,-0.696785,-0.059205,-0.714832,9.83040523529053,0.83601415157318,0.19815433025360,1.22996032238007,-0.12462499737740,-0.61017775535583
5,3656195232,-0.000043,-0.696859,-0.059325,-0.714750,9.81186676025391,0.82758319377899,0.21183529496193,1.45548009872437,-0.13967244327068,-0.67999798059464
6,3656211899,-0.000049,-0.696917,-0.059462,-0.714683,9.78604984283447,0.79187709093094,0.21973907947540,1.57018661499023,0.01620003394783,-0.73909932374954
7,3656228566,-0.000009,-0.696942,-0.059651,-0.714642,9.82365798950195,0.80739104747772,0.17587594687939,2.03234219551086,0.32339876890182,-0.78308916091919
8,3656245233,0.000043,-0.696958,-0.059829,-0.714612,9.81359672546387,0.86312198638916,0.18062981963158,2.02494025230408,0.42395424842834,-0.66990661621094
9,3656261900,0.000112,-0.696956,-0.059927,-0.714605,9.81913852691650,0.87539798021317,0.19005477428436,1.71128678321838,0.62564134597778,-0.20845533907413
10,3656278567,0.000180,-0.696938,-0.059987,-0.714619,9.81442451477051,0.86792391538620,0.17560638487339,1.50688481330872,0.80665922164917,-0.04335590079427
11,3656295234,0.000231,-0.696937,-0.059989,-0.714619,9.80933761596680,0.84757608175278,0.20375588536263,1.14127624034882,0.65270125865936,0.16369076073170
12,3656311901,0.000264,-0.696943,-0.059965,-0.714616,9.79615974426270,0.83848637342453,0.18504321575165,0.93276327848434,0.59069281816483,0.19798615574837
13,3656328568,0.000274,-0.696928,-0.059926,-0.714633,9.76630020141602,0.81056064367294,0.18470503389835,0.74445873498917,0.78221172094345,0.14843839406967
14,3656345235,0.000269,-0.696902,-0.059902,-0.714661,9.76793479919434,0.80097752809525,0.18999539315701,0.73745363950729,0.88736462593079,0.00477676792070
15,3656361902,0.000241,-0.696857,-0.059873,-0.714707,9.76260662078857,0.79011410474777,0.17062659561634,0.59484213590622,1.05387306213379,-0.09851285070181
16,3656378569,0.000227,-0.696813,-0.059877,-0.714749,9.79106330871582,0.80526912212372,0.21148970723152,0.83146500587463,1.03238379955292,-0.18336772918701
17,3656395236,0.000249,-0.696757,-0.059892,-0.714802,9.83240318298340,0.81857955455780,0.19135174155235,1.04325640201569,1.16337990760803,-0.06434550136328
18,3656411903,0.000287,-0.696699,-0.059897,-0.714859,9.82266902923584,0.83704823255539,0.18623252213001,1.07177627086639,1.20058238506317,0.05848659574986
19,3656428570,0.000310,-0.696664,-0.059855,-0.714897,9.81744289398193,0.82422238588333,0.20964629948139,0.78209656476974,0.98383510112762,0.21704202890396
20,3656445237,0.000316,-0.696626,-0.059793,-0.714939,9.81430053710938,0.81625533103943,0.18872734904289,0.59931159019470,1.01497995853424,0.23207664489746
21,3656461904,0.000279,-0.696582,-0.059711,-0.714989,9.80405616760254,0.80289936065674,0.19998614490032,0.28669574856758,1.06383633613586,0.11415580660105
22,3656478571,0.000260,-0.696533,-0.059622,-0.715044,9.79342460632324,0.79268276691437,0.19680026173592,0.33865112066269,1.11874985694885,0.23041184246540
23,3656495238,0.000285,-0.696502,-0.059579,-0.715077,9.77922153472900,0.79346191883087,0.20194433629513,0.79213684797287,0.94705528020859,0.23798041045666
24,3656511905,0.000384,-0.696489,-0.059619,-0.715087,9.76900959014893,0.77424818277359,0.19417501986027,1.55803334712982,0.77555251121521,0.21560768783092
25,3656528572,0.000534,-0.696480,-0.059717,-0.715087,9.79241275787354,0.76735329627991,0.16565224528313,2.09228873252869,0.73180609941483,0.18115863204002
26,3656545239,0.000676,-0.696481,-0.059816,-0.715078,9.77630710601807,0.81484889984131,0.23372384905815,2.06122040748596,0.63400405645370,0.14700409770012
27,3656561906,0.000765,-0.696474,-0.059856,-0.715081,9.77336692810059,0.81995803117752,0.23296648263931,1.51003515720367,0.70323508977890,0.16494579613209
28,3656578573,0.000791,-0.696480,-0.059855,-0.715075,9.75900650024414,0.80902481079102,0.22307951748371,1.01583802700043,0.57830911874771,0.05199377983809
29,3656595240,0.000771,-0.696498,-0.059840,-0.715059,9.76846027374268,0.77920210361481,0.21217048168182,0.72921913862228,0.45120608806610,-0.09732184559107
30,3656611907,0.000753,-0.696518,-0.059803,-0.715043,9.76064586639404,0.77153778076172,0.19241428375244,0.62706285715103,0.44083294272423,0.01689157448709
31,3656628574,0.000750,-0.696568,-0.059810,-0.714994,9.76559638977051,0.76921498775482,0.20810176432133,0.93482506275177,0.14258590340614,-0.10363538563251
32,3656645241,0.000769,-0.696638,-0.059857,-0.714921,9.77376556396484,0.74763375520706,0.20391692221165,1.24006438255310,-0.06416621059179,-0.18454590439796
33,3656661908,0.000771,-0.696717,-0.059932,-0.714838,9.76677513122559,0.77349841594696,0.22049127519131,1.30647814273834,-0.15971440076828,-0.39643973112106
34,3656678575,0.000733,-0.696790,-0.060023,-0.714759,9.79933166503906,0.79234039783478,0.22206890583038,1.19014525413513,-0.13106659054756,-0.66990649700165
35,3656695242,0.000641,-0.696861,-0.060088,-0.714684,9.79058170318604,0.80680400133133,0.21764066815376,0.80982232093811,-0.11863162368536,-0.81391400098801
36,3656711909,0.000504,-0.696919,-0.060135,-0.714624,9.79472255706787,0.83329898118973,0.20447975397110,0.49523434042931,-0.00953432731330,-0.95200490951538
37,3656728576,0.000358,-0.696976,-0.060172,-0.714566,9.77779293060303,0.80858021974564,0.20631580054760,0.39530640840530,0.00851622223854,-0.94779151678085
38,3656745243,0.000257,-0.697026,-0.060190,-0.714515,9.78933811187744,0.81683075428009,0.20520277321339,0.51128077507019,0.08651969581842,-0.64644527435303
39,3656761910,0.000189,-0.697084,-0.060205,-0.714457,9.81605625152588,0.84086287021637,0.20224480330944,0.65900188684464,0.03597303479910,-0.45952382683754
40,3656778577,0.000155,-0.697154,-0.060239,-0.714386,9.83160686492920,0.83231204748154,0.15330889821053,0.91278529167175,-0.07447532564402,-0.38011166453362
41,3656795244,0.000147,-0.697234,-0.060283,-0.714304,9.82713890075684,0.82453483343124,0.17152372002602,1.11065626144409,-0.16706524789333,-0.29772841930389
42,3656811911,0.000136,-0.697316,-0.060310,-0.714222,9.80531692504883,0.82328331470490,0.21194688975811,1.00642538070679,-0.17095835506916,-0.22808746993542
43,3656828578,0.000102,-0.697387,-0.060327,-0.714152,9.78460121154785,0.81877952814102,0.21213294565678,0.82918548583984,-0.08035343140364,-0.29913711547852
44,3656845245,0.000035,-0.697456,-0.060317,-0.714085,9.80074977874756,0.78999847173691,0.17183318734169,0.55297815799713,-0.06626645475626,-0.33365023136139
45,3656861912,0.000028,-0.697495,-0.060403,-0.714039,9.78644847869873,0.77089512348175,0.13211704790592,1.30103552341461,0.21029308438301,-0.50549870729446
46,3656878579,0.000068,-0.697534,-0.060520,-0.713991,9.72498607635498,0.81869888305664,0.17304371297359,1.68450891971588,0.21756708621979,-0.43119621276855
47,3656895246,0.000179,-0.697594,-0.060664,-0.713921,9.74059009552002,0.82307612895966,0.16174180805683,2.16413235664368,0.03936671838164,-0.19931162893772
48,3656911913,0.000304,-0.697630,-0.060850,-0.713870,9.79384708404541,0.86797213554382,0.17149335145950,2.42294859886169,0.25501284003258,-0.34734025597572
49,3656928580,0.000361,-0.697662,-0.060979,-0.713827,9.85035896301270,0.85760259628296,0.18799178302288,1.81513345241547,0.28404480218887,-0.39930832386017
50,3656945247,0.000342,-0.697691,-0.060973,-0.713799,9.81955337524414,0.84850287437439,0.18431942164898,0.78718072175980,0.33988052606583,-0.12862057983875
51,3656961914,0.000219,-0.697677,-0.060827,-0.713826,9.77618503570557,0.84186697006226,0.18766583502293,-0.42095109820366,0.77039158344269,0.00755574600771
52,3656978581,0.000056,-0.697649,-0.060644,-0.713869,9.79123210906982,0.83880603313446,0.18107497692108,-0.81190335750580,0.89906984567642,-0.01237733662128
53,3656995248,-0.000110,-0.697632,-0.060419,-0.713904,9.77279853820801,0.79484003782272,0.18198628723621,-1.02314424514771,0.80608284473419,0.17937855422497
54,3657011915,-0.000270,-0.697634,-0.060261,-0.713915,9.75965690612793,0.76196986436844,0.15787573158741,-0.65599888563156,0.60223144292831,-0.10768220573664
55,3657028582,-0.000351,-0.697674,-0.060281,-0.713874,9.76881027221680,0.74290740489960,0.15338592231274,0.61131107807159,0.19597557187080,-0.55788940191269
56,3657045249,-0.000347,-0.697732,-0.060423,-0.713806,9.77651023864746,0.77541971206665,0.14781056344509,1.63031244277954,0.01495781634003,-0.71899330615997
57,3657061916,-0.000286,-0.697764,-0.060607,-0.713759,9.79135799407959,0.83671706914902,0.17302876710892,2.10568428039551,0.27131533622742,-0.64332056045532
58,3657078583,-0.000252,-0.697768,-0.060739,-0.713744,9.81235980987549,0.88786852359772,0.15275388956070,1.71470606327057,0.54774034023285,-0.54854077100754
59,3657095250,-0.000274,-0.697766,-0.060759,-0.713744,9.83466148376465,0.89977258443832,0.17143130302429,0.88765931129456,0.62191474437714,-0.28466594219208
60,3657111917,-0.000314,-0.697768,-0.060689,-0.713749,9.85565185546875,0.89404797554016,0.15170271694660,0.35027927160263,0.62073653936386,0.06503064185381
61,3657128584,-0.000340,-0.697753,-0.060567,-0.713773,9.85188102722168,0.86314857006073,0.15846705436707,0.15964396297932,0.80185675621033,0.36749103665352
62,3657145251,-0.000342,-0.697738,-0.060423,-0.713800,9.86104488372803,0.85248559713364,0.16640003025532,0.16851875185966,0.82704693078995,0.59646850824356
63,3657161918,-0.000331,-0.697707,-0.060285,-0.713843,9.81741523742676,0.83658945560455,0.17428933084011,0.25146546959877,0.98393744230270,0.62779283523560
64,3657178585,-0.000302,-0.697648,-0.060180,-0.713909,9.77933692932129,0.83975929021835,0.17808285355568,0.48315799236298,1.24228000640869,0.53841733932495
65,3657195252,-0.000256,-0.697572,-0.060067,-0.713993,9.78931045532227,0.83597004413605,0.19211129844189,0.51943832635880,1.41640782356262,0.66102534532547
66,3657211919,-0.000188,-0.697483,-0.059965,-0.714088,9.75328826904297,0.82149773836136,0.18655671179295,0.68002992868423,1.54449689388275,0.70451563596725
67,3657228586,-0.000142,-0.697360,-0.059855,-0.714217,9.79837989807129,0.80998152494431,0.18991686403751,0.49228882789612,1.86501407623291,0.61905884742737
68,3657245253,-0.000096,-0.697208,-0.059767,-0.714373,9.86463546752930,0.82541817426682,0.15342743694782,0.62711411714554,2.13303828239441,0.50848895311356
69,3657261920,-0.000039,-0.697073,-0.059660,-0.714514,9.86497402191162,0.82006782293320,0.18268130719662,0.57280248403549,1.99284732341766,0.66082048416138
70,3657278587,0.000030,-0.696953,-0.059493,-0.714645,9.82808876037598,0.80654954910278,0.15677087008953,0.34504151344299,1.86139023303986,1.01135599613190
71,3657295254,0.000113,-0.696841,-0.059345,-0.714766,9.77921962738037,0.78950703144073,0.16739785671234,0.51955366134644,1.79196691513062,0.98861181735992
72,3657311921,0.000201,-0.696757,-0.059235,-0.714858,9.79022121429443,0.77312105894089,0.18752229213715,0.74129551649094,1.51474797725677,0.85005986690521
73,3657328588,0.000295,-0.696652,-0.059177,-0.714965,9.78799629211426,0.73750501871109,0.17364102602005,1.03238379955292,1.69109129905701,0.61563962697983
74,3657345255,0.000415,-0.696540,-0.059168,-0.715074,9.78166007995605,0.72046786546707,0.17523606121540,1.33645796775818,1.74522376060486,0.50617104768753
75,3657361922,0.000543,-0.696435,-0.059204,-0.715173,9.74802017211914,0.74442565441132,0.18252612650394,1.66880834102631,1.66737401485443,0.33410486578941
76,3657378589,0.000675,-0.696372,-0.059258,-0.715230,9.75984096527100,0.76529872417450,0.19605901837349,1.82504582405090,1.26371788978577,0.28896248340607
77,3657395256,0.000846,-0.696329,-0.059347,-0.715265,9.78879356384277,0.78194731473923,0.16215974092484,2.13910865783691,1.07569491863251,0.31419101357460
78,3657411923,0.001075,-0.696305,-0.059473,-0.715277,9.78529357910156,0.81484466791153,0.17460151016712,2.48302316665649,0.87801605463028,0.43395593762398
79,3657428590,0.001296,-0.696333,-0.059568,-0.715241,9.78537845611572,0.80600923299789,0.18167750537395,2.40888738632202,0.40228590369225,0.56277501583099
80,3657445257,0.001536,-0.696385,-0.059646,-0.715184,9.81562328338623,0.78517186641693,0.17682521045208,2.44730639457703,0.19571943581104,0.74846714735031
81,3657461924,0.001802,-0.696446,-0.059715,-0.715118,9.80589580535889,0.77254402637482,0.21786591410637,2.53487610816956,0.11138963699341,0.92557901144028
82,3657478591,0.002090,-0.696521,-0.059801,-0.715037,9.80589866638184,0.77130818367004,0.21590782701969,2.68155980110168,-0.01865244843066,0.95678806304932
83,3657495258,0.002421,-0.696611,-0.059921,-0.714938,9.79393196105957,0.77955192327499,0.20552857220173,3.08547234535217,-0.15877953171730,1.01163768768311
84,3657511925,0.002796,-0.696706,-0.060057,-0.714833,9.75915908813477,0.81364750862122,0.21097700297832,3.39675641059875,-0.19436839222908,1.15372419357300
85,3657528592,0.003175,-0.696798,-0.060188,-0.714731,9.73854541778564,0.81423181295395,0.18977144360542,3.39642333984375,-0.16035471856594,1.19648456573486
86,3657545259,0.003514,-0.696884,-0.060284,-0.714637,9.72433471679688,0.83477282524109,0.25898885726929,3.01846909523010,-0.10847617685795,1.16277801990509
87,3657561926,0.003771,-0.696945,-0.060296,-0.714576,9.74131393432617,0.81929367780685,0.24064929783344,2.14164447784424,0.12936973571777,1.14997172355652
88,3657578593,0.003950,-0.696975,-0.060215,-0.714552,9.74613094329834,0.79069459438324,0.24770602583885,1.37535071372986,0.43553113937378,1.20105624198914
89,3657595260,0.004085,-0.696985,-0.060115,-0.714550,9.75066471099854,0.74889057874680,0.21156781911850,0.98160660266876,0.62146645784378,1.07309520244598
90,3657611927,0.004199,-0.696998,-0.060016,-0.714545,9.77013111114502,0.73084712028503,0.20117628574371,0.94149732589722,0.58546799421310,0.95589160919189
91,3657628594,0.004335,-0.697015,-0.059955,-0.714532,9.78674602508545,0.72914367914200,0.20663009583950,1.25264036655426,0.53469067811966,0.88818448781967
92,3657645261,0.004470,-0.697034,-0.059925,-0.714516,9.80323791503906,0.72412520647049,0.19728676974773,1.41412830352783,0.51631361246109,0.73932337760925
93,3657661928,0.004575,-0.697071,-0.059905,-0.714480,9.77949523925781,0.72185140848160,0.21476921439171,1.32263982295990,0.31234684586525,0.54753547906876
94,3657678595,0.004639,-0.697119,-0.059875,-0.714435,9.79338359832764,0.72183907032013,0.22314165532589,1.04050302505493,0.19587311148643,0.40092840790749
95,3657695262,0.004660,-0.697163,-0.059830,-0.714396,9.79876041412354,0.72916799783707,0.18168880045414,0.77976578474045,0.23030939698219,0.25771498680115
96,3657711929,0.004607,-0.697216,-0.059745,-0.714353,9.78552913665771,0.72470039129257,0.19902655482292,0.43966764211655,0.15872190892696,0.09643181413412
97,3657728596,0.004571,-0.697268,-0.059706,-0.714305,9.78672790527344,0.70740938186646,0.17694014310837,0.41753822565079,0.11414298415184,-0.05290943011642
98,3657745263,0.004499,-0.697333,-0.059685,-0.714243,9.79464912414551,0.70797461271286,0.17420063912868,0.42897427082062,-0.02823160029948,-0.30247959494591
99,3657761930,0.004427,-0.697401,-0.059702,-0.714176,9.78602981567383,0.69923794269562,0.15137727558613,0.67095023393631,-0.06168177723885,-0.48536702990532
100,3657778597,0.004383,-0.697481,-0.059767,-0.714093,9.74200534820557,0.73299694061279,0.15557700395584,1.04708576202393,-0.18152360618114,-0.57334667444229
101,3657795264,0.004314,-0.697556,-0.059854,-0.714013,9.75055313110352,0.74591392278671,0.17104281485081,1.00634860992432,-0.16668103635311,-0.79995495080948
102,3657811931,0.004299,-0.697650,-0.059962,-0.713912,9.80594635009766,0.74636089801788,0.14011244475842,1.04086160659790,-0.35607415437698,-0.63202536106110
103,3657828598,0.004280,-0.697749,-0.060048,-0.713809,9.81260871887207,0.74237149953842,0.13515207171440,1.27766382694244,-0.36555081605911,-0.54458355903625
104,3657845265,0.004277,-0.697850,-0.060112,-0.713704,9.79096794128418,0.78794074058533,0.16675691306591,1.10349750518799,-0.39387845993042,-0.35729077458382
105,3657861932,0.004234,-0.697979,-0.060091,-0.713580,9.79474735260010,0.76435399055481,0.17809018492699,0.58142101764679,-0.62594228982925,-0.13088728487492
106,3657878599,0.004156,-0.698090,-0.060069,-0.713473,9.81977558135986,0.79829502105713,0.18137431144714,0.47215732932091,-0.46074044704437,-0.31031706929207
107,3657895266,0.003962,-0.698186,-0.059984,-0.713389,9.85896682739258,0.78037494421005,0.17227663099766,-0.31076526641846,-0.31768068671227,-0.57901984453201
108,3657911933,0.003751,-0.698274,-0.059876,-0.713312,9.86019706726074,0.73655921220779,0.19611562788486,-0.55776131153107,-0.25898918509483,-0.55366337299347
109,3657928600,0.003543,-0.698318,-0.059769,-0.713279,9.82944869995117,0.72349822521210,0.17343820631504,-0.60427403450012,0.16778880357742,-0.57294970750809
110,3657945267,0.003399,-0.698343,-0.059756,-0.713256,9.81230735778809,0.74512779712677,0.18163181841373,0.16114230453968,0.33632034063339,-0.71011847257614
111,3657961934,0.003304,-0.698361,-0.059775,-0.713238,9.80484867095947,0.79390996694565,0.16440275311470,0.53990286588669,0.41050750017166,-0.62494343519211
112,3657978601,0.003204,-0.698361,-0.059786,-0.713237,9.81824684143066,0.79970973730087,0.13304366171360,0.43474996089935,0.57368600368500,-0.62448233366013
113,3657995268,0.003098,-0.698363,-0.059812,-0.713234,9.79022121429443,0.76323240995407,0.12635894119740,0.49788525700569,0.55730670690536,-0.72216922044754
114,3658011935,0.002965,-0.698371,-0.059876,-0.713221,9.78971862792969,0.74826937913895,0.15984247624874,0.54679274559021,0.46401247382164,-1.04162371158600
115,3658028602,0.002837,-0.698364,-0.059913,-0.713225,9.78567314147949,0.76396805047989,0.13730891048908,0.45497116446495,0.61816251277924,-0.88473302125931
116,3658045269,0.002681,-0.698343,-0.059881,-0.713249,9.76963520050049,0.76933604478836,0.13381783664227,0.00896444451064,0.78111040592194,-0.70023190975189
117,3658061936,0.002501,-0.698326,-0.059838,-0.713270,9.79563045501709,0.77143907546997,0.13113680481911,-0.20854498445988,0.73423922061920,-0.76188170909882
118,3658078603,0.002364,-0.698356,-0.059818,-0.713243,9.80578899383545,0.76610583066940,0.09707614779472,0.13577291369438,0.29416185617447,-0.64520311355591
119,3658095270,0.002303,-0.698418,-0.059847,-0.713180,9.80359554290771,0.76011157035828,0.08928931504488,0.79561996459961,-0.00420688604936,-0.48982360959053
120,3658111937,0.002296,-0.698487,-0.059933,-0.713105,9.80572795867920,0.76971536874771,0.09953074902296,1.29947304725647,-0.08310680836439,-0.49602189660072
121,3658128604,0.002330,-0.698547,-0.060042,-0.713037,9.78076362609863,0.79170918464661,0.11500062048435,1.58719325065613,0.01607196964324,-0.41164088249207
122,3658145271,0.002334,-0.698624,-0.060090,-0.712957,9.80388069152832,0.81015777587891,0.15430088341236,1.17033386230469,-0.14065854251385,-0.25901478528976
123,3658161938,0.002320,-0.698726,-0.060073,-0.712859,9.81397438049316,0.80312675237656,0.16242775321007,0.72960335016251,-0.36091494560242,-0.02030446752906
124,3658178605,0.002281,-0.698815,-0.060034,-0.712775,9.78251075744629,0.78223049640656,0.14450013637543,0.53901922702789,-0.22550059854984,-0.04728744551539
125,3658195272,0.002235,-0.698857,-0.060024,-0.712735,9.79202365875244,0.77991718053818,0.12457360327244,0.61697155237198,0.20517054200172,-0.23483644425869
126,3658211939,0.002203,-0.698880,-0.060027,-0.712712,9.80808544158936,0.80711954832077,0.12858943641186,0.83216941356659,0.39517834782600,-0.24523517489433
127,3658228606,0.002187,-0.698870,-0.060020,-0.712723,9.83419895172119,0.82310515642166,0.12366127222776,0.77483534812927,0.71593892574310,-0.12749360501766
128,3658245273,0.002196,-0.698851,-0.059981,-0.712745,9.82974338531494,0.80314660072327,0.15378378331661,0.72599196434021,0.82531803846359,0.14550574123859
129,3658261940,0.002203,-0.698849,-0.059934,-0.712750,9.78891944885254,0.77285075187683,0.16483552753925,0.70392662286758,0.66303592920303,0.17886628210545
130,3658278607,0.002227,-0.698853,-0.059921,-0.712747,9.78737163543701,0.78275018930435,0.13949333131313,0.93994760513306,0.60111719369888,0.10255324095488
131,3658295274,0.002211,-0.698834,-0.059876,-0.712770,9.79902362823486,0.77729254961014,0.14010122418404,0.66475194692612,0.83115768432617,0.05180168151855
132,3658311941,0.002180,-0.698792,-0.059805,-0.712817,9.80519104003906,0.79075926542282,0.10907561331987,0.40044173598289,1.04492127895355,0.09048965573311
133,3658328608,0.002150,-0.698756,-0.059726,-0.712859,9.79118442535400,0.79161709547043,0.12957495450974,0.33395117521286,0.99043029546738,0.13590098917484
134,3658345275,0.002113,-0.698722,-0.059650,-0.712899,9.81510162353516,0.77889961004257,0.12894755601883,0.29601877927780,0.96372902393341,0.09048966318369
135,3658361942,0.002090,-0.698685,-0.059603,-0.712939,9.81442165374756,0.75245124101639,0.12702810764313,0.52910709381104,0.98658829927444,0.01817220821977
136,3658378609,0.002092,-0.698669,-0.059584,-0.712957,9.81011867523193,0.75140196084976,0.14013408124447,0.79531270265579,0.79153490066528,0.01522674970329
137,3658395276,0.002131,-0.698663,-0.059593,-0.712961,9.80365371704102,0.75582706928253,0.12676587700844,1.10605859756470,0.68826442956924,0.06955128163099
138,3658411943,0.002166,-0.698673,-0.059599,-0.712951,9.78794097900391,0.77352273464203,0.14327658712864,1.15859055519104,0.54540973901749,0.06427507847548
139,3658428610,0.002199,-0.698672,-0.059598,-0.712952,9.79083251953125,0.77891522645950,0.13663536310196,1.04271864891052,0.65047293901443,0.08562326431274
140,3658445277,0.002214,-0.698661,-0.059593,-0.712964,9.79537200927734,0.77742505073547,0.13498745858669,0.86798870563507,0.73525094985962,0.01367718167603
141,3658461944,0.002217,-0.698643,-0.059571,-0.712983,9.78972530364990,0.77464461326599,0.14370884001255,0.75310301780701,0.79903942346573,0.03359105810523
142,3658478611,0.002210,-0.698627,-0.059546,-0.713001,9.79579734802246,0.77360761165619,0.14795495569706,0.73047417402267,0.79012608528137,-0.00067233334994
143,3658495278,0.002210,-0.698617,-0.059522,-0.713013,9.80333709716797,0.76873236894608,0.13952131569386,0.80555784702301,0.73169082403183,0.03375754132867
144,3658511945,0.002239,-0.698609,-0.059506,-0.713022,9.79411315917969,0.76997774839401,0.14154760539532,0.95357358455658,0.72051078081131,0.13582414388657
145,3658528612,0.002274,-0.698595,-0.059494,-0.713036,9.81055831909180,0.77428919076920,0.15964038670063,0.99151885509491,0.77148020267487,0.14587715268135
146,3658545279,0.002302,-0.698584,-0.059464,-0.713049,9.81718826293945,0.78456240892410,0.15775644779205,0.87700438499451,0.75355124473572,0.19260750710964
147,3658561946,0.002339,-0.698577,-0.059442,-0.713058,9.81333637237549,0.78723925352097,0.18358808755875,0.85519516468048,0.70983022451401,0.20830805599689
148,3658578613,0.002357,-0.698561,-0.059404,-0.713076,9.79135131835938,0.75826025009155,0.17413501441479,0.77783197164536,0.79681110382080,0.18136350810528
149,3658595280,0.002358,-0.698545,-0.059382,-0.713094,9.79671096801758,0.74531358480453,0.14972335100174,0.81393313407898,0.79045909643173,0.02435767464340
150,3658611947,0.002356,-0.698534,-0.059374,-0.713106,9.80037689208984,0.75506711006165,0.13226635754108,0.84359264373779,0.73723596334457,-0.05198737978935
151,3658628614,0.002371,-0.698528,-0.059370,-0.713112,9.78969001770020,0.74905675649643,0.14707636833191,0.98747193813324,0.68921214342117,0.00802958197892
152,3658645281,0.002387,-0.698520,-0.059381,-0.713119,9.79142761230469,0.74766618013382,0.15881922841072,1.00528573989868,0.70314538478851,-0.05840336158872
153,3658661948,0.002377,-0.698514,-0.059389,-0.713124,9.77247142791748,0.75807958841324,0.14788863062859,0.95294606685638,0.67973542213440,-0.16957528889179
154,3658678615,0.002344,-0.698515,-0.059389,-0.713123,9.79325580596924,0.75577890872955,0.16316984593868,0.63710308074951,0.59459882974625,-0.24033035337925
155,3658695282,0.002296,-0.698524,-0.059374,-0.713116,9.82749176025391,0.74990475177765,0.10119281709194,0.62487298250198,0.52974742650986,-0.23742330074310
156,3658711949,0.002261,-0.698519,-0.059408,-0.713118,9.80631160736084,0.76790606975555,0.12644681334496,0.97821307182312,0.65280371904373,-0.41826182603836
157,3658728616,0.002266,-0.698538,-0.059431,-0.713097,9.78528785705566,0.77301180362701,0.17026339471340,1.03970909118652,0.42967861890793,-0.15717872977257
158,3658745283,0.002334,-0.698566,-0.059525,-0.713062,9.78133678436279,0.75419992208481,0.16698716580868,1.68479049205780,0.34595069289207,-0.18426415324211
159,3658761950,0.002416,-0.698588,-0.059634,-0.713030,9.82833290100098,0.78704982995987,0.16242367029190,1.78566610813141,0.38837814331055,-0.18749134242535
160,3658778617,0.002480,-0.698616,-0.059730,-0.712995,9.84697532653809,0.80228418111801,0.18616946041584,1.58045709133148,0.33051910996437,-0.21817536652088
161,3658795284,0.002469,-0.698616,-0.059710,-0.712997,9.81510162353516,0.80605131387711,0.17288072407246,0.74296039342880,0.63108408451080,-0.03559524938464
162,3658811951,0.002393,-0.698565,-0.059626,-0.713054,9.79436302185059,0.79331928491592,0.14001895487309,0.03245129436255,1.11429333686829,-0.07201649993658
163,3658828618,0.002296,-0.698499,-0.059541,-0.713126,9.79656219482422,0.79453092813492,0.13576509058475,-0.04772286117077,1.25739157199860,-0.17728473246098
164,3658845285,0.002192,-0.698449,-0.059405,-0.713187,9.76869010925293,0.79501456022263,0.15499630570412,-0.30557867884636,1.11978721618652,0.03962284326553
165,3658861952,0.002114,-0.698423,-0.059301,-0.713222,9.76527786254883,0.75125014781952,0.15904368460178,-0.05285820737481,0.88311302661896,0.02440890111029
166,3658878619,0.002075,-0.698411,-0.059275,-0.713235,9.76910877227783,0.73140388727188,0.13191406428814,0.59763389825821,0.73575037717819,-0.14558897912502
167,3658895286,0.002078,-0.698410,-0.059321,-0.713232,9.77824687957764,0.73568820953369,0.14505131542683,1.17115342617035,0.61429494619370,-0.28451225161552
168,3658911953,0.002102,-0.698391,-0.059388,-0.713245,9.79076290130615,0.75802731513977,0.16426639258862,1.36058497428894,0.79122751951218,-0.29515436291695
169,3658928620,0.002086,-0.698362,-0.059436,-0.713270,9.79557418823242,0.76986432075500,0.16111725568771,1.12015867233276,0.88999003171921,-0.39567142724991
170,3658945287,0.002055,-0.698358,-0.059454,-0.713273,9.80851078033447,0.78737777471542,0.13123199343681,0.93272489309311,0.65147185325623,-0.32122808694839
171,3658961954,0.002038,-0.698368,-0.059483,-0.713260,9.81417274475098,0.78153175115585,0.13033448159695,0.95335590839386,0.50236743688583,-0.29730582237244
172,3658978621,0.002049,-0.698375,-0.059497,-0.713252,9.80989933013916,0.78779596090317,0.14819158613682,1.00463259220123,0.55925333499908,-0.09182793647051
173,3658995288,0.002079,-0.698388,-0.059506,-0.713238,9.81012630462646,0.77906113862991,0.14382077753544,1.01679861545563,0.49865365028381,0.03173413500190
174,3659011955,0.002077,-0.698389,-0.059507,-0.713238,9.78876590728760,0.77417248487473,0.13980969786644,0.88003963232040,0.61626720428467,-0.09873055666685
175,3659028622,0.002059,-0.698370,-0.059484,-0.713258,9.78027057647705,0.81130856275558,0.15289790928364,0.70482301712036,0.80388009548187,-0.06237332150340
176,3659045289,0.002045,-0.698382,-0.059424,-0.713251,9.79306125640869,0.78717684745789,0.17236961424351,0.58548069000244,0.53850698471069,0.14546731114388
177,3659061956,0.002029,-0.698394,-0.059360,-0.713245,9.77589416503906,0.74324488639832,0.17818558216095,0.66695469617844,0.54630613327026,0.15828648209572
178,3659078623,0.002050,-0.698378,-0.059385,-0.713259,9.81345748901367,0.74590259790421,0.13469922542572,1.11098933219910,0.77473294734955,-0.10171443969011
179,3659095290,0.002118,-0.698345,-0.059480,-0.713282,9.83448886871338,0.78641599416733,0.12932826578617,1.59641373157501,0.91597408056259,-0.22032681107521
180,3659111957,0.002172,-0.698308,-0.059531,-0.713315,9.81058979034424,0.81299430131912,0.16608121991158,1.41996812820435,0.98925226926804,-0.07291296124458
181,3659128624,0.002228,-0.698265,-0.059512,-0.713357,9.78923416137695,0.80595612525940,0.16592063009739,1.06276047229767,1.06098043918610,0.26407971978188
182,3659145291,0.002262,-0.698252,-0.059490,-0.713372,9.79339027404785,0.78134763240814,0.18347688019276,0.91852259635925,0.77288877964020,0.18825331330299
183,3659161958,0.002297,-0.698245,-0.059473,-0.713381,9.79057216644287,0.77481013536453,0.18327294290066,0.89389598369598,0.70779407024384,0.17084948718548
184,3659178625,0.002304,-0.698222,-0.059427,-0.713407,9.77794361114502,0.75952321290970,0.18108022212982,0.72568458318710,0.87133121490479,0.16507382690907
185,3659195292,0.002305,-0.698193,-0.059392,-0.713438,9.78948307037354,0.75689762830734,0.19361372292042,0.69599950313568,0.91509050130844,0.08686546981335
186,3659211959,0.002286,-0.698168,-0.059351,-0.713466,9.78898143768311,0.73637932538986,0.15107758343220,0.57759201526642,0.86924386024475,0.00951511785388
187,3659228626,0.002272,-0.698153,-0.059344,-0.713482,9.79483032226562,0.74058502912521,0.13995569944382,0.77493780851364,0.76854741573334,-0.12377977371216
188,3659245293,0.002300,-0.698141,-0.059375,-0.713490,9.80070590972900,0.76119846105576,0.19523507356644,1.08970499038696,0.72448080778122,-0.09431236237288
189,3659261960,0.002321,-0.698141,-0.059400,-0.713488,9.79526138305664,0.77028524875641,0.18290226161480,1.11529219150543,0.62409186363220,-0.09793656319380
190,3659278627,0.002349,-0.698148,-0.059464,-0.713476,9.79297733306885,0.78629130125046,0.14015668630600,1.29987025260925,0.53844296932220,-0.24440279603004
191,3659295294,0.002360,-0.698150,-0.059505,-0.713471,9.80022907257080,0.78275954723358,0.15484905242920,1.25148785114288,0.60351204872131,-0.22283689677715
192,3659311961,0.002375,-0.698153,-0.059531,-0.713466,9.79547595977783,0.80492800474167,0.18237750232220,1.10005271434784,0.59128201007843,-0.12457378208637
193,3659328628,0.002374,-0.698152,-0.059531,-0.713466,9.78839492797852,0.78977930545807,0.14731183648109,0.96718668937683,0.63528460264206,-0.08311961591244
194,3659345295,0.002395,-0.698147,-0.059521,-0.713472,9.80272579193115,0.77814310789108,0.16315683722496,0.93061178922653,0.68305224180222,0.06801451742649
195,3659361962,0.002426,-0.698148,-0.059501,-0.713472,9.79112243652344,0.76423537731171,0.12868599593639,1.01519787311554,0.64371120929718,0.16841629147530
196,3659378629,0.002466,-0.698159,-0.059523,-0.713460,9.78314971923828,0.74889528751373,0.13808202743530,1.16057538986206,0.52354913949966,0.01238373946398
197,3659395296,0.002499,-0.698174,-0.059546,-0.713443,9.78721141815186,0.74037432670593,0.13781060278416,1.20648610591888,0.48441302776337,-0.01858841627836
198,3659411963,0.002547,-0.698195,-0.059602,-0.713418,9.78715324401855,0.75194901227951,0.15360096096992,1.34990453720093,0.41388842463493,-0.10167601704597
199,3659428630,0.002587,-0.698219,-0.059657,-0.713389,9.78646087646484,0.75146508216858,0.15716168284416,1.40956926345825,0.38800680637360,-0.13900652527809
200,3659445297,0.002635,-0.698246,-0.059720,-0.713357,9.79910850524902,0.75873452425003,0.15785776078701,1.44468450546265,0.35652881860733,-0.13338454067707
201,3659461964,0.002688,-0.698286,-0.059770,-0.713314,9.81750679016113,0.76774913072586,0.17881195247173,1.36972880363464,0.24294924736023,-0.04563542827964
202,3659478631,0.002736,-0.698316,-0.059811,-0.713281,9.79769325256348,0.78088057041168,0.17235761880875,1.24950277805328,0.32423117756844,-0.02672044746578
203,3659495298,0.002723,-0.698341,-0.059791,-0.713259,9.79529666900635,0.79161286354065,0.18003006279469,1.01115095615387,0.41675698757172,-0.03348220139742
204,3659511965,0.002731,-0.698365,-0.059781,-0.713236,9.79564952850342,0.78874814510345,0.17814391851425,0.78928095102310,0.39273229241371,0.01509868539870
205,3659528632,0.002715,-0.698385,-0.059761,-0.713217,9.78848171234131,0.75901812314987,0.18253585696220,0.72855329513550,0.42843645811081,-0.05545790120959
206,3659545299,0.002677,-0.698386,-0.059749,-0.713218,9.79047584533691,0.75727301836014,0.15491326153278,0.72946244478226,0.61633116006851,-0.20832726359367
207,3659561966,0.002644,-0.698378,-0.059750,-0.713226,9.79181098937988,0.76884394884109,0.16743302345276,0.71826970577240,0.68485796451569,-0.24412101507187
208,3659578633,0.002613,-0.698353,-0.059760,-0.713250,9.79955482482910,0.75791406631470,0.16142915189266,0.73874711990356,0.84455311298370,-0.29284918308258
209,3659595300,0.002549,-0.698323,-0.059754,-0.713280,9.80969333648682,0.78769177198410,0.15479950606823,0.56552839279175,0.89367830753326,-0.38233995437622
210,3659611967,0.002496,-0.698312,-0.059737,-0.713292,9.84473896026611,0.74949234724045,0.13665220141411,0.41806322336197,0.70420837402344,-0.26075649261475
211,3659628634,0.002504,-0.698292,-0.059765,-0.713309,9.79942798614502,0.77382600307465,0.14894033968449,0.85597652196884,0.78536224365234,-0.18084487318993
212,3659645301,0.002490,-0.698289,-0.059716,-0.713316,9.78090572357178,0.77517199516296,0.16946129500866,0.62448883056641,0.66874760389328,0.08727528154850
213,3659661968,0.002560,-0.698293,-0.059747,-0.713310,9.77834033966064,0.75571233034134,0.15779010951519,1.15177750587463,0.57974350452423,0.10944305360317
214,3659678635,0.002612,-0.698299,-0.059768,-0.713301,9.83463287353516,0.77155989408493,0.15934957563877,1.35642302036285,0.58704310655594,0.07820837944746
215,3659695302,0.002683,-0.698309,-0.059802,-0.713289,9.83509445190430,0.76029336452484,0.17727194726467,1.26318001747131,0.52924805879593,0.11095422506332
216,3659711969,0.002689,-0.698286,-0.059766,-0.713314,9.82083511352539,0.77556937932968,0.14826916158199,0.78077751398087,0.86656725406647,0.11126156151295
217,3659728636,0.002678,-0.698230,-0.059697,-0.713375,9.79154968261719,0.78573596477509,0.15854202210903,0.45328071713448,1.18705892562866,0.17425599694252
218,3659745303,0.002658,-0.698171,-0.059605,-0.713441,9.78902053833008,0.80263143777847,0.17231371998787,0.32252791523933,1.22041952610016,0.23340851068497
219,3659761970,0.002585,-0.698117,-0.059442,-0.713508,9.77170181274414,0.78056395053864,0.18397374451160,-0.31930708885193,1.18385744094849,0.32488426566124
220,3659778637,0.002480,-0.698070,-0.059291,-0.713566,9.77518272399902,0.74463999271393,0.19160978496075,-0.29101788997650,1.10185825824738,0.11249097436666
221,3659795304,0.002428,-0.698051,-0.059230,-0.713590,9.78363704681396,0.71948462724686,0.18130363523960,0.24536967277527,0.80375218391418,-0.05297347158194
222,3659811971,0.002418,-0.698025,-0.059253,-0.713614,9.78229522705078,0.71046817302704,0.15381991863251,0.88397103548050,0.85355597734451,-0.25367456674576
223,3659828638,0.002438,-0.697970,-0.059302,-0.713663,9.78826522827148,0.72940492630005,0.17358820140362,1.22040688991547,1.14180135726929,-0.23605304956436
224,3659845305,0.002428,-0.697914,-0.059348,-0.713714,9.79280853271484,0.77541661262512,0.15842731297016,1.14031577110291,1.14300501346588,-0.37210768461227
225,3659861972,0.002392,-0.697879,-0.059366,-0.713747,9.81489276885986,0.79230022430420,0.17625610530376,0.80659508705139,0.93861567974091,-0.36000567674637
226,3659878639,0.002356,-0.697846,-0.059361,-0.713780,9.84004402160645,0.80276894569397,0.18961684405804,0.55885624885559,0.91941893100739,-0.24409541487694
227,3659895306,0.002327,-0.697810,-0.059310,-0.713819,9.83628559112549,0.78763878345490,0.17193326354027,0.43805396556854,0.97385883331299,0.00124221574515
228,3659911973,0.002279,-0.697775,-0.059208,-0.713862,9.81890583038330,0.78373265266418,0.19110618531704,0.23226875066757,0.99011009931564,0.16307605803013
229,3659928640,0.002213,-0.697721,-0.059119,-0.713923,9.78401660919189,0.77674770355225,0.17360901832581,0.13567048311234,1.16189455986023,0.00299668614753
230,3659945307,0.002154,-0.697655,-0.059004,-0.713997,9.80883693695068,0.77349853515625,0.19224727153778,0.10875152796507,1.28776800632477,0.15540505945683
231,3659961974,0.002106,-0.697612,-0.058903,-0.714047,9.79692363739014,0.76923674345016,0.20580701529980,0.07650513201952,1.04859685897827,0.14929641783237
232,3659978641,0.002044,-0.697560,-0.058816,-0.714106,9.74669456481934,0.73080641031265,0.15948514640331,0.24009342491627,1.14948511123657,0.01287038065493
233,3659995308,0.002021,-0.697473,-0.058799,-0.714192,9.80199050903320,0.75062698125839,0.15124908089638,0.72261106967926,1.45800280570984,-0.14763799309731
234,3660011975,0.002036,-0.697373,-0.058824,-0.714287,9.84944915771484,0.80124741792679,0.17727792263031,1.05286121368408,1.58059799671173,-0.16449116170406
235,3660028642,0.002069,-0.697276,-0.058793,-0.714385,9.83895778656006,0.81603270769119,0.16880622506142,0.87236857414246,1.58502924442291,0.18605065345764
236,3660045309,0.002120,-0.697192,-0.058742,-0.714471,9.82757472991943,0.79809635877609,0.17450939118862,0.77489948272705,1.45968067646027,0.37778735160828
237,3660061976,0.002185,-0.697143,-0.058676,-0.714524,9.78914070129395,0.75968092679977,0.19503057003021,0.64277631044388,1.12412858009338,0.53722631931305
238,3660078643,0.002194,-0.697097,-0.058578,-0.714577,9.78869152069092,0.76068836450577,0.18703103065491,0.41086614131927,1.11264133453369,0.41557890176773
239,3660095310,0.002206,-0.697014,-0.058487,-0.714665,9.76982879638672,0.75144165754318,0.17675437033176,0.36636409163475,1.44661819934845,0.37786418199539
240,3660111977,0.002190,-0.696929,-0.058376,-0.714757,9.77718544006348,0.74783974885941,0.17679966986179,0.15116617083549,1.46747970581055,0.33495011925697
241,3660128644,0.002164,-0.696853,-0.058264,-0.714840,9.78822422027588,0.73220688104630,0.18891893327236,0.17725269496441,1.39121782779694,0.30082118511200
242,3660145311,0.002156,-0.696768,-0.058188,-0.714930,9.77637958526611,0.72925239801407,0.23577636480331,0.32423117756844,1.45700407028198,0.20461985468864
243,3660161978,0.002126,-0.696668,-0.058097,-0.715035,9.78754901885986,0.77019459009171,0.22669714689255,0.34624528884888,1.61545705795288,0.17446090281010
244,3660178645,0.002075,-0.696555,-0.057992,-0.715153,9.79100131988525,0.79828375577927,0.19679354131222,0.07019160687923,1.72073817253113,0.12153227627277
245,3660195312,0.002014,-0.696447,-0.057831,-0.715272,9.79705619812012,0.79399663209915,0.21401488780975,-0.26525151729584,1.70382094383240,0.34680879116058
246,3660211979,0.001953,-0.696320,-0.057643,-0.715410,9.81230163574219,0.78787493705750,0.18625329434872,-0.40039691329002,1.88401889801025,0.46986493468285
247,3660228646,0.001909,-0.696200,-0.057443,-0.715543,9.82279205322266,0.78786569833755,0.19616332650185,-0.46413403749466,1.82938683032990,0.60905712842941
248,3660245313,0.001850,-0.696070,-0.057219,-0.715688,9.84257984161377,0.76787614822388,0.21156586706638,-0.62733829021454,1.93196594715118,0.64780932664871
249,3660261980,0.001790,-0.695915,-0.057000,-0.715856,9.83951091766357,0.73807471990585,0.19879183173180,-0.53967881202698,2.16372251510620,0.60835283994675
250,3660278647,0.001740,-0.695769,-0.056805,-0.716014,9.83781623840332,0.72775441408157,0.21063883602619,-0.33327886462212,2.09043169021606,0.55372107028961
251,3660295314,0.001733,-0.695621,-0.056665,-0.716168,9.83066463470459,0.72045248746872,0.21042318642139,0.12157066911459,2.08769130706787,0.49396654963493
252,3660311981,0.001779,-0.695485,-0.056585,-0.716307,9.83962249755859,0.71713185310364,0.19141997396946,0.65919405221939,1.97701859474182,0.47553816437721
253,3660328648,0.001872,-0.695354,-0.056560,-0.716436,9.82960700988770,0.72613489627838,0.22713969647884,1.14642453193665,1.91667532920837,0.44256186485291
254,3660345315,0.001994,-0.695233,-0.056552,-0.716553,9.80619812011719,0.72429490089417,0.26007109880447,1.29401779174805,1.81819427013397,0.51113986968994
255,3660361982,0.002087,-0.695127,-0.056526,-0.716658,9.79863357543945,0.71736919879913,0.24594788253307,1.11673927307129,1.68498265743256,0.45908197760582
256,3660378649,0.002148,-0.695021,-0.056473,-0.716765,9.78778839111328,0.73144513368607,0.25801941752434,0.88626337051392,1.68038511276245,0.42897427082062
257,3660395316,0.002194,-0.694924,-0.056430,-0.716862,9.78371715545654,0.71206599473953,0.25938209891319,0.93318581581116,1.59231579303741,0.32173389196396
258,3660411983,0.002234,-0.694830,-0.056383,-0.716957,9.76156234741211,0.71976453065872,0.26215377449989,0.76958483457565,1.54780113697052,0.29916918277740
259,3660428650,0.002276,-0.694743,-0.056363,-0.717042,9.76972579956055,0.72173625230789,0.26649597287178,0.99268424510956,1.48110556602478,0.19044324755669
260,3660445317,0.002313,-0.694670,-0.056345,-0.717115,9.79240131378174,0.73314303159714,0.25609886646271,1.06990659236908,1.35514223575592,0.15993849933147
261,3660461984,0.002346,-0.694606,-0.056338,-0.717178,9.81279945373535,0.72781032323837,0.26148694753647,1.07159698009491,1.26448619365692,0.09297410398722
262,3660478651,0.002381,-0.694552,-0.056341,-0.717229,9.82263565063477,0.71461510658264,0.26252964138985,1.04298758506775,1.14730811119080,0.05173765122890
263,3660495318,0.002411,-0.694494,-0.056357,-0.717284,9.80528259277344,0.73297792673111,0.28144529461861,0.91615355014801,1.16838729381561,-0.03194544091821
264,3660511985,0.002394,-0.694450,-0.056336,-0.717328,9.80493164062500,0.73720514774323,0.28948649764061,0.66032099723816,1.04038786888123,-0.08263297379017
265,3660528652,0.002365,-0.694442,-0.056311,-0.717338,9.83313369750977,0.70980262756348,0.29340782761574,0.68078559637070,0.70486152172089,-0.10407080501318
266,3660545319,0.002403,-0.694422,-0.056369,-0.717353,9.77643489837646,0.73735159635544,0.28063222765923,1.32986259460449,0.81074434518814,-0.17618335783482
267,3660561986,0.002414,-0.694408,-0.056373,-0.717366,9.73397350311279,0.74907839298248,0.26909509301186,1.25863361358643,0.77886939048767,-0.04324064031243
268,3660578653,0.002496,-0.694413,-0.056462,-0.717354,9.76187229156494,0.75391215085983,0.31997230648994,1.80807697772980,0.58782416582108,-0.09698887169361
269,3660595320,0.002550,-0.694388,-0.056554,-0.717370,9.83045578002930,0.73568767309189,0.28148272633553,1.62817347049713,0.84290099143982,-0.26194745302200
270,3660611987,0.002605,-0.694366,-0.056674,-0.717382,9.86638069152832,0.73517984151840,0.29430079460144,1.40600931644440,0.77918952703476,-0.39797651767731
271,3660628654,0.002545,-0.694335,-0.056672,-0.717413,9.83332538604736,0.72379368543625,0.30260702967644,0.58208698034286,0.90122115612030,-0.37808820605278
272,3660645321,0.002446,-0.694293,-0.056612,-0.717458,9.82870101928711,0.73584830760956,0.31464397907257,0.19933083653450,1.01551795005798,-0.29889380931854
273,3660661988,0.002376,-0.694265,-0.056593,-0.717487,9.78091430664062,0.75969374179840,0.30258765816689,0.45581635832787,0.87732458114624,-0.34115475416183
274,3660678655,0.002305,-0.694261,-0.056524,-0.717497,9.72363281250000,0.73675948381424,0.26470372080803,0.20955029129982,0.66577649116516,-0.10354574024677
275,3660695322,0.002232,-0.694261,-0.056530,-0.717496,9.69409847259521,0.69142413139343,0.26131495833397,0.57778406143188,0.58938658237457,-0.47029396891594
276,3660711989,0.002179,-0.694292,-0.056644,-0.717457,9.69126796722412,0.68784999847412,0.26515388488770,1.21618056297302,0.26050674915314,-0.87142723798752
277,3660728656,0.002157,-0.694327,-0.056827,-0.717409,9.73570251464844,0.69050079584122,0.29653847217560,1.68334341049194,0.20910206437111,-1.04883360862732
278,3660745323,0.002140,-0.694344,-0.056986,-0.717380,9.74528312683105,0.73884057998657,0.24038107693195,1.64229893684387,0.39941719174385,-0.91344475746155
279,3660761990,0.002071,-0.694369,-0.057057,-0.717350,9.78477382659912,0.77370953559875,0.25402873754501,1.13857424259186,0.34689840674400,-0.74434983730316
280,3660778657,0.001979,-0.694428,-0.057100,-0.717290,9.81077098846436,0.76920562982559,0.22651045024395,0.79451870918274,0.02370455116034,-0.71694427728653
281,3660795324,0.001922,-0.694512,-0.057137,-0.717207,9.82589626312256,0.76550227403641,0.24335214495659,0.85018801689148,-0.20962074398994,-0.49529203772545
282,3660811991,0.001914,-0.694594,-0.057178,-0.717124,9.79783916473389,0.76213747262955,0.25938904285431,0.98640912771225,-0.18765786290169,-0.28749617934227
283,3660828658,0.001919,-0.694681,-0.057213,-0.717037,9.79343986511230,0.76961725950241,0.25194114446640,1.09764504432678,-0.22092872858047,-0.18738889694214
284,3660845325,0.001949,-0.694737,-0.057228,-0.716981,9.76288318634033,0.79337000846863,0.26831030845642,1.17539227008820,0.09676477313042,0.01795450225472
285,3660861992,0.001953,-0.694798,-0.057196,-0.716924,9.77889537811279,0.80209678411484,0.28848192095757,0.71342891454697,0.04407945275307,0.12032845616341
286,3660878659,0.001938,-0.694881,-0.057127,-0.716850,9.77891349792480,0.76731461286545,0.31257125735283,0.67036110162735,-0.12594403326511,0.21104863286018
287,3660895326,0.001915,-0.694906,-0.057099,-0.716827,9.78128814697266,0.72649544477463,0.28885033726692,0.67362678050995,0.38265374302864,-0.04919559136033
288,3660911993,0.001867,-0.694885,-0.057105,-0.716848,9.83655834197998,0.77088940143585,0.28491663932800,0.92983067035675,0.83060711622238,-0.34621328115463
289,3660928660,0.001873,-0.694849,-0.057114,-0.716881,9.82775497436523,0.78954267501831,0.23987434804440,0.88363820314407,0.95553302764893,-0.10724678635597
290,3660945327,0.001897,-0.694824,-0.057060,-0.716910,9.82881546020508,0.78773069381714,0.26448798179626,0.79743862152100,0.89900583028793,0.29011505842209
291,3660961994,0.001946,-0.694830,-0.057001,-0.716909,9.77556133270264,0.73726195096970,0.29407474398613,0.92835795879364,0.62447601556778,0.43907853960991
292,3660978661,0.002022,-0.694869,-0.056981,-0.716873,9.74954032897949,0.73066174983978,0.28455269336700,1.09977090358734,0.27814114093781,0.40670406818390
293,3660995328,0.002060,-0.694907,-0.056959,-0.716837,9.75375175476074,0.71463698148727,0.28656980395317,1.04602253437042,0.28615787625313,0.22865736484528
294,3661011995,0.002074,-0.694924,-0.056929,-0.716823,9.79117393493652,0.72524499893188,0.23568451404572,0.80792707204819,0.48150599002838,0.14162541925907
295,3661028662,0.002081,-0.694959,-0.056867,-0.716794,9.78778934478760,0.72000497579575,0.24211996793747,0.62348991632462,0.31048995256424,0.26438707113266
296,3661045329,0.002090,-0.695025,-0.056814,-0.716735,9.78105163574219,0.72716450691223,0.28160485625267,0.71713000535965,0.02471625432372,0.24650943279266
297,3661061996,0.002085,-0.695099,-0.056782,-0.716666,9.81432533264160,0.72099918127060,0.26144221425056,0.73058944940567,-0.07217019051313,0.07922008633614
298,3661078663,0.002111,-0.695160,-0.056804,-0.716604,9.83092498779297,0.74084281921387,0.25612187385559,0.92810177803040,0.01368998922408,-0.03676062822342
299,3661095330,0.002125,-0.695215,-0.056828,-0.716549,9.84823894500732,0.73499971628189,0.23230421543121,1.07356917858124,0.09937728196383,-0.10336645692587
300,3661111997,0.002162,-0.695272,-0.056866,-0.716490,9.86577606201172,0.74277728796005,0.26460725069046,1.31169044971466,0.07435366511345,-0.05577806010842
301,3661128664,0.002189,-0.695325,-0.056896,-0.716436,9.85744667053223,0.73855161666870,0.25844871997833,1.19273209571838,0.11471927165985,-0.07106883078814
302,3661145331,0.002208,-0.695337,-0.056928,-0.716423,9.82633686065674,0.75521105527878,0.25848600268364,1.13274729251862,0.50894999504089,-0.12951701879501
303,3661161998,0.002199,-0.695313,-0.056948,-0.716444,9.80140018463135,0.76029545068741,0.24859988689423,0.96412616968155,0.84501427412033,-0.23012372851372
304,3661178665,0.002188,-0.695270,-0.056949,-0.716486,9.78723812103271,0.76937371492386,0.27046036720276,0.89314043521881,1.03563666343689,-0.15703783929348
305,3661195332,0.002185,-0.695220,-0.056954,-0.716534,9.77254295349121,0.75420904159546,0.23660813271999,0.88029563426971,1.09507095813751,-0.13289789855480
306,3661211999,0.002175,-0.695182,-0.056967,-0.716569,9.77169799804688,0.74504566192627,0.23043295741081,0.93697655200958,0.98024934530258,-0.21324492990971
307,3661228666,0.002151,-0.695144,-0.056975,-0.716606,9.77846431732178,0.73128104209900,0.25082662701607,0.85510551929474,0.98543578386307,-0.24884657561779
308,3661245333,0.002154,-0.695126,-0.056976,-0.716624,9.78965377807617,0.71273660659790,0.23803350329399,0.97549808025360,0.80343192815781,-0.07511564344168
309,3661262000,0.002173,-0.695133,-0.056971,-0.716617,9.78044891357422,0.71350282430649,0.23675394058228,0.85441398620605,0.55483508110046,0.03953319787979
310,3661278667,0.002188,-0.695192,-0.056956,-0.716561,9.77544021606445,0.73100739717484,0.22934298217297,1.18112969398499,0.09645742923021,0.09444683045149
311,3661295334,0.002223,-0.695272,-0.056962,-0.716483,9.78471279144287,0.73268038034439,0.22224318981171,1.11110436916351,-0.13060556352139,0.09639338403940
312,3661312001,0.002256,-0.695356,-0.056983,-0.716400,9.80338287353516,0.72702723741531,0.23599258065224,1.17231869697571,-0.17410871386528,0.01420224085450
313,3661328668,0.002268,-0.695441,-0.057024,-0.716313,9.80419349670410,0.74502086639404,0.25237786769867,1.19008123874664,-0.20615021884441,-0.18193343281746
314,3661345335,0.002264,-0.695521,-0.057076,-0.716232,9.80375003814697,0.73406052589417,0.27525013685226,1.00362086296082,-0.17314827442169,-0.31166177988052
315,3661362002,0.002220,-0.695601,-0.057105,-0.716152,9.81284141540527,0.74561089277267,0.28202411532402,0.84587222337723,-0.17106083035469,-0.40362417697906
316,3661378669,0.002185,-0.695687,-0.057116,-0.716068,9.87049961090088,0.72988998889923,0.26098948717117,0.86816811561584,-0.21378281712532,-0.26655775308609
317,3661395336,0.002186,-0.695749,-0.057206,-0.716000,9.83322811126709,0.74054849147797,0.25768193602562,1.41055548191071,0.00285581615753,-0.48290824890137
318,3661412003,0.002189,-0.695799,-0.057275,-0.715946,9.79355239868164,0.77328348159790,0.28368255496025,1.26288557052612,0.11817700415850,-0.37511721253395
319,3661428670,0.002223,-0.695839,-0.057383,-0.715898,9.78250312805176,0.76129996776581,0.25532686710358,1.59362220764160,0.20492722094059,-0.41587981581688
320,3661445337,0.002242,-0.695849,-0.057511,-0.715878,9.83203601837158,0.77378177642822,0.23580519855022,1.56346333026886,0.48086565732956,-0.59199273586273
321,3661462004,0.002235,-0.695852,-0.057609,-0.715868,9.86571121215820,0.77484822273254,0.28090992569923,1.41607499122620,0.56118708848953,-0.57884067296982
322,3661478671,0.002185,-0.695832,-0.057632,-0.715886,9.79763126373291,0.77017778158188,0.25154200196266,0.83482038974762,0.79637569189072,-0.44310611486435
323,3661495338,0.002115,-0.695776,-0.057608,-0.715942,9.79821968078613,0.75551581382751,0.22090686857700,0.43035742640495,1.13857424259186,-0.32919365167618
324,3661512005,0.002065,-0.695697,-0.057601,-0.716020,9.79391765594482,0.77836161851883,0.20966623723507,0.60218018293381,1.37027943134308,-0.32815629243851
325,3661528672,0.002025,-0.695632,-0.057572,-0.716085,9.77153968811035,0.77901577949524,0.20518757402897,0.41132718324661,1.22455608844757,-0.16072608530521
326,3661545339,0.002001,-0.695570,-0.057523,-0.716149,9.75576877593994,0.75733757019043,0.18245607614517,0.53695744276047,1.23167634010315,0.00927179772407
327,3661562006,0.002031,-0.695546,-0.057553,-0.716170,9.75327110290527,0.74969190359116,0.17920884490013,1.19928908348083,0.85833275318146,-0.08383676409721
328,3661578673,0.002146,-0.695542,-0.057615,-0.716168,9.75854873657227,0.75252944231033,0.18760901689529,1.75550723075867,0.67494577169418,0.18761301040649
329,3661595340,0.002272,-0.695527,-0.057636,-0.716181,9.73907470703125,0.76284527778625,0.22034344077110,1.69039952754974,0.81696814298630,0.43217581510544
330,3661612007,0.002329,-0.695504,-0.057591,-0.716207,9.75559997558594,0.77394360303879,0.19575510919094,1.06104445457458,0.89693105220795,0.41363227367401
331,3661628674,0.002339,-0.695494,-0.057517,-0.716222,9.81305599212646,0.75307655334473,0.23746044933796,0.53535670042038,0.74693036079407,0.32022279500961
332,3661645341,0.002328,-0.695503,-0.057404,-0.716223,9.84950160980225,0.74021738767624,0.26405265927315,0.22502037882805,0.57925671339035,0.40725469589233
333,3661662008,0.002334,-0.695526,-0.057320,-0.716208,9.85655689239502,0.71580290794373,0.27413415908813,0.45950460433960,0.43691420555115,0.36046031117439
334,3661678675,0.002360,-0.695566,-0.057291,-0.716170,9.83335494995117,0.70501297712326,0.28974738717079,0.90957099199295,0.25914928317070,0.20132862031460
335,3661695342,0.002411,-0.695577,-0.057334,-0.716156,9.81799221038818,0.74748134613037,0.28771340847015,1.22172582149506,0.50727236270905,-0.02987080812454
336,3661712009,0.002417,-0.695586,-0.057358,-0.716145,9.85010337829590,0.78534477949142,0.30335363745689,1.05786859989166,0.53095126152039,-0.16399171948433
337,3661728676,0.002469,-0.695590,-0.057398,-0.716138,9.81705188751221,0.75044071674347,0.31022831797600,1.06468152999878,0.56765431165695,-0.01454160921276
338,3661745343,0.002438,-0.695542,-0.057403,-0.716185,9.78937435150146,0.75209790468216,0.28126966953278,0.70903635025024,1.06679451465607,-0.28004282712936
339,3661762010,0.002382,-0.695453,-0.057427,-0.716269,9.82887077331543,0.75577700138092,0.28012418746948,0.75444763898849,1.44861590862274,-0.50462776422501
340,3661778677,0.002352,-0.695344,-0.057457,-0.716373,9.83951377868652,0.79404914379120,0.25540176033974,0.81808233261108,1.63553714752197,-0.41731408238411
341,3661795344,0.002314,-0.695235,-0.057424,-0.716481,9.81139755249023,0.76503771543503,0.24786132574081,0.61415410041809,1.67209959030151,-0.15023769438267
342,3661812011,0.002315,-0.695143,-0.057412,-0.716572,9.75889492034912,0.72465389966965,0.23208615183830,0.73792743682861,1.51093149185181,-0.05579086020589
343,3661828678,0.002313,-0.695092,-0.057421,-0.716620,9.75697517395020,0.75535106658936,0.24387395381927,0.93815475702286,1.10808229446411,-0.14930284023285
344,3661845345,0.002290,-0.695057,-0.057402,-0.716656,9.76981258392334,0.73833477497101,0.21274144947529,0.93673324584961,0.98233658075333,-0.11340662091970
345,3661862012,0.002310,-0.695019,-0.057402,-0.716692,9.75729179382324,0.72893339395523,0.19488874077797,0.94982129335403,0.98684442043304,0.00343210157007
346,3661878679,0.002333,-0.695002,-0.057373,-0.716711,9.76140880584717,0.72231495380402,0.23885981738567,0.92365801334381,0.81652003526688,0.16666184365749
347,3661895346,0.002343,-0.695016,-0.057346,-0.716700,9.77022457122803,0.71125316619873,0.25483530759811,0.79217517375946,0.50116366147995,0.09705932438374
348,3661912013,0.002317,-0.695048,-0.057325,-0.716671,9.75694179534912,0.70578956604004,0.26031929254532,0.65563392639160,0.31615033745766,-0.09049606323242
349,3661928680,0.002277,-0.695083,-0.057321,-0.716637,9.77864551544189,0.72200047969818,0.28150829672813,0.71800071001053,0.27824354171753,-0.24449241161346
350,3661945347,0.002266,-0.695129,-0.057353,-0.716590,9.77862834930420,0.74077546596527,0.24427920579910,1.12980175018311,0.17841807007790,-0.26161453127861
351,3661962014,0.002314,-0.695203,-0.057442,-0.716511,9.80722236633301,0.74634432792664,0.22586350142956,1.56420600414276,-0.10432692617178,-0.24190554022789
352,3661978681,0.002402,-0.695277,-0.057529,-0.716432,9.81856632232666,0.76294040679932,0.25997295975685,1.80271148681641,-0.08534792065620,-0.03294433653355
353,3661995348,0.002469,-0.695328,-0.057601,-0.716377,9.80395984649658,0.77008062601089,0.28217759728432,1.52104854583740,0.13018934428692,-0.07151706516743
354,3662012015,0.002426,-0.695355,-0.057575,-0.716353,9.80261230468750,0.80504387617111,0.31862550973892,0.82034909725189,0.38565039634705,-0.14765080809593
355,3662028682,0.002346,-0.695352,-0.057511,-0.716361,9.81466007232666,0.76980024576187,0.29302716255188,0.23001484572887,0.64560645818710,-0.17231583595276
356,3662045349,0.002268,-0.695338,-0.057451,-0.716379,9.80199432373047,0.75623196363449,0.26565140485764,0.18599943816662,0.74986296892166,-0.18525026738644
357,3662062016,0.002226,-0.695330,-0.057412,-0.716391,9.81422328948975,0.75839924812317,0.25828996300697,0.57538926601410,0.71020168066025,-0.10223948955536
358,3662078683,0.002280,-0.695329,-0.057459,-0.716387,9.80366134643555,0.72933870553970,0.25036385655403,1.17845308780670,0.61337292194366,-0.03600505366921
359,3662095350,0.002333,-0.695329,-0.057505,-0.716383,9.80708789825439,0.74672341346741,0.26562726497650,1.36794865131378,0.62124890089035,-0.04169107228518
360,3662112017,0.002367,-0.695324,-0.057541,-0.716386,9.79825592041016,0.75580710172653,0.28567880392075,1.23904001712799,0.67727661132812,-0.08579614013433
361,3662128684,0.002369,-0.695329,-0.057539,-0.716381,9.78548526763916,0.76679372787476,0.27575850486755,0.83502513170242,0.56770545244217,-0.06105426698923
362,3662145351,0.002329,-0.695327,-0.057492,-0.716387,9.78683853149414,0.77163112163544,0.25203678011894,0.39392328262329,0.64164930582047,-0.05776304379106
363,3662162018,0.002275,-0.695332,-0.057421,-0.716387,9.78747177124023,0.75936448574066,0.25951468944550,0.32544773817062,0.58412319421768,-0.00128703808878
364,3662178685,0.002243,-0.695349,-0.057363,-0.716376,9.80323982238770,0.73947060108185,0.24223798513412,0.49449154734612,0.47694683074951,0.04647424072027
365,3662195352,0.002248,-0.695367,-0.057314,-0.716363,9.78709125518799,0.73555862903595,0.22548654675484,0.68542152643204,0.47520524263382,0.18899612128735
366,3662212019,0.002299,-0.695388,-0.057299,-0.716343,9.79220867156982,0.74435657262802,0.23306939005852,0.96379303932190,0.43841254711151,0.24758516252041
367,3662228686,0.002315,-0.695400,-0.057289,-0.716332,9.79750633239746,0.73895627260208,0.24810911715031,0.97221958637238,0.52365159988403,0.05885798111558
368,3662245353,0.002281,-0.695402,-0.057267,-0.716332,9.79639911651611,0.75069880485535,0.25294306874275,0.62591034173965,0.59756976366043,-0.14688239991665
369,3662262020,0.002219,-0.695422,-0.057218,-0.716316,9.82524013519287,0.71522355079651,0.23541100323200,0.48370862007141,0.43580007553101,-0.13759781420231
370,3662278687,0.002217,-0.695444,-0.057233,-0.716294,9.81207561492920,0.73157757520676,0.22080169618130,0.96860826015472,0.41208270192146,-0.15328560769558
371,3662295354,0.002227,-0.695468,-0.057228,-0.716271,9.77140808105469,0.74430108070374,0.23255607485771,0.94962930679321,0.40232431888580,0.00576285785064
372,3662312021,0.002302,-0.695499,-0.057272,-0.716238,9.77566623687744,0.76512199640274,0.22701738774776,1.47836506366730,0.34032878279686,0.09228256344795
373,3662328688,0.002388,-0.695530,-0.057349,-0.716200,9.84931182861328,0.74608665704727,0.25759342312813,1.59856522083282,0.31338414549828,-0.01254381891340
374,3662345355,0.002458,-0.695580,-0.057392,-0.716148,9.83458042144775,0.72184848785400,0.26191851496696,1.47730219364166,0.15790228545666,0.08158925175667
375,3662362022,0.002475,-0.695599,-0.057381,-0.716131,9.80300617218018,0.74831038713455,0.28217110037804,0.99064797163010,0.45662316679955,0.05856343731284
376,3662378689,0.002448,-0.695588,-0.057335,-0.716145,9.79415130615234,0.75440251827240,0.26368048787117,0.53754651546478,0.73819637298584,0.00639036763459
377,3662395356,0.002400,-0.695569,-0.057271,-0.716169,9.80347251892090,0.78983139991760,0.23524412512779,0.29769638180733,0.81425321102142,-0.01733339205384
378,3662412023,0.002320,-0.695552,-0.057122,-0.716197,9.80549335479736,0.76768457889557,0.21722289919853,-0.16108465194702,0.81522649526596,0.23627713322639
379,3662428690,0.002245,-0.695554,-0.057023,-0.716204,9.78719234466553,0.71047437191010,0.24367919564247,0.05111014097929,0.61786794662476,0.02196288853884
380,3662445357,0.002219,-0.695596,-0.057017,-0.716163,9.79551410675049,0.68140703439713,0.26465705037117,0.69105625152588,0.20659205317497,-0.16004735231400
381,3662462024,0.002232,-0.695627,-0.057076,-0.716129,9.78398895263672,0.70203238725662,0.24688780307770,1.27958488464355,0.31294879317284,-0.28671497106552
382,3662478691,0.002252,-0.695619,-0.057148,-0.716131,9.78891277313232,0.72580623626709,0.26001578569412,1.34370625019073,0.68045252561569,-0.32934728264809
383,3662495358,0.002249,-0.695609,-0.057199,-0.716137,9.80012702941895,0.76440078020096,0.25210827589035,1.18544530868530,0.70732027292252,-0.33705672621727
384,3662512025,0.002220,-0.695602,-0.057253,-0.716139,9.82697486877441,0.76776653528214,0.23137488961220,1.00554180145264,0.64964050054550,-0.48794114589691
385,3662528692,0.002206,-0.695620,-0.057284,-0.716119,9.85484027862549,0.74942046403885,0.25741460919380,0.91897082328796,0.43003714084625,-0.28776505589485
386,3662545359,0.002183,-0.695648,-0.057286,-0.716092,9.83448886871338,0.73469239473343,0.23054130375385,0.91328477859497,0.35964071750641,-0.18961720168591
387,3662562026,0.002175,-0.695670,-0.057285,-0.716070,9.79522323608398,0.72764909267426,0.24244506657124,0.83274561166763,0.40319508314133,-0.10515933483839
388,3662578693,0.002149,-0.695671,-0.057276,-0.716070,9.77760982513428,0.75167787075043,0.24724601209164,0.66256207227707,0.60165512561798,-0.16600230336189
389,3662595360,0.002086,-0.695674,-0.057236,-0.716071,9.78801536560059,0.76237946748734,0.23724201321602,0.39161822199821,0.59348469972610,-0.20059226453304
390,3662612027,0.002045,-0.695706,-0.057198,-0.716043,9.78987789154053,0.74766367673874,0.27939462661743,0.50911641120911,0.31207790970802,-0.08405447006226
391,3662628694,0.002006,-0.695729,-0.057203,-0.716021,9.76383495330811,0.71775603294373,0.23883733153343,0.72620964050293,0.38760977983475,-0.28663811087608
392,3662645361,0.002019,-0.695731,-0.057285,-0.716012,9.81573867797852,0.71846413612366,0.24889336526394,1.27325856685638,0.56523388624191,-0.40617260336876
393,3662662028,0.002056,-0.695723,-0.057371,-0.716013,9.83992862701416,0.76507461071014,0.22269459068775,1.46009039878845,0.68001723289490,-0.31481209397316
394,3662678695,0.002084,-0.695723,-0.057406,-0.716009,9.83394622802734,0.77821493148804,0.20250856876373,1.21858811378479,0.61424374580383,-0.11137041449547
395,3662695362,0.002104,-0.695718,-0.057415,-0.716014,9.81541633605957,0.78266537189484,0.23448581993580,1.11348652839661,0.69188863039017,-0.02368534170091
396,3662712029,0.002099,-0.695730,-0.057397,-0.716004,9.79379177093506,0.75667226314545,0.26292356848717,0.90219444036484,0.52420228719711,-0.01090460643172
397,3662728696,0.002112,-0.695757,-0.057371,-0.715980,9.79142475128174,0.75727522373199,0.22536188364029,0.79699027538300,0.37627613544464,0.12187802046537
398,3662745363,0.002105,-0.695760,-0.057322,-0.715980,9.77820110321045,0.72778439521790,0.24866369366646,0.69958525896072,0.61521708965302,0.11788245290518
399,3662762030,0.002099,-0.695753,-0.057292,-0.715990,9.78523063659668,0.73530316352844,0.25420200824738,0.67183393239975,0.69874012470245,0.02986440621316
400,3662778697,0.002073,-0.695750,-0.057267,-0.715995,9.78977394104004,0.73123252391815,0.26998898386955,0.68852055072784,0.65555703639984,-0.08579613268375
401,3662795364,0.002059,-0.695741,-0.057261,-0.716003,9.80615329742432,0.74198758602142,0.23883819580078,0.74248653650284,0.69797170162201,-0.12251196056604
402,3662812031,0.002054,-0.695732,-0.057279,-0.716011,9.80561828613281,0.74331462383270,0.22222647070885,1.03219187259674,0.71162325143814,-0.19160220026970
403,3662828698,0.002070,-0.695740,-0.057307,-0.716001,9.80562210083008,0.74830299615860,0.23248153924942,1.18295454978943,0.54809260368347,-0.13063755631447
404,3662845365,0.002110,-0.695755,-0.057344,-0.715983,9.80345439910889,0.74792408943176,0.23378282785416,1.26374351978302,0.47597357630730,-0.05408761650324
405,3662862032,0.002158,-0.695777,-0.057364,-0.715960,9.79490661621094,0.75763285160065,0.23477403819561,1.11650884151459,0.41286394000053,0.06800171732903
406,3662878699,0.002164,-0.695789,-0.057349,-0.715950,9.78849887847900,0.76585501432419,0.23015353083611,0.83999407291412,0.52347230911255,0.02697017043829
407,3662895366,0.002145,-0.695803,-0.057313,-0.715939,9.78627300262451,0.74949079751968,0.25331348180771,0.64056074619293,0.49117469787598,0.00274055893533
408,3662912033,0.002093,-0.695803,-0.057245,-0.715945,9.78907012939453,0.73532867431641,0.24430146813393,0.38431853055954,0.64335256814957,-0.01017464511096
409,3662928700,0.002061,-0.695800,-0.057200,-0.715952,9.80664730072021,0.74228787422180,0.25786247849464,0.48491242527962,0.65321350097656,-0.02223822660744
410,3662945367,0.002049,-0.695805,-0.057175,-0.715949,9.80291938781738,0.73415607213974,0.24154680967331,0.76117098331451,0.58537822961807,-0.01887015625834
411,3662962034,0.002081,-0.695811,-0.057210,-0.715940,9.80580425262451,0.72899478673935,0.23239423334599,1.12530672550201,0.55479669570923,-0.08245369046926
412,3662978701,0.002121,-0.695830,-0.057247,-0.715918,9.80824947357178,0.74291318655014,0.25125688314438,1.26101577281952,0.43457069993019,-0.05566280335188
413,3662995368,0.002182,-0.695845,-0.057292,-0.715900,9.81450843811035,0.75142610073090,0.25438094139099,1.39317727088928,0.48725605010986,0.01243496593088
414,3663012035,0.002221,-0.695859,-0.057307,-0.715885,9.80350112915039,0.76883232593536,0.23689332604408,1.20523118972778,0.50366097688675,0.04921480640769
415,3663028702,0.002245,-0.695863,-0.057282,-0.715883,9.80513858795166,0.78796464204788,0.27108660340309,0.91238832473755,0.60398590564728,0.15954148769379
416,3663045369,0.002244,-0.695857,-0.057225,-0.715893,9.80740356445312,0.77781534194946,0.24395951628685,0.72585099935532,0.71304470300674,0.18523102998734
417,3663062036,0.002263,-0.695856,-0.057165,-0.715899,9.78697776794434,0.76428288221359,0.26234549283981,0.69687026739120,0.66964399814606,0.30155107378960
418,3663078703,0.002291,-0.695853,-0.057118,-0.715905,9.78442001342773,0.74683195352554,0.27050918340683,0.72229099273682,0.66925990581512,0.28106099367142
419,3663095370,0.002330,-0.695839,-0.057089,-0.715921,9.79397583007812,0.73794806003571,0.23157104849815,0.91614073514938,0.78356939554214,0.24160461127758
420,3663112037,0.002356,-0.695817,-0.057077,-0.715944,9.78562259674072,0.72527664899826,0.24295924603939,0.91457825899124,0.84971404075623,0.09509994089603
421,3663128704,0.002359,-0.695788,-0.057055,-0.715974,9.79787445068359,0.73919272422791,0.26427069306374,0.71488887071609,0.90506315231323,0.03256654739380
422,3663145371,0.002317,-0.695786,-0.056994,-0.715981,9.84281063079834,0.72058749198914,0.23513564467430,0.44427791237831,0.65632539987564,0.00393154937774
423,3663162038,0.002302,-0.695794,-0.056967,-0.715975,9.82284545898438,0.70856153964996,0.21575471758842,0.69314366579056,0.54712563753128,-0.02097039669752
424,3663178705,0.002289,-0.695800,-0.056958,-0.715970,9.78047943115234,0.72263628244400,0.24327585101128,0.80221545696259,0.56479847431183,-0.10116375982761
425,3663195372,0.002306,-0.695813,-0.056968,-0.715956,9.77335548400879,0.72933912277222,0.23537464439869,1.04034936428070,0.50513362884521,-0.03507018834352
426,3663212039,0.002356,-0.695817,-0.057029,-0.715947,9.80666923522949,0.73600494861603,0.23496890068054,1.43876779079437,0.57821953296661,-0.12504760921001
427,3663228706,0.002393,-0.695845,-0.057098,-0.715915,9.83959865570068,0.74886584281921,0.25228077173233,1.62790477275848,0.36796483397484,-0.21247653663158
428,3663245373,0.002424,-0.695866,-0.057139,-0.715891,9.80885982513428,0.74907249212265,0.27884769439697,1.30325090885162,0.41853711009026,-0.11414939165115
429,3663262040,0.002398,-0.695847,-0.057116,-0.715911,9.81924152374268,0.76934474706650,0.22431872785091,0.64940994977951,0.80381608009338,-0.10948788374662
430,3663278707,0.002331,-0.695807,-0.057056,-0.715955,9.81229209899902,0.78662455081940,0.25480487942696,0.36933511495590,1.01652956008911,-0.13526706397533
431,3663295374,0.002239,-0.695773,-0.056931,-0.715999,9.80573654174805,0.77646690607071,0.26353663206100,-0.17542779445648,0.96741735935211,0.05358177050948
432,3663312041,0.002146,-0.695759,-0.056802,-0.716023,9.78270435333252,0.73669868707657,0.23223890364170,-0.16368436813354,0.77582150697708,0.07003793120384
433,3663328708,0.002087,-0.695776,-0.056746,-0.716011,9.76538085937500,0.69491755962372,0.25702571868896,0.48482277989388,0.47345075011253,-0.08737131208181
434,3663345375,0.002121,-0.695806,-0.056827,-0.715975,9.76971244812012,0.70351582765579,0.24253509938717,1.39695513248444,0.31016981601715,-0.28936588764191
435,3663362042,0.002188,-0.695795,-0.056945,-0.715976,9.76736354827881,0.72407597303391,0.21650189161301,1.81875753402710,0.70607799291611,-0.31663054227829
436,3663378709,0.002237,-0.695758,-0.057051,-0.716003,9.77622890472412,0.75435739755630,0.22950714826584,1.64135146141052,0.95056402683258,-0.36547401547432
437,3663395376,0.002255,-0.695741,-0.057138,-0.716013,9.78850746154785,0.78186625242233,0.21933989226818,1.29748809337616,0.75516480207443,-0.41695553064346
438,3663412043,0.002258,-0.695754,-0.057184,-0.715997,9.84038925170898,0.76551544666290,0.21235820651054,1.11182177066803,0.47710055112839,-0.27928727865219
439,3663428710,0.002278,-0.695775,-0.057191,-0.715976,9.85310173034668,0.74798572063446,0.23238286375999,1.00257062911987,0.42824432253838,-0.00614064466208
440,3663445377,0.002302,-0.695811,-0.057183,-0.715941,9.81555080413818,0.71882909536362,0.25499439239502,0.96207696199417,0.28731045126915,0.08977250754833
441,3663462044,0.002298,-0.695839,-0.057176,-0.715914,9.78453826904297,0.73730915784836,0.23963828384876,0.84441232681274,0.35098364949226,-0.05066833272576
442,3663478711,0.002283,-0.695856,-0.057164,-0.715899,9.80234050750732,0.77089625597000,0.25984764099121,0.76123511791229,0.46174576878548,-0.08596263080835
443,3663495378,0.002304,-0.695906,-0.057164,-0.715850,9.80913734436035,0.73203366994858,0.25981622934341,1.00181508064270,0.14847680926323,0.04019912704825
444,3663512045,0.002376,-0.695947,-0.057221,-0.715806,9.77593994140625,0.70891600847244,0.25096502900124,1.52166318893433,0.24023430049419,0.01733979582787
445,3663528712,0.002467,-0.695954,-0.057348,-0.715789,9.82291507720947,0.74949556589127,0.23564672470093,1.92488396167755,0.53741848468781,-0.23550236225128
446,3663545379,0.002602,-0.695940,-0.057491,-0.715791,9.86417484283447,0.80876803398132,0.22044818103313,2.08305525779724,0.73642921447754,-0.11098624020815
447,3663562046,0.002694,-0.695912,-0.057518,-0.715815,9.84794902801514,0.81319600343704,0.23105645179749,1.49788200855255,0.91788226366043,0.23381835222244
448,3663578713,0.002760,-0.695891,-0.057461,-0.715839,9.82200431823730,0.79000794887543,0.26384538412094,0.93925613164902,0.86912864446640,0.51275348663330
449,3663595380,0.002809,-0.695885,-0.057391,-0.715851,9.77702903747559,0.72982037067413,0.26450046896935,0.75757247209549,0.73221582174301,0.49572098255157
450,3663612047,0.002855,-0.695894,-0.057332,-0.715846,9.77879142761230,0.71516531705856,0.26324141025543,0.81407403945923,0.56870436668396,0.42692527174950
451,3663628714,0.002934,-0.695888,-0.057321,-0.715853,9.77567577362061,0.72419494390488,0.23761917650700,1.15951251983643,0.71437668800354,0.35885953903198
452,3663645381,0.003032,-0.695876,-0.057340,-0.715863,9.78827095031738,0.72366565465927,0.24065172672272,1.52870655059814,0.77059638500214,0.31381958723068
453,3663662048,0.003120,-0.695864,-0.057379,-0.715871,9.80671215057373,0.72607868909836,0.25220039486885,1.62043881416321,0.76871401071548,0.16476650536060
454,3663678715,0.003234,-0.695855,-0.057447,-0.715873,9.83379077911377,0.74055826663971,0.26539382338524,1.64479649066925,0.70802468061447,0.14398178458214
455,3663695382,0.003345,-0.695822,-0.057509,-0.715901,9.82822799682617,0.75971788167953,0.25223231315613,1.45012712478638,0.93933296203613,0.15274132788181
456,3663712049,0.003418,-0.695790,-0.057521,-0.715930,9.81402301788330,0.74886435270309,0.22263292968273,1.31869542598724,0.95042330026627,0.20700185000896
457,3663728716,0.003484,-0.695756,-0.057521,-0.715963,9.79740619659424,0.73167335987091,0.24562218785286,1.23641479015350,0.97731661796570,0.23480443656445
458,3663745383,0.003532,-0.695721,-0.057514,-0.715998,9.78664398193359,0.73819655179977,0.25758761167526,1.07547736167908,0.98017239570618,0.17814913392067
459,3663762050,0.003601,-0.695693,-0.057521,-0.716024,9.75675487518311,0.72955828905106,0.23888534307480,1.13299059867859,0.90009438991547,0.20870508253574
460,3663778717,0.003639,-0.695675,-0.057518,-0.716041,9.77264118194580,0.71568810939789,0.25891438126564,1.09158766269684,0.81376665830612,0.11292640119791
461,3663795384,0.003679,-0.695652,-0.057486,-0.716066,9.77621459960938,0.71705090999603,0.24174241721630,0.91478323936462,0.86970478296280,0.26309365034103
462,3663812051,0.003704,-0.695631,-0.057463,-0.716087,9.79263877868652,0.71046406030655,0.24619220197201,0.85137885808945,0.83622896671295,0.14473733305931
463,3663828718,0.003747,-0.695624,-0.057461,-0.716095,9.80931282043457,0.71289485692978,0.22823643684387,0.89872407913208,0.69840711355209,0.13583694398403
464,3663845385,0.003710,-0.695617,-0.057414,-0.716105,9.80374526977539,0.71759480237961,0.23190420866013,0.95402181148529,0.73454654216766,-0.02955065295100
465,3663862052,0.003721,-0.695604,-0.057423,-0.716117,9.80638408660889,0.71460819244385,0.27573189139366,1.09580087661743,0.75682967901230,-0.07661398500204
466,3663878719,0.003750,-0.695587,-0.057463,-0.716131,9.79937934875488,0.71897000074387,0.24410267174244,1.22672021389008,0.78340280056000,-0.13406325876713
467,3663895386,0.003792,-0.695575,-0.057499,-0.716139,9.81129074096680,0.72519785165787,0.22440560162067,1.33860945701599,0.73945146799088,-0.04867053776979
468,3663912053,0.003839,-0.695561,-0.057526,-0.716150,9.79883098602295,0.73971283435822,0.26259484887123,1.28295302391052,0.77270954847336,0.01272951252759
469,3663928720,0.003861,-0.695544,-0.057525,-0.716167,9.80508995056152,0.76554828882217,0.26880061626434,1.01829695701599,0.79369914531708,0.02763610146940
470,3663945387,0.003845,-0.695513,-0.057480,-0.716201,9.81216526031494,0.74644911289215,0.25688877701759,0.78267288208008,0.95343285799026,0.04941970482469
471,3663962054,0.003841,-0.695473,-0.057435,-0.716243,9.79886150360107,0.73066973686218,0.27534234523773,0.67068135738373,1.02183151245117,0.09881379455328
472,3663978721,0.003819,-0.695435,-0.057391,-0.716283,9.79109954833984,0.73064279556274,0.28386732935905,0.62550061941147,1.00497829914093,0.00910531543195
473,3663995388,0.003822,-0.695405,-0.057358,-0.716315,9.83089733123779,0.72649872303009,0.28761145472527,0.68049103021622,0.91842013597488,0.07626181095839
474,3664012055,0.003853,-0.695375,-0.057348,-0.716345,9.80760002136230,0.72603154182434,0.25507730245590,0.99950993061066,0.92702615261078,0.11231169849634
475,3664028722,0.003910,-0.695325,-0.057374,-0.716391,9.75899600982666,0.75675928592682,0.26208958029747,1.36701381206512,1.12259185314178,0.05228832736611
476,3664045389,0.003975,-0.695296,-0.057385,-0.716418,9.75150585174561,0.75497347116470,0.25493961572647,1.38312411308289,0.92825537919998,0.18395040929317
477,3664062056,0.004066,-0.695262,-0.057381,-0.716451,9.80198287963867,0.74220710992813,0.26641851663589,1.57356727123260,1.00975501537323,0.37695488333702
478,3664078723,0.004142,-0.695220,-0.057384,-0.716491,9.85762977600098,0.74335795640945,0.27096903324127,1.22518360614777,1.05006957054138,0.26022502779961
479,3664095390,0.004126,-0.695182,-0.057282,-0.716536,9.84586143493652,0.71343553066254,0.28946337103844,0.48639795184135,1.04301309585571,0.31420379877090
480,3664112057,0.004043,-0.695132,-0.057119,-0.716598,9.80918979644775,0.69414043426514,0.30401992797852,-0.25404596328735,1.14660370349884,0.27543899416924
481,3664128724,0.003977,-0.695074,-0.056998,-0.716664,9.77709674835205,0.69390571117401,0.26615145802498,-0.13087449967861,1.19110584259033,0.14215049147606
482,3664145391,0.003935,-0.695034,-0.056912,-0.716710,9.73669242858887,0.69977235794067,0.26605424284935,0.27246791124344,1.02697956562042,0.10890519618988
483,3664162058,0.003920,-0.695004,-0.056854,-0.716744,9.71809196472168,0.67945742607117,0.23802533745766,0.49825665354729,0.92838346958160,0.11334899067879
484,3664178725,0.003913,-0.694987,-0.056875,-0.716759,9.71829128265381,0.67712539434433,0.25256851315498,1.21708989143372,0.79508233070374,-0.22218377888203
485,3664195392,0.003922,-0.694978,-0.056996,-0.716758,9.74588680267334,0.68824297189713,0.24292737245560,1.53809380531311,0.66455996036530,-0.61673462390900
486,3664212059,0.003915,-0.694971,-0.057079,-0.716758,9.78831005096436,0.71056079864502,0.26708233356476,1.28098070621490,0.64975571632385,-0.50741958618164
487,3664228726,0.003843,-0.694959,-0.057063,-0.716772,9.80934429168701,0.72512090206146,0.27911326289177,0.63911372423172,0.73915690183640,-0.36163207888603
488,3664245393,0.003723,-0.694959,-0.056997,-0.716777,9.83619689941406,0.72143185138702,0.25575962662697,-0.00770301930606,0.60125815868378,-0.35574123263359
489,3664262060,0.003595,-0.695003,-0.056947,-0.716739,9.81315612792969,0.70776361227036,0.24128670990467,0.05313354358077,0.17923766374588,-0.45414516329765
490,3664278727,0.003532,-0.695058,-0.056937,-0.716687,9.82352352142334,0.69179224967957,0.22627021372318,0.55688410997391,0.07713264226913,-0.32108721137047
491,3664295394,0.003530,-0.695114,-0.057002,-0.716628,9.82492637634277,0.70203709602356,0.26804643869400,1.23004996776581,0.06377562135458,-0.37492510676384
492,3664312061,0.003582,-0.695149,-0.057118,-0.716584,9.78378200531006,0.74805223941803,0.29216352105141,1.70617711544037,0.25082513689995,-0.36087650060654
493,3664328728,0.003573,-0.695188,-0.057150,-0.716544,9.79522895812988,0.77447384595871,0.31374326348305,1.43698763847351,0.27637380361557,-0.25659438967705
494,3664345395,0.003580,-0.695239,-0.057173,-0.716492,9.78820800781250,0.77377909421921,0.30730581283569,1.06118535995483,0.12233906984329,-0.13332051038742
495,3664362062,0.003536,-0.695260,-0.057163,-0.716473,9.79192256927490,0.74064582586288,0.30636385083199,0.70172393321991,0.41621920466423,-0.24235379695892
496,3664378729,0.003459,-0.695229,-0.057161,-0.716503,9.81898117065430,0.73706007003784,0.25956055521965,0.49387690424919,0.89250016212463,-0.45830723643303
497,3664395396,0.003402,-0.695186,-0.057144,-0.716547,9.84444904327393,0.77008861303329,0.25056809186935,0.49377438426018,1.02284312248230,-0.29953408241272
498,3664412063,0.003368,-0.695133,-0.057107,-0.716602,9.84309482574463,0.74981993436813,0.24019798636436,0.36518585681915,1.11808395385742,-0.09468374401331
499,3664428730,0.003386,-0.695095,-0.057071,-0.716641,9.81928730010986,0.73024696111679,0.23315991461277,0.59792834520340,0.98699808120728,0.16159050166607
500,3664445397,0.003446,-0.695103,-0.057063,-0.716634,9.77023410797119,0.71903556585312,0.27029037475586,1.09559595584869,0.57049721479416,0.25775337219238
501,3664462064,0.003485,-0.695121,-0.057068,-0.716615,9.76910877227783,0.71155488491058,0.26173701882362,1.26321840286255,0.46832826733589,0.09872414916754
502,3664478731,0.003532,-0.695125,-0.057078,-0.716611,9.76536369323730,0.71021103858948,0.26845777034760,1.18449771404266,0.60319191217422,0.10451262444258
503,3664495398,0.003546,-0.695119,-0.057072,-0.716617,9.76957607269287,0.74105572700500,0.25064259767532,0.89387041330338,0.68357723951340,0.01571338996291
504,3664512065,0.003522,-0.695120,-0.057033,-0.716619,9.78146266937256,0.71259582042694,0.28267517685890,0.59266501665115,0.61907172203064,-0.01438793353736
505,3664528732,0.003473,-0.695126,-0.056998,-0.716616,9.81642055511475,0.71681141853333,0.27315428853035,0.50191920995712,0.56338971853256,-0.15131342411041
506,3664545399,0.003431,-0.695146,-0.056960,-0.716601,9.81216526031494,0.70203453302383,0.27536082267761,0.65632539987564,0.45151349902153,-0.09218651056290
507,3664562066,0.003435,-0.695168,-0.056977,-0.716577,9.79960346221924,0.71988058090210,0.27369359135628,1.02049958705902,0.40305423736572,-0.13296192884445
508,3664578733,0.003465,-0.695207,-0.057005,-0.716537,9.79943370819092,0.71768611669540,0.26942247152328,1.20465505123138,0.25446218252182,-0.04686483740807
509,3664595400,0.003494,-0.695245,-0.057047,-0.716497,9.80088520050049,0.74451321363449,0.26995855569839,1.28253030776978,0.25213140249252,-0.12158988416195
510,3664612067,0.003505,-0.695275,-0.057069,-0.716466,9.79405975341797,0.75484418869019,0.27567014098167,1.09289383888245,0.33206865191460,-0.11713327467442
511,3664628734,0.003495,-0.695283,-0.057063,-0.716459,9.77854347229004,0.73843473196030,0.26954418420792,0.83174681663513,0.55244028568268,-0.09821829199791
512,3664645401,0.003475,-0.695280,-0.057040,-0.716463,9.79091930389404,0.72614693641663,0.23683373630047,0.74100095033646,0.64989662170410,-0.06967294216156
513,3664662068,0.003466,-0.695271,-0.057012,-0.716475,9.79303550720215,0.73792403936386,0.25537660717964,0.62747275829315,0.71783429384232,0.00560918124393
514,3664678735,0.003475,-0.695278,-0.056991,-0.716470,9.81433200836182,0.73553460836411,0.24578888714314,0.82635533809662,0.56500339508057,0.06999950855970
515,3664695402,0.003530,-0.695292,-0.056996,-0.716456,9.81713199615479,0.74277192354202,0.25323489308357,1.01486468315125,0.49392807483673,0.17163069546223
516,3664712069,0.003568,-0.695309,-0.057000,-0.716439,9.81362152099609,0.70090258121490,0.27993643283844,1.09134423732758,0.47095349431038,0.09333267807961
517,3664728736,0.003601,-0.695315,-0.057003,-0.716433,9.80146598815918,0.71639025211334,0.25318560004234,1.05889296531677,0.57661867141724,0.06828346103430
518,3664745403,0.003601,-0.695319,-0.056988,-0.716430,9.77677917480469,0.73133254051208,0.29205164313316,0.88518768548965,0.59403532743454,-0.00313115259632
519,3664762070,0.003571,-0.695328,-0.056934,-0.716425,9.81472969055176,0.72208315134048,0.28068220615387,0.50519764423370,0.54653656482697,0.03359105437994
520,3664778737,0.003553,-0.695348,-0.056896,-0.716409,9.82183551788330,0.71938627958298,0.25035953521729,0.66348415613174,0.44230568408966,0.02367893978953
521,3664795404,0.003585,-0.695352,-0.056905,-0.716404,9.78283214569092,0.73024916648865,0.26317277550697,1.20465505123138,0.60086113214493,0.03713841736317
522,3664812071,0.003647,-0.695382,-0.056920,-0.716373,9.75996971130371,0.71986323595047,0.26778328418732,1.25539374351501,0.35248196125031,0.16620081663132
523,3664828738,0.003765,-0.695412,-0.057012,-0.716337,9.79006671905518,0.70418721437454,0.25415325164795,1.85773992538452,0.33694782853127,0.07808030396700
524,3664845405,0.003852,-0.695414,-0.057094,-0.716327,9.84872913360596,0.72752767801285,0.28044775128365,1.61347210407257,0.58855432271957,-0.04964382201433
525,3664862072,0.003879,-0.695445,-0.057087,-0.716298,9.85420894622803,0.73143130540848,0.28460040688515,1.07182729244232,0.34853762388229,0.09864731878042
526,3664878739,0.003840,-0.695450,-0.056991,-0.716301,9.82434940338135,0.75493377447128,0.27788561582565,0.25435972213745,0.59854316711426,0.19548891484737
527,3664895406,0.003777,-0.695416,-0.056885,-0.716342,9.81312465667725,0.73025250434875,0.26024773716927,-0.06040115281940,0.95635253190994,0.09996636211872
528,3664912073,0.003705,-0.695404,-0.056786,-0.716362,9.80691528320312,0.72912430763245,0.27466702461243,0.17008112370968,0.76364266872406,0.03014614805579
529,3664928740,0.003660,-0.695396,-0.056700,-0.716377,9.81260204315186,0.70726984739304,0.25152534246445,0.25894439220428,0.71707880496979,0.11251660436392
530,3664945407,0.003654,-0.695411,-0.056698,-0.716363,9.82631015777588,0.68369179964066,0.25627741217613,0.87335467338562,0.48114734888077,-0.09843600541353
531,3664962074,0.003716,-0.695445,-0.056812,-0.716320,9.80212306976318,0.68898832798004,0.26865088939667,1.74915540218353,0.26849794387817,-0.30194172263145
532,3664978741,0.003808,-0.695485,-0.056956,-0.716269,9.78638744354248,0.71042448282242,0.27247348427773,2.11069154739380,0.21750305593014,-0.29616606235504
533,3664995408,0.003924,-0.695486,-0.057092,-0.716258,9.79101181030273,0.76004940271378,0.25011602044106,1.97071790695190,0.59335654973984,-0.16377401351929
534,3665012075,0.003959,-0.695457,-0.057160,-0.716280,9.79430294036865,0.77285301685333,0.24371445178986,1.43189084529877,0.89074575901031,-0.24013827741146
535,3665028742,0.003943,-0.695449,-0.057159,-0.716288,9.81704425811768,0.74373877048492,0.23174461722374,0.81048828363419,0.68732964992523,-0.16072610020638
536,3665045409,0.003880,-0.695449,-0.057098,-0.716293,9.81315898895264,0.70621150732040,0.24429072439671,0.42729663848877,0.63500279188156,-0.09869213402271
537,3665062076,0.003851,-0.695450,-0.057060,-0.716295,9.84234142303467,0.67729789018631,0.25824150443077,0.55799823999405,0.62022435665131,-0.03659414499998
538,3665078743,0.003852,-0.695458,-0.057054,-0.716288,9.82133865356445,0.68080925941467,0.24102590978146,0.85102033615112,0.54441064596176,-0.04590435698628
539,3665095410,0.003893,-0.695468,-0.057100,-0.716275,9.78974151611328,0.72406965494156,0.25244539976120,1.26329517364502,0.52285766601562,-0.09324944019318
540,3665112077,0.003971,-0.695502,-0.057127,-0.716238,9.81013870239258,0.74545133113861,0.28591865301132,1.40790450572968,0.30708345770836,0.18966205418110
541,3665128744,0.004072,-0.695569,-0.057169,-0.716169,9.76897430419922,0.72242742776871,0.28873080015182,1.59481322765350,-0.00155597145204,0.24636855721474
542,3665145411,0.004143,-0.695599,-0.057219,-0.716136,9.77612876892090,0.72184556722641,0.24696464836597,1.46380400657654,0.34157091379166,0.03762505576015
543,3665162078,0.004154,-0.695600,-0.057232,-0.716134,9.83948898315430,0.75265300273895,0.24795094132423,1.21984326839447,0.63251841068268,-0.07754885405302
544,3665178745,0.004143,-0.695572,-0.057181,-0.716165,9.83915328979492,0.78132838010788,0.25421267747879,0.66482871770859,0.91202974319458,0.09800698608160
545,3665195412,0.004166,-0.695533,-0.057121,-0.716208,9.82259273529053,0.73623931407928,0.26841437816620,0.51791441440582,1.02002584934235,0.30123099684715
546,3665212079,0.004222,-0.695513,-0.057082,-0.716230,9.82036495208740,0.71475005149841,0.24337179958820,0.91245245933533,0.84270900487900,0.37066701054573
547,3665228746,0.004330,-0.695519,-0.057078,-0.716224,9.79683780670166,0.70663541555405,0.22946910560131,1.49620437622070,0.60944145917892,0.47592246532440
548,3665245413,0.004486,-0.695517,-0.057106,-0.716223,9.77437496185303,0.70674967765808,0.22516095638275,1.81463420391083,0.69868880510330,0.55958622694016
549,3665262080,0.004636,-0.695519,-0.057117,-0.716219,9.78046894073486,0.72195357084274,0.23610235750675,1.67162537574768,0.64786034822464,0.60504871606827
550,3665278747,0.004750,-0.695521,-0.057098,-0.716218,9.78023815155029,0.72007220983505,0.25641041994095,1.39034700393677,0.66029548645020,0.57052290439606
551,3665295414,0.004823,-0.695523,-0.057049,-0.716219,9.80567836761475,0.70373046398163,0.25732275843620,1.08258461952209,0.65419954061508,0.52019393444061
552,3665312081,0.004917,-0.695519,-0.057007,-0.716226,9.79853057861328,0.70811349153519,0.25741761922836,1.10539293289185,0.71199464797974,0.58176684379578
553,3665328748,0.005038,-0.695535,-0.056972,-0.716212,9.78389167785645,0.69235694408417,0.23711223900318,1.34119617938995,0.52421510219574,0.68977564573288
554,3665345415,0.005214,-0.695574,-0.056978,-0.716173,9.76878356933594,0.69748723506927,0.22515036165714,1.75664675235748,0.31203946471214,0.77364426851273
555,3665362082,0.005402,-0.695598,-0.056999,-0.716147,9.76592350006104,0.70394533872604,0.25357142090797,1.88919258117676,0.45252516865730,0.75803339481354
556,3665378749,0.005563,-0.695610,-0.056977,-0.716135,9.78672695159912,0.70717740058899,0.27530103921890,1.68108952045441,0.58358532190323,0.82087415456772
557,3665395416,0.005646,-0.695613,-0.056904,-0.716137,9.78332519531250,0.72587174177170,0.23785243928432,1.30551767349243,0.68452495336533,0.68946814537048
558,3665412083,0.005724,-0.695607,-0.056838,-0.716147,9.80833053588867,0.70250654220581,0.24981485307217,0.94875842332840,0.73139625787735,0.61401319503784
559,3665428750,0.005821,-0.695594,-0.056779,-0.716164,9.82219123840332,0.69119542837143,0.24619922041893,0.98106884956360,0.80408507585526,0.67310178279877
560,3665445417,0.005956,-0.695576,-0.056740,-0.716184,9.83098030090332,0.69456350803375,0.23719489574432,1.22928142547607,0.84949636459351,0.76589655876160
561,3665462084,0.006096,-0.695570,-0.056689,-0.716193,9.81219005584717,0.70107102394104,0.23664104938507,1.30426263809204,0.75060570240021,0.84657651185989
562,3665478751,0.006211,-0.695566,-0.056634,-0.716200,9.83575630187988,0.69436740875244,0.27406173944473,1.28221023082733,0.73613464832306,0.75008070468903
563,3665495418,0.006336,-0.695560,-0.056579,-0.716209,9.81519317626953,0.70290976762772,0.26648899912834,1.15501749515533,0.73489236831665,0.79714411497116
564,3665512085,0.006456,-0.695555,-0.056518,-0.716217,9.79765319824219,0.68690085411072,0.27118813991547,1.26875078678131,0.74723774194717,0.79988467693329
565,3665528752,0.006605,-0.695544,-0.056487,-0.716229,9.80100250244141,0.67399048805237,0.26181936264038,1.27634489536285,0.77423352003098,0.79544085264206
566,3665545419,0.006755,-0.695534,-0.056458,-0.716240,9.77943611145020,0.67806071043015,0.28953251242638,1.38902771472931,0.78104639053345,0.79651647806168
567,3665562086,0.006837,-0.695525,-0.056370,-0.716255,9.78927326202393,0.67088752985001,0.28767335414886,1.02385485172272,0.78919136524200,0.73847818374634
568,3665578753,0.006900,-0.695515,-0.056301,-0.716269,9.84041881561279,0.64322072267532,0.26401031017303,0.87161302566528,0.76493608951569,0.55795979499817
569,3665595420,0.007008,-0.695498,-0.056291,-0.716285,9.78843212127686,0.65812975168228,0.25222378969193,1.22140562534332,0.81488084793091,0.48780661821365
570,3665612087,0.007123,-0.695516,-0.056267,-0.716269,9.75007438659668,0.65881800651550,0.25735798478127,1.20656299591064,0.48870307207108,0.61070919036865
571,3665628754,0.007306,-0.695534,-0.056309,-0.716246,9.78160762786865,0.64993584156036,0.24276272952557,2.01291513442993,0.49902504682541,0.62836915254593
572,3665645421,0.007492,-0.695547,-0.056373,-0.716226,9.84571838378906,0.65416049957275,0.23370759189129,2.02714276313782,0.52317780256271,0.53581768274307
573,3665662088,0.007651,-0.695582,-0.056405,-0.716189,9.84274768829346,0.67246264219284,0.28085216879845,1.79875421524048,0.33416888117790,0.56510579586029
574,3665678755,0.007717,-0.695598,-0.056346,-0.716176,9.81368255615234,0.66538190841675,0.29540559649467,0.94746506214142,0.50916767120361,0.52969628572464
575,3665695422,0.007699,-0.695590,-0.056235,-0.716193,9.80453586578369,0.66880351305008,0.27838766574860,0.27528527379036,0.74500936269760,0.36220198869705
576,3665712089,0.007678,-0.695568,-0.056103,-0.716226,9.79470634460449,0.67217653989792,0.24732106924057,-0.04824791848660,0.87007611989975,0.43783625960350
577,3665728756,0.007596,-0.695564,-0.055925,-0.716244,9.77660465240479,0.66272664070129,0.24036334455013,-0.37543737888336,0.70788383483887,0.36309847235680
578,3665745423,0.007547,-0.695593,-0.055814,-0.716225,9.75075531005859,0.61490708589554,0.24561373889446,0.29189515113831,0.39056807756424,0.22732552886009
579,3665762090,0.007546,-0.695649,-0.055829,-0.716169,9.75702095031738,0.59173583984375,0.25995954871178,1.08371162414551,0.08375352621078,-0.13338452577591
580,3665778757,0.007603,-0.695702,-0.055943,-0.716108,9.76556205749512,0.60790431499481,0.26045581698418,1.67567253112793,0.07869502156973,-0.32235506176949
581,3665795424,0.007656,-0.695739,-0.056061,-0.716063,9.78850460052490,0.62267202138901,0.24026373028755,1.75550734996796,0.24289807677269,-0.36619120836258
582,3665812091,0.007695,-0.695771,-0.056187,-0.716021,9.83137893676758,0.66776680946350,0.25612044334412,1.73578560352325,0.27002188563347,-0.47124171257019
583,3665828758,0.007714,-0.695816,-0.056273,-0.715971,9.85459899902344,0.70249444246292,0.27320307493210,1.42210650444031,0.16471526026726,-0.38167399168015
584,3665845425,0.007710,-0.695894,-0.056286,-0.715894,9.87062740325928,0.71335834264755,0.28721374273300,0.93140590190887,-0.13800762593746,-0.12853094935417
585,3665862092,0.007682,-0.695953,-0.056240,-0.715840,9.84889316558838,0.70704841613770,0.29196870326996,0.55943256616592,0.06832187622786,0.02860938571393
586,3665878759,0.007588,-0.695966,-0.056122,-0.715838,9.81336688995361,0.70266395807266,0.28493431210518,-0.08296593278646,0.52296006679535,0.02923689782619
587,3665895426,0.007449,-0.695927,-0.055947,-0.715891,9.79111576080322,0.73427921533585,0.28004476428032,-0.61581259965897,1.02864456176758,0.05052105337381
588,3665912093,0.007304,-0.695861,-0.055759,-0.715971,9.80405235290527,0.68973207473755,0.27200892567635,-0.80799734592438,1.27895724773407,0.08397122472525
589,3665928760,0.007202,-0.695810,-0.055601,-0.716035,9.77584552764893,0.62017911672592,0.22281210124493,-0.36351466178894,1.15170061588287,0.15298464894295
590,3665945427,0.007135,-0.695756,-0.055540,-0.716092,9.78278446197510,0.58020329475403,0.20829744637012,0.49919152259827,1.15487670898438,-0.14338628947735
591,3665962094,0.007186,-0.695705,-0.055617,-0.716135,9.81556606292725,0.59735512733459,0.19511771202087,1.50135207176208,1.09738874435425,-0.21263019740582
592,3665978761,0.007287,-0.695684,-0.055713,-0.716147,9.79683685302734,0.62282162904739,0.17879331111908,1.67921972274780,0.80230498313904,-0.05896683782339
593,3665995428,0.007369,-0.695690,-0.055740,-0.716139,9.80726718902588,0.62658458948135,0.21144923567772,1.53566050529480,0.59132039546967,0.20125177502632
594,3666012095,0.007449,-0.695731,-0.055754,-0.716097,9.77772331237793,0.64748930931091,0.21880419552326,1.38560867309570,0.25434690713882,0.26679468154907
595,3666028762,0.007465,-0.695805,-0.055711,-0.716028,9.78237342834473,0.65208238363266,0.22302211821079,0.87516033649445,-0.05995292589068,0.23796758055687
596,3666045429,0.007480,-0.695887,-0.055665,-0.715952,9.78853321075439,0.64552330970764,0.24518477916718,0.77450245618820,-0.13381995260715,0.25229790806770
597,3666062096,0.007509,-0.695965,-0.055646,-0.715877,9.81534862518311,0.64772754907608,0.21610029041767,0.97834104299545,-0.10804076492786,0.18498770892620
598,3666078763,0.007552,-0.696033,-0.055673,-0.715809,9.82494354248047,0.64491623640060,0.28044661879539,1.28377258777618,-0.02085513994098,0.03293793275952
599,3666095430,0.007614,-0.696084,-0.055730,-0.715753,9.86645030975342,0.67266660928726,0.30043426156044,1.51144373416901,0.12580958008766,-0.02513245865703
600,3666112097,0.007690,-0.696112,-0.055810,-0.715720,9.87440013885498,0.68663048744202,0.30056530237198,1.49065923690796,0.33497568964958,-0.08222316950560
601,3666128764,0.007734,-0.696108,-0.055818,-0.715722,9.86620426177979,0.70691084861755,0.31972607970238,1.21862673759460,0.67750710248947,0.10330883413553
602,3666145431,0.007748,-0.696084,-0.055791,-0.715748,9.85133075714111,0.71920680999756,0.32467266917229,0.82931357622147,0.87185627222061,0.10533222556114
603,3666162098,0.007712,-0.696028,-0.055722,-0.715808,9.83311271667480,0.70166224241257,0.29606398940086,0.42032998800278,1.18029713630676,0.05200658738613
604,3666178765,0.007642,-0.695935,-0.055637,-0.715905,9.83719730377197,0.67626810073853,0.26529827713966,0.14463491737843,1.52180409431458,-0.05849299952388
605,3666195432,0.007537,-0.695819,-0.055550,-0.716026,9.83351707458496,0.65945124626160,0.26099509000778,0.09442122280598,1.75336873531342,-0.22725509107113
606,3666212099,0.007471,-0.695686,-0.055495,-0.716160,9.81147289276123,0.63356798887253,0.26467323303223,0.19665431976318,1.88626003265381,-0.20385786890984
607,3666228766,0.007458,-0.695571,-0.055471,-0.716274,9.79450988769531,0.60961741209030,0.20598442852497,0.49474775791168,1.71343851089478,-0.07959787547588
608,3666245433,0.007454,-0.695459,-0.055469,-0.716383,9.78303909301758,0.61469185352325,0.22619067132473,0.76864987611771,1.68604552745819,-0.13848145306110
609,3666262100,0.007473,-0.695368,-0.055503,-0.716469,9.77776813507080,0.62129372358322,0.20980021357536,0.89839112758636,1.47182106971741,-0.19235779345036
610,3666278767,0.007485,-0.695299,-0.055545,-0.716532,9.78942394256592,0.62666898965836,0.21195344626904,1.10498321056366,1.26105415821075,-0.24942287802696
611,3666295434,0.007494,-0.695268,-0.055571,-0.716560,9.79986858367920,0.64315134286880,0.20673890411854,1.05136287212372,0.91315668821335,-0.17691330611706
612,3666312101,0.007529,-0.695268,-0.055591,-0.716558,9.82930183410645,0.62745010852814,0.21931263804436,1.07951116561890,0.61615186929703,-0.00436056172475
613,3666328768,0.007574,-0.695298,-0.055600,-0.716528,9.80788993835449,0.62654900550842,0.23410291969776,1.15582430362701,0.34922918677330,0.11315690726042
614,3666345435,0.007634,-0.695331,-0.055605,-0.716494,9.79501914978027,0.66460818052292,0.25280925631523,1.09760665893555,0.30604615807533,0.20349289476871
615,3666362102,0.007669,-0.695351,-0.055613,-0.716475,9.79625320434570,0.66421544551849,0.25415396690369,0.97987782955170,0.43676054477692,0.06081735342741
616,3666378769,0.007672,-0.695345,-0.055607,-0.716481,9.81834697723389,0.66634660959244,0.26569661498070,0.89954358339310,0.68110561370850,-0.04098671674728
617,3666395436,0.007666,-0.695323,-0.055611,-0.716502,9.83450603485107,0.66927236318588,0.32009345293045,0.81180733442307,0.82228296995163,-0.13411450386047
618,3666412103,0.007656,-0.695300,-0.055589,-0.716526,9.88502883911133,0.64131361246109,0.30858427286148,0.58781141042709,0.83502519130707,-0.04039762914181
619,3666428770,0.007684,-0.695279,-0.055625,-0.716543,9.85765171051025,0.61570751667023,0.29322129487991,1.13820278644562,0.81034743785858,-0.12160269916058
620,3666445437,0.007695,-0.695230,-0.055653,-0.716589,9.79032135009766,0.66802042722702,0.31230849027634,1.23102307319641,1.10185825824738,-0.17957700788975
621,3666462104,0.007734,-0.695162,-0.055714,-0.716649,9.79339504241943,0.67459380626678,0.28134340047836,1.40965890884399,1.25618755817413,-0.20585565268993
622,3666478771,0.007800,-0.695053,-0.055857,-0.716744,9.84760379791260,0.68528527021408,0.24726213514805,1.85913634300232,1.63145220279694,-0.48600733280182
623,3666495438,0.007854,-0.694952,-0.055947,-0.716833,9.87510204315186,0.70902502536774,0.27048999071121,1.62673950195312,1.56386029720306,-0.28658691048622
624,3666512105,0.007915,-0.694866,-0.055967,-0.716915,9.85028266906738,0.66973859071732,0.30318653583527,1.15947413444519,1.45469892024994,0.08751858770847
625,3666528772,0.007903,-0.694782,-0.055864,-0.717004,9.82596397399902,0.66247934103012,0.29470679163933,0.36845147609711,1.46589171886444,0.31510025262833
626,3666545439,0.007860,-0.694659,-0.055739,-0.717134,9.82800960540771,0.68079942464828,0.28169330954552,-0.12812112271786,1.82581400871277,0.24736744165421
627,3666562106,0.007739,-0.694537,-0.055503,-0.717272,9.79156208038330,0.67582160234451,0.28062272071838,-1.03014922142029,1.83673799037933,0.39572903513908
628,3666578773,0.007637,-0.694428,-0.055305,-0.717393,9.77004528045654,0.61416459083557,0.26831576228142,-0.98919445276260,1.67800295352936,0.30325433611870
629,3666595440,0.007564,-0.694361,-0.055196,-0.717468,9.75129604339600,0.56690120697021,0.25105917453766,0.03631881251931,1.29201984405518,0.05417086556554
630,3666612107,0.007622,-0.694296,-0.055255,-0.717525,9.75505352020264,0.57838571071625,0.26272946596146,1.44180274009705,1.23179149627686,-0.10226510465145
631,3666628774,0.007770,-0.694210,-0.055406,-0.717595,9.77339267730713,0.63792324066162,0.28836667537689,2.30568099021912,1.42395102977753,-0.10774622857571
632,3666645441,0.007893,-0.694117,-0.055519,-0.717675,9.80514717102051,0.68633133172989,0.27905324101448,2.12298536300659,1.51778292655945,-0.04905471950769
633,3666662108,0.007942,-0.694029,-0.055563,-0.717756,9.83744144439697,0.69929498434067,0.28275910019875,1.42372024059296,1.46791505813599,-0.08326048403978
634,3666678775,0.007951,-0.693954,-0.055539,-0.717831,9.84964179992676,0.68509948253632,0.30016493797302,0.71057313680649,1.34706151485443,0.04548815637827
635,3666695442,0.007930,-0.693889,-0.055446,-0.717900,9.83815383911133,0.66542154550552,0.33772039413452,0.27455532550812,1.26658642292023,0.22717185318470
636,3666712109,0.007869,-0.693809,-0.055304,-0.717989,9.80885696411133,0.65257179737091,0.30438151955605,-0.06873808056116,1.42756223678589,0.26495057344437
637,3666728776,0.007846,-0.693719,-0.055186,-0.718085,9.80397605895996,0.64846080541611,0.31306332349777,0.14786210656166,1.52097177505493,0.33014771342278
638,3666745443,0.007866,-0.693628,-0.055100,-0.718180,9.77060222625732,0.65704339742661,0.32922625541687,0.54858565330505,1.53671085834503,0.38663652539253
639,3666762110,0.007918,-0.693563,-0.055021,-0.718248,9.76687145233154,0.65332472324371,0.32733500003815,0.74605953693390,1.29760336875916,0.52786493301392
640,3666778777,0.007968,-0.693488,-0.054970,-0.718324,9.78249740600586,0.63738209009171,0.31499385833740,0.82493370771408,1.37387800216675,0.38083520531654
641,3666795444,0.008012,-0.693380,-0.054955,-0.718429,9.82717418670654,0.65012526512146,0.30275902152061,0.97521620988846,1.66989672183990,0.15934941172600
642,3666812111,0.008051,-0.693267,-0.054901,-0.718542,9.85356807708740,0.65422660112381,0.31119352579117,0.75120764970779,1.73236608505249,0.32134974002838
643,3666828778,0.008084,-0.693161,-0.054791,-0.718652,9.85846900939941,0.64377570152283,0.33940440416336,0.45038646459579,1.68754386901855,0.56299275159836
644,3666845445,0.008150,-0.693084,-0.054702,-0.718732,9.82620429992676,0.60621011257172,0.32141116261482,0.72332817316055,1.41195118427277,0.63236463069916
645,3666862112,0.008225,-0.693043,-0.054643,-0.718775,9.81354808807373,0.60084909200668,0.33965158462524,1.03352367877960,1.06702494621277,0.55694818496704
646,3666878779,0.008344,-0.693008,-0.054652,-0.718807,9.77915287017822,0.61938315629959,0.32039314508438,1.45701694488525,0.99124997854233,0.45397230982780
647,3666895446,0.008484,-0.692958,-0.054682,-0.718851,9.77101421356201,0.65793919563293,0.34889149665833,1.67007601261139,1.12621605396271,0.44528958201408
648,3666912113,0.008591,-0.692920,-0.054677,-0.718887,9.78529167175293,0.66298168897629,0.35930237174034,1.40326869487762,1.02572464942932,0.45468947291374
649,3666928780,0.008642,-0.692877,-0.054637,-0.718931,9.79870891571045,0.64175957441330,0.36277925968170,0.93189233541489,1.06233775615692,0.34433707594872
650,3666945447,0.008645,-0.692831,-0.054545,-0.718983,9.81235504150391,0.63197284936905,0.38143208622932,0.51066601276398,1.10987508296967,0.35378822684288
651,3666962114,0.008614,-0.692773,-0.054450,-0.719045,9.81961154937744,0.60878139734268,0.37385162711143,0.31698280572891,1.20185029506683,0.20080357789993
652,3666978781,0.008592,-0.692725,-0.054389,-0.719097,9.82503509521484,0.61477935314178,0.34982085227966,0.47264391183853,1.10219120979309,0.08048790693283
653,3666995448,0.008596,-0.692686,-0.054350,-0.719137,9.81033802032471,0.62535917758942,0.39274507761002,0.73108881711960,1.01052343845367,0.10854661464691
654,3667012115,0.008611,-0.692639,-0.054348,-0.719183,9.79573535919189,0.62689411640167,0.36941230297089,0.94711929559708,1.08131694793701,-0.01915189810097
655,3667028782,0.008614,-0.692591,-0.054341,-0.719229,9.81059265136719,0.63296830654144,0.33504372835159,0.96314001083374,1.08389103412628,-0.04681361839175
656,3667045449,0.008643,-0.692510,-0.054346,-0.719307,9.81175613403320,0.63856530189514,0.37497004866600,1.02769684791565,1.40712344646454,0.00587811507285
657,3667062116,0.008654,-0.692427,-0.054315,-0.719389,9.80312252044678,0.64255225658417,0.34001094102859,0.75557458400726,1.42730605602264,0.08361266553402
658,3667078783,0.008655,-0.692359,-0.054268,-0.719457,9.77495765686035,0.62138485908508,0.34531742334366,0.68083679676056,1.28693556785583,0.12087914347649
659,3667095450,0.008662,-0.692297,-0.054243,-0.719519,9.77812290191650,0.60333192348480,0.32875692844391,0.77639776468277,1.23213732242584,0.04849764704704
660,3667112117,0.008677,-0.692243,-0.054218,-0.719573,9.79196262359619,0.61264437437057,0.33660742640495,0.83246392011642,1.15246891975403,0.09338389337063
661,3667128784,0.008708,-0.692190,-0.054196,-0.719625,9.81191539764404,0.63244950771332,0.32239070534706,0.90046566724777,1.14226233959198,0.15495681762695
662,3667145451,0.008734,-0.692145,-0.054165,-0.719671,9.81387233734131,0.61807262897491,0.30517321825027,0.84232491254807,1.07208359241486,0.17408952116966
663,3667162118,0.008776,-0.692124,-0.054107,-0.719694,9.79332351684570,0.62706279754639,0.35677227377892,0.80061459541321,0.85606616735458,0.39163097739220
664,3667178785,0.008814,-0.692095,-0.054038,-0.719727,9.79476070404053,0.63133895397186,0.36419114470482,0.71463280916214,0.93581128120422,0.42721986770630
665,3667195452,0.008849,-0.692069,-0.053964,-0.719757,9.81299114227295,0.63020235300064,0.33108606934547,0.67516350746155,0.91226023435593,0.43200939893723
666,3667212119,0.008868,-0.692035,-0.053886,-0.719795,9.81020545959473,0.61222928762436,0.34604674577713,0.60540735721588,0.98292583227158,0.37484186887741
667,3667228786,0.008900,-0.691996,-0.053799,-0.719839,9.78478813171387,0.61607158184052,0.36601245403290,0.63418328762054,1.04284667968750,0.47082549333572
668,3667245453,0.008908,-0.691962,-0.053694,-0.719879,9.80020523071289,0.62274891138077,0.36992895603180,0.40345123410225,0.98752319812775,0.44700562953949
669,3667262120,0.008942,-0.691935,-0.053577,-0.719914,9.79579925537109,0.60914117097855,0.36040273308754,0.44550728797913,0.94678634405136,0.63296663761139
670,3667278787,0.009003,-0.691882,-0.053515,-0.719968,9.78490734100342,0.62014019489288,0.34613341093063,0.89757138490677,1.16514730453491,0.50026720762253
671,3667295454,0.009064,-0.691841,-0.053442,-0.720012,9.78344821929932,0.63379472494125,0.36811822652817,0.81457346677780,1.06297802925110,0.54861116409302
672,3667312121,0.009199,-0.691801,-0.053408,-0.720052,9.80576992034912,0.60875290632248,0.36670693755150,1.34843170642853,1.06281173229218,0.73220300674438
673,3667328788,0.009310,-0.691758,-0.053365,-0.720095,9.85715198516846,0.64229029417038,0.35801312327385,1.18480503559113,1.07694995403290,0.65883553028107
674,3667345455,0.009387,-0.691721,-0.053279,-0.720136,9.89504814147949,0.63556939363480,0.38993674516678,0.81718599796295,1.03439450263977,0.69485974311829
675,3667362122,0.009438,-0.691673,-0.053104,-0.720194,9.86971282958984,0.61469751596451,0.39060565829277,0.25524333119392,1.17078208923340,0.97921186685562
676,3667378789,0.009455,-0.691591,-0.052879,-0.720289,9.83580017089844,0.59467077255249,0.39262577891350,-0.17404469847679,1.49993085861206,1.03716063499451
677,3667395456,0.009474,-0.691501,-0.052701,-0.720388,9.79412841796875,0.60504686832428,0.38359495997429,0.06656742095947,1.55364072322845,0.82210367918015
678,3667412123,0.009456,-0.691406,-0.052491,-0.720495,9.76929378509521,0.58427953720093,0.39794465899467,-0.25236833095551,1.60729944705963,0.79235452413559
679,3667428790,0.009440,-0.691313,-0.052313,-0.720598,9.76909160614014,0.57254570722580,0.39096876978874,-0.08925386518240,1.57797300815582,0.64590114355087
680,3667445457,0.009445,-0.691234,-0.052214,-0.720680,9.77108669281006,0.53100711107254,0.38233953714371,0.39743226766586,1.41193854808807,0.38456186652184
681,3667462124,0.009459,-0.691149,-0.052169,-0.720765,9.79765033721924,0.54175966978073,0.39494073390961,0.71254527568817,1.45346951484680,0.16525314748287
682,3667478791,0.009503,-0.691050,-0.052148,-0.720861,9.81999588012695,0.57499754428864,0.38783818483353,0.99155712127686,1.58370995521545,0.19578346610069
683,3667495458,0.009543,-0.690960,-0.052120,-0.720949,9.80624008178711,0.58747893571854,0.40004694461823,0.94239377975464,1.50623166561127,0.21720851957798
684,3667512125,0.009580,-0.690895,-0.052100,-0.721011,9.81104183197021,0.56988620758057,0.37615492939949,0.95499515533447,1.25152623653412,0.16585505008698
685,3667528792,0.009623,-0.690854,-0.052082,-0.721052,9.80802536010742,0.58327645063400,0.38229835033417,0.99628287553787,1.03859508037567,0.20359535515308
686,3667545459,0.009655,-0.690817,-0.052069,-0.721088,9.79981899261475,0.57186192274094,0.38816714286804,0.96265339851379,0.98647314310074,0.12902398407459
687,3667562126,0.009699,-0.690793,-0.052045,-0.721112,9.74087905883789,0.55519467592239,0.41794490814209,0.97872525453568,0.86980724334717,0.24257785081863
688,3667578793,0.009760,-0.690754,-0.052036,-0.721150,9.73635578155518,0.58593058586121,0.43099832534790,1.12795758247375,1.01900112628937,0.24890421330929
689,3667595460,0.009813,-0.690750,-0.052012,-0.721154,9.75093364715576,0.57169473171234,0.41736078262329,1.02188277244568,0.67698204517365,0.29522478580475
690,3667612127,0.009810,-0.690742,-0.052000,-0.721163,9.75306224822998,0.54113560914993,0.42000877857208,0.81006562709808,0.70472055673599,-0.04258751496673
691,3667628794,0.009802,-0.690696,-0.052028,-0.721204,9.79174804687500,0.55199891328812,0.39441749453545,0.98649877309799,1.04139959812164,-0.27627778053284
692,3667645461,0.009771,-0.690662,-0.052059,-0.721235,9.80977058410645,0.56459671258926,0.39825809001923,0.89515107870102,0.92374765872955,-0.39081776142120
693,3667662128,0.009756,-0.690633,-0.052047,-0.721264,9.83100318908691,0.56727498769760,0.39329418540001,0.75585633516312,0.89632916450500,-0.11169057339430
694,3667678795,0.009754,-0.690613,-0.052038,-0.721284,9.81039237976074,0.57572293281555,0.38924470543861,0.82988989353180,0.81979840993881,-0.05202579870820
695,3667695462,0.009760,-0.690632,-0.052044,-0.721266,9.79167842864990,0.58090341091156,0.42172005772591,0.95846563577652,0.44116592407227,-0.06954488158226
696,3667712129,0.009751,-0.690652,-0.052054,-0.721245,9.80256843566895,0.57942956686020,0.42838406562805,0.90487104654312,0.41746139526367,-0.16673225164413
697,3667728796,0.009720,-0.690658,-0.052050,-0.721241,9.79255580902100,0.58310788869858,0.40583711862564,0.72358435392380,0.56593823432922,-0.20892921090126
698,3667745463,0.009675,-0.690654,-0.052026,-0.721247,9.80850124359131,0.58892548084259,0.41210931539536,0.55611574649811,0.65471184253693,-0.19732664525509
699,3667762130,0.009634,-0.690637,-0.052018,-0.721264,9.81791782379150,0.58688509464264,0.41140612959862,0.66020572185516,0.76729243993759,-0.24902586638927
700,3667778797,0.009604,-0.690618,-0.052023,-0.721282,9.82527923583984,0.57918304204941,0.40772384405136,0.76776629686356,0.79227769374847,-0.26198589801788
701,3667795464,0.009579,-0.690605,-0.052055,-0.721293,9.82604598999023,0.59453672170639,0.39067223668098,0.93171328306198,0.72751593589783,-0.35480633378029
702,3667812131,0.009565,-0.690595,-0.052110,-0.721299,9.81851291656494,0.58543193340302,0.41507580876350,1.09355986118317,0.68539589643478,-0.41347223520279
703,3667828798,0.009572,-0.690586,-0.052153,-0.721304,9.80342006683350,0.60575807094574,0.38927707076073,1.13132560253143,0.68785464763641,-0.25487834215164
704,3667845465,0.009560,-0.690579,-0.052138,-0.721312,9.79711627960205,0.58496433496475,0.39651012420654,0.76448786258698,0.69327181577682,-0.07617857307196
705,3667862132,0.009521,-0.690572,-0.052100,-0.721323,9.79516601562500,0.57925772666931,0.40664669871330,0.51425182819366,0.69897055625916,-0.09047045558691
706,3667878799,0.009477,-0.690575,-0.052036,-0.721324,9.78372383117676,0.55954444408417,0.41731476783752,0.36755508184433,0.59695523977280,0.00385471130721
707,3667895466,0.009415,-0.690590,-0.052022,-0.721312,9.78049468994141,0.54081910848618,0.42376625537872,0.52582865953445,0.46910935640335,-0.31584939360619
708,3667912133,0.009383,-0.690610,-0.052081,-0.721289,9.77434921264648,0.54161626100540,0.38567140698433,1.04239845275879,0.39675346016884,-0.50446128845215
709,3667928800,0.009373,-0.690648,-0.052176,-0.721246,9.79197025299072,0.57110100984573,0.40258476138115,1.32764708995819,0.21993623673916,-0.56576526165009
710,3667945467,0.009380,-0.690691,-0.052297,-0.721196,9.79484367370605,0.56805795431137,0.38756409287453,1.53480255603790,0.16712285578251,-0.60134130716324
711,3667962134,0.009392,-0.690724,-0.052399,-0.721157,9.83401679992676,0.60295164585114,0.37936335802078,1.46441888809204,0.27012434601784,-0.49098899960518
712,3667978801,0.009373,-0.690751,-0.052443,-0.721128,9.83590602874756,0.62158566713333,0.37031009793282,1.02710771560669,0.33477079868317,-0.37538614869118
713,3667995468,0.009336,-0.690780,-0.052431,-0.721101,9.81307315826416,0.63455122709274,0.40079647302628,0.66234439611435,0.33757531642914,-0.19201199710369
714,3668012135,0.009249,-0.690816,-0.052382,-0.721071,9.78680992126465,0.64083129167557,0.41655662655830,0.24749550223351,0.27318504452705,-0.26327931880951
715,3668028802,0.009138,-0.690852,-0.052297,-0.721044,9.79355430603027,0.59746623039246,0.40992996096611,-0.03875841572881,0.28285381197929,-0.20980001986027
716,3668045469,0.009084,-0.690867,-0.052255,-0.721034,9.82328701019287,0.56585967540741,0.37992194294930,0.43629956245422,0.48124980926514,-0.14476938545704
717,3668062136,0.009098,-0.690863,-0.052299,-0.721034,9.80228233337402,0.59563350677490,0.41010156273842,1.16921973228455,0.64012539386749,-0.22269603610039
718,3668078803,0.009157,-0.690891,-0.052338,-0.721004,9.79789829254150,0.60475188493729,0.42922943830490,1.37957692146301,0.35921812057495,0.04133889824152
719,3668095470,0.009251,-0.690919,-0.052439,-0.720969,9.81112766265869,0.61748862266541,0.40103974938393,1.84022116661072,0.34400412440300,-0.08028940856457
720,3668112137,0.009269,-0.690935,-0.052507,-0.720948,9.85083103179932,0.64966589212418,0.43222582340240,1.31765806674957,0.44000056385994,-0.30552747845650
721,3668128804,0.009208,-0.690942,-0.052450,-0.720946,9.87594318389893,0.63125401735306,0.41804450750351,0.34053364396095,0.56076443195343,-0.10877073556185
722,3668145471,0.009104,-0.690921,-0.052301,-0.720979,9.86232852935791,0.59834337234497,0.41379362344742,-0.34739142656326,0.85842239856720,0.10324478149414
723,3668162138,0.008989,-0.690885,-0.052157,-0.721025,9.85494232177734,0.57416749000549,0.41797441244125,-0.39077931642532,0.98541021347046,0.01714770123363
724,3668178805,0.008921,-0.690869,-0.052087,-0.721046,9.79448795318604,0.57435679435730,0.41658881306648,0.22146020829678,0.78304427862167,-0.09011188149452
725,3668195472,0.008878,-0.690860,-0.052041,-0.721058,9.75518703460693,0.56029629707336,0.39198014140129,0.45955583453178,0.70588594675064,-0.07797145843506
726,3668212139,0.008830,-0.690848,-0.052061,-0.721070,9.72913265228271,0.57118970155716,0.38300552964211,0.76329678297043,0.72029316425323,-0.41700673103333
727,3668228806,0.008777,-0.690842,-0.052138,-0.721070,9.76387500762939,0.56895369291306,0.40567901730537,1.03377985954285,0.62433522939682,-0.71456235647202
728,3668245473,0.008731,-0.690834,-0.052219,-0.721072,9.78429985046387,0.57044214010239,0.39571875333786,1.07216036319733,0.65162551403046,-0.68836057186127
729,3668262140,0.008668,-0.690814,-0.052283,-0.721088,9.79703426361084,0.58749723434448,0.37213841080666,0.90011978149414,0.76716428995132,-0.70911955833435
730,3668278807,0.008596,-0.690818,-0.052329,-0.721081,9.80590724945068,0.58643251657486,0.38271710276604,0.80630052089691,0.54501259326935,-0.65097874403000
731,3668295474,0.008534,-0.690856,-0.052368,-0.721043,9.82522869110107,0.59792596101761,0.35428482294083,0.80752998590469,0.22899034619331,-0.55397063493729
732,3668312141,0.008485,-0.690926,-0.052412,-0.720973,9.83303451538086,0.59379225969315,0.36370390653610,0.88737756013870,-0.08409289270639,-0.50488388538361
733,3668328808,0.008452,-0.691000,-0.052437,-0.720901,9.81695938110352,0.60061162710190,0.36670893430710,0.86572200059891,-0.10442937910557,-0.33239519596100
734,3668345475,0.008432,-0.691068,-0.052466,-0.720833,9.79922580718994,0.60576474666595,0.40525630116463,0.95134526491165,-0.04499511048198,-0.28987810015678
735,3668362142,0.008409,-0.691133,-0.052473,-0.720772,9.78924655914307,0.63554197549820,0.42712587118149,0.83142662048340,-0.00016007936210,-0.19809502363205
736,3668378809,0.008364,-0.691226,-0.052455,-0.720683,9.78854084014893,0.62013578414917,0.42980647087097,0.61476874351501,-0.27760961651802,-0.17926967144012
737,3668395476,0.008321,-0.691296,-0.052460,-0.720617,9.74864101409912,0.58391952514648,0.40005242824554,0.66951596736908,-0.05827529355884,-0.29231131076813
738,3668412143,0.008260,-0.691328,-0.052511,-0.720583,9.80672454833984,0.60300159454346,0.40845566987991,0.85703927278519,0.27218613028526,-0.60719382762909
739,3668428810,0.008223,-0.691316,-0.052594,-0.720589,9.82296466827393,0.65459275245667,0.37939685583115,1.08606803417206,0.68592083454132,-0.66459184885025
740,3668445477,0.008212,-0.691301,-0.052627,-0.720601,9.84022521972656,0.64469456672668,0.34758177399635,0.99758893251419,0.74734002351761,-0.30095562338829
741,3668462144,0.008233,-0.691301,-0.052656,-0.720599,9.84525489807129,0.63400161266327,0.40975314378738,1.12064528465271,0.61762464046478,-0.10897564142942
742,3668478811,0.008239,-0.691335,-0.052649,-0.720567,9.80588436126709,0.61456364393234,0.38601428270340,1.00178956985474,0.31056678295135,-0.00154316506814
743,3668495478,0.008232,-0.691368,-0.052646,-0.720535,9.77793121337891,0.62158209085464,0.38718295097351,0.87215083837509,0.30687853693962,-0.08780673146248
744,3668512145,0.008186,-0.691374,-0.052620,-0.720532,9.77835559844971,0.61907368898392,0.38175296783447,0.54122197628021,0.56095647811890,-0.17887267470360
745,3668528812,0.008130,-0.691368,-0.052572,-0.720542,9.79458808898926,0.61439955234528,0.37895637750626,0.38964596390724,0.68002998828888,-0.13381996750832
746,3668545479,0.008091,-0.691368,-0.052550,-0.720544,9.79536819458008,0.58523613214493,0.37635987997055,0.54594755172729,0.60835283994675,-0.16887092590332
747,3668562146,0.008064,-0.691381,-0.052558,-0.720531,9.79206085205078,0.58487141132355,0.36628806591034,0.79132997989655,0.48513016104698,-0.24513277411461
748,3668578813,0.008060,-0.691419,-0.052601,-0.720492,9.81599330902100,0.59210032224655,0.38771978020668,1.08631145954132,0.24583069980145,-0.29045444726944
749,3668595480,0.008066,-0.691458,-0.052692,-0.720448,9.80120849609375,0.59756058454514,0.36658629775047,1.34464108943939,0.21107424795628,-0.46746382117271
750,3668612147,0.008072,-0.691500,-0.052796,-0.720399,9.80796527862549,0.61785346269608,0.37438508868217,1.40326857566833,0.16876208782196,-0.52429842948914
751,3668628814,0.008043,-0.691537,-0.052857,-0.720360,9.81114959716797,0.64481008052826,0.38972011208534,1.13589763641357,0.24497266113758,-0.50037610530853
752,3668645481,0.007992,-0.691563,-0.052882,-0.720334,9.80014896392822,0.64511966705322,0.40321534872055,0.86266130208969,0.35861620306969,-0.43616506457329
753,3668662148,0.007921,-0.691590,-0.052878,-0.720309,9.79815673828125,0.62728464603424,0.37278383970261,0.59272909164429,0.34285160899162,-0.39778441190720
754,3668678815,0.007858,-0.691613,-0.052883,-0.720287,9.81234073638916,0.60474377870560,0.36577448248863,0.59973418712616,0.38097608089447,-0.41098773479462
755,3668695482,0.007807,-0.691646,-0.052908,-0.720254,9.81853485107422,0.59802150726318,0.34011590480804,0.78926813602448,0.27534928917885,-0.43305310606956
756,3668712149,0.007778,-0.691674,-0.052978,-0.720222,9.81355667114258,0.60268259048462,0.37595742940903,1.06051945686340,0.31527951359749,-0.54571062326431
757,3668728816,0.007761,-0.691711,-0.053070,-0.720181,9.81829071044922,0.61415028572083,0.36681416630745,1.24030780792236,0.22804264724255,-0.58784341812134
758,3668745483,0.007738,-0.691743,-0.053143,-0.720144,9.81942939758301,0.62468451261520,0.35395750403404,1.20672941207886,0.27837163209915,-0.52570706605911
759,3668762150,0.007731,-0.691790,-0.053220,-0.720093,9.81106090545654,0.63520246744156,0.34452056884766,1.26424300670624,0.14019110798836,-0.46026664972305
760,3668778817,0.007721,-0.691835,-0.053266,-0.720047,9.81046104431152,0.64328229427338,0.36848214268684,1.17523860931396,0.18024936318398,-0.32752880454063
761,3668795484,0.007683,-0.691883,-0.053280,-0.720000,9.80399131774902,0.65073037147522,0.37811052799225,0.94588977098465,0.15933659672737,-0.30890834331512
762,3668812151,0.007640,-0.691925,-0.053282,-0.719960,9.81212234497070,0.64363145828247,0.39244583249092,0.71230190992355,0.20170000195503,-0.28318035602570
763,3668828818,0.007587,-0.691966,-0.053266,-0.719922,9.81391048431396,0.64546966552734,0.37067747116089,0.53162997961044,0.21695235371590,-0.25217622518539
764,3668845485,0.007511,-0.692000,-0.053239,-0.719893,9.79874038696289,0.62259262800217,0.38955983519554,0.37683966755867,0.28850144147873,-0.31494015455246
