sep=,
DeviceTag:,E
FirmwareVersion:,3.0.0
AppVersion:,2023.6.0
StartTime: ,2024-03-14_11:56:34_000 EDT
© Movella Technologies B. V. 2005-2024

PacketCounter,SampleTimeFine,Quat_W,Quat_X,Quat_Y,Quat_Z,Acc_X,Acc_Y,Acc_Z,Gyr_X,Gyr_Y,Gyr_Z
0,3656111897,0.392824,-0.093095,0.299754,0.864390,0.00000000000000,0.00000000000000,0.00000000000000,0.00000000000000,0.00000000000000,0.00000000000000
1,3656128564,0.392783,-0.093064,0.299769,0.864407,-3.80839753150940,4.31629133224487,7.74464464187622,1.61094295978546,-0.38470277190208,0.46973058581352
2,3656145231,0.392743,-0.093035,0.299822,0.864410,-3.80618166923523,4.28925848007202,7.72878026962280,1.81987833976746,-0.22790177166462,0.52998435497284
3,3656161898,0.392740,-0.093044,0.299846,0.864402,-3.80659127235413,4.31944561004639,7.75160169601440,1.55596494674683,-0.09864730387926,0.26061561703682
4,3656178565,0.392734,-0.093064,0.299905,0.864382,-3.83883905410767,4.31637048721313,7.77123260498047,1.75836956501007,0.06949365884066,0.23586094379425
5,3656195232,0.392721,-0.093055,0.299948,0.864374,-3.84200572967529,4.35282468795776,7.78731727600098,1.75547528266907,-0.19122444093227,0.27119371294975
6,3656211899,0.392687,-0.093024,0.299981,0.864381,-3.82094359397888,4.29215812683105,7.76918268203735,1.69049572944641,-0.28933385014534,0.52623212337494
7,3656228566,0.392666,-0.093007,0.300054,0.864367,-3.80801582336426,4.28634166717529,7.77914762496948,1.93452072143555,-0.10063229501247,0.38583609461784
8,3656245233,0.392665,-0.093005,0.300059,0.864366,-3.80539608001709,4.31991767883301,7.73378086090088,1.49695348739624,-0.26752462983131,0.20562516152859
9,3656261900,0.392659,-0.093016,0.300046,0.864372,-3.82431173324585,4.33668756484985,7.73585081100464,1.31518030166626,-0.21444234251976,0.25065228343010
10,3656278567,0.392637,-0.093028,0.300046,0.864381,-3.82136464118958,4.30982208251953,7.76337909698486,1.40451717376709,-0.17693252861500,0.28662532567978
11,3656295234,0.392629,-0.093053,0.300046,0.864382,-3.82632279396057,4.32770061492920,7.78978109359741,1.36346018314362,-0.07819557934999,0.24167503416538
12,3656311901,0.392608,-0.093065,0.300039,0.864392,-3.82894802093506,4.33015346527100,7.77427339553833,1.34076714515686,-0.17172034084797,0.33358621597290
13,3656328568,0.392575,-0.093075,0.300039,0.864407,-3.82360482215881,4.30886459350586,7.77710866928101,1.39685893058777,-0.17497314512730,0.37871578335762
14,3656345235,0.392561,-0.093065,0.300067,0.864404,-3.81574416160583,4.31023454666138,7.76614999771118,1.64434182643890,-0.22808109223843,0.29955974221230
15,3656361902,0.392537,-0.093067,0.300055,0.864419,-3.81097292900085,4.30571460723877,7.74810838699341,1.36057865619659,-0.27509316802025,0.32393023371696
16,3656378569,0.392547,-0.093089,0.300060,0.864410,-3.82325482368469,4.30805444717407,7.73493099212646,1.42691540718079,-0.11670425534248,0.10929578542709
17,3656395236,0.392558,-0.093135,0.300049,0.864404,-3.81490325927734,4.34510946273804,7.75666284561157,1.30137479305267,-0.06579902768135,-0.01850517466664
18,3656411903,0.392562,-0.093168,0.300007,0.864414,-3.83849191665649,4.31539869308472,7.76852655410767,1.07804489135742,-0.16755826771259,0.15226109325886
19,3656428570,0.392535,-0.093195,0.299985,0.864430,-3.83039426803589,4.31904983520508,7.77048587799072,1.24346458911896,-0.17645870149136,0.24293005466461
20,3656445237,0.392516,-0.093216,0.299967,0.864443,-3.82892084121704,4.31256198883057,7.76612520217896,1.27371323108673,-0.18266980350018,0.25382825732231
21,3656461904,0.392499,-0.093223,0.299972,0.864448,-3.83259820938110,4.31988859176636,7.76204299926758,1.43151283264160,-0.16853155195713,0.32047247886658
22,3656478571,0.392461,-0.093231,0.299961,0.864469,-3.81649804115295,4.32173776626587,7.73015832901001,1.32487463951111,-0.21371237933636,0.40808078646660
23,3656495238,0.392461,-0.093234,0.299928,0.864479,-3.81711959838867,4.30596065521240,7.75584220886230,1.12339222431183,-0.22390620410442,0.41134634613991
24,3656511905,0.392408,-0.093259,0.299913,0.864506,-3.82376456260681,4.29665899276733,7.74847507476807,1.25171184539795,-0.11956008523703,0.43677973747253
25,3656528572,0.392354,-0.093284,0.299906,0.864530,-3.82781243324280,4.30838632583618,7.74070453643799,1.28206276893616,-0.06679791957140,0.48883754014969
26,3656545239,0.392343,-0.093305,0.299901,0.864535,-3.84640598297119,4.33865594863892,7.78134250640869,1.33139288425446,-0.11477049440145,0.26854276657104
27,3656561906,0.392332,-0.093329,0.299892,0.864541,-3.83887124061584,4.31037998199463,7.78781175613403,1.27540361881256,-0.08237043768167,0.30881872773170
28,3656578573,0.392295,-0.093363,0.299905,0.864549,-3.81680798530579,4.32047033309937,7.75467443466187,1.41423726081848,0.02089356072247,0.34543207287788
29,3656595240,0.392253,-0.093386,0.299940,0.864554,-3.82281756401062,4.30756044387817,7.77304840087891,1.56697869300842,0.04837598651648,0.43882882595062
30,3656611907,0.392181,-0.093417,0.300007,0.864560,-3.81901526451111,4.30801343917847,7.73134708404541,1.78200995922089,0.16515707969666,0.48076954483986
31,3656628574,0.392104,-0.093433,0.300117,0.864554,-3.82042479515076,4.31979322433472,7.73996019363403,2.06547880172729,0.24148291349411,0.59999668598175
32,3656645241,0.392026,-0.093451,0.300248,0.864543,-3.82512068748474,4.33159112930298,7.75385236740112,2.19527101516724,0.31438952684402,0.60268604755402
33,3656661908,0.391956,-0.093468,0.300433,0.864508,-3.83095026016235,4.31751489639282,7.75788259506226,2.48059630393982,0.55913168191910,0.71376830339432
34,3656678575,0.391882,-0.093458,0.300709,0.864447,-3.84700274467468,4.31414890289307,7.78692197799683,3.14665484428406,0.67055964469910,0.77715975046158
35,3656695242,0.391803,-0.093442,0.300983,0.864389,-3.84819889068604,4.32726287841797,7.75960588455200,3.23171448707581,0.53698945045471,0.65989202260971
36,3656711909,0.391750,-0.093413,0.301228,0.864331,-3.81759810447693,4.31955194473267,7.74426555633545,3.07602787017822,0.36783042550087,0.57357722520828
37,3656728576,0.391688,-0.093365,0.301530,0.864259,-3.83141279220581,4.32206726074219,7.73879718780518,3.50588583946228,0.41555964946747,0.62867021560669
38,3656745243,0.391626,-0.093334,0.301765,0.864208,-3.79843521118164,4.34719896316528,7.71451091766357,3.05928993225098,0.27066859602928,0.51582056283951
39,3656761910,0.391610,-0.093339,0.301876,0.864176,-3.83356261253357,4.36766576766968,7.74078083038330,2.18099188804626,0.08418254554272,0.21859800815582
40,3656778577,0.391629,-0.093335,0.301953,0.864141,-3.85568952560425,4.35631370544434,7.75068235397339,1.90888226032257,0.01770477741957,0.26225483417511
41,3656795244,0.391623,-0.093314,0.302035,0.864117,-3.85232949256897,4.39936208724976,7.77508020401001,1.99965357780457,-0.09110435843468,0.34695598483086
42,3656811911,0.391595,-0.093286,0.302085,0.864116,-3.84499239921570,4.34355449676514,7.73957395553589,1.80460023880005,-0.24106675386429,0.45700097084045
43,3656828578,0.391562,-0.093266,0.302168,0.864104,-3.82725143432617,4.38036918640137,7.71927976608276,2.05710339546204,-0.13996060192585,0.36834266781807
44,3656845245,0.391549,-0.093242,0.302158,0.864116,-3.82780194282532,4.35051202774048,7.71598529815674,1.44069528579712,-0.43358460068703,0.32161229848862
45,3656861912,0.391553,-0.093186,0.302185,0.864110,-3.81677913665771,4.32213592529297,7.70823144912720,1.76487505435944,-0.51485365629196,0.31783434748650
46,3656878579,0.391556,-0.093147,0.302263,0.864086,-3.80735039710999,4.37593841552734,7.72317075729370,2.06830883026123,-0.27675804495811,0.26089739799500
47,3656895246,0.391570,-0.093158,0.302274,0.864075,-3.83856725692749,4.36362743377686,7.73828506469727,1.47159683704376,-0.12944658100605,0.17960265278816
48,3656911913,0.391571,-0.093204,0.302301,0.864060,-3.83064293861389,4.36462402343750,7.73291730880737,1.53757512569427,0.06556211411953,0.04147336632013
49,3656928580,0.391586,-0.093211,0.302311,0.864049,-3.84812045097351,4.37626600265503,7.75233125686646,1.48364758491516,-0.17846930027008,0.15250442922115
50,3656945247,0.391569,-0.093177,0.302303,0.864063,-3.82063722610474,4.36236906051636,7.71948242187500,1.47400450706482,-0.47981551289558,0.37127527594566
51,3656961914,0.391579,-0.093175,0.302298,0.864060,-3.82139396667480,4.35910892486572,7.72845029830933,1.43071901798248,-0.29642859101295,0.16501621901989
52,3656978581,0.391590,-0.093186,0.302300,0.864054,-3.82568025588989,4.34504556655884,7.73665523529053,1.45378339290619,-0.21264946460724,0.09149497002363
53,3656995248,0.391591,-0.093207,0.302313,0.864046,-3.83045864105225,4.35878181457520,7.72880506515503,1.48846280574799,-0.09845522046089,0.15310630202293
54,3657011915,0.391586,-0.093195,0.302361,0.864033,-3.83327817916870,4.35748004913330,7.73486948013306,1.80813491344452,-0.20577239990234,0.22290091216564
55,3657028582,0.391575,-0.093205,0.302376,0.864032,-3.83277702331543,4.36881875991821,7.73313951492310,1.50809514522552,-0.14341831207275,0.25279095768929
56,3657045249,0.391553,-0.093215,0.302401,0.864032,-3.82553744316101,4.35217475891113,7.74073266983032,1.57840168476105,-0.10951989889145,0.29885536432266
57,3657061916,0.391563,-0.093198,0.302411,0.864025,-3.83812308311462,4.37251996994019,7.73573112487793,1.56008887290955,-0.33250406384468,0.20451101660728
58,3657078583,0.391579,-0.093211,0.302388,0.864025,-3.83036851882935,4.33906602859497,7.72463464736938,1.25761568546295,-0.25443658232689,0.12135937809944
59,3657095250,0.391569,-0.093225,0.302436,0.864011,-3.84243178367615,4.36935853958130,7.72088193893433,1.74765062332153,-0.04514238610864,0.18422573804855
60,3657111917,0.391552,-0.093251,0.302459,0.864008,-3.85477685928345,4.37240266799927,7.72609376907349,1.50101292133331,0.00261889840476,0.27290970087051
61,3657128584,0.391517,-0.093262,0.302498,0.864009,-3.85517501831055,4.38570308685303,7.75741052627563,1.65777575969696,-0.05078998580575,0.37296575307846
62,3657145251,0.391462,-0.093285,0.302511,0.864027,-3.83752727508545,4.38113546371460,7.74150228500366,1.43555974960327,-0.03683106228709,0.45046976208687
63,3657161918,0.391424,-0.093307,0.302533,0.864034,-3.84099769592285,4.37267303466797,7.73240280151367,1.48259758949280,-0.00554514955729,0.41486811637878
64,3657178585,0.391388,-0.093361,0.302537,0.864043,-3.82996726036072,4.34285688400269,7.73011970520020,1.29065597057343,0.13698312640190,0.33140912652016
65,3657195252,0.391370,-0.093415,0.302555,0.864039,-3.83753490447998,4.34364795684814,7.71840095520020,1.36833918094635,0.19616125524044,0.28516539931297
66,3657211919,0.391322,-0.093510,0.302552,0.864051,-3.83560943603516,4.35844278335571,7.72362995147705,1.20423877239227,0.29265710711479,0.16461923718452
67,3657228586,0.391301,-0.093606,0.302527,0.864059,-3.85343456268311,4.35283374786377,7.71620035171509,1.08333384990692,0.20045137405396,0.00044181905105
68,3657245253,0.391298,-0.093674,0.302503,0.864062,-3.84350156784058,4.36454057693481,7.74039030075073,1.09509015083313,0.10526178777218,0.11153689771891
69,3657261920,0.391296,-0.093711,0.302475,0.864068,-3.86042213439941,4.36519670486450,7.74274873733521,1.18148195743561,-0.13232801854610,0.12012996524572
70,3657278587,0.391277,-0.093752,0.302487,0.864069,-3.84498071670532,4.34166193008423,7.74950075149536,1.41308474540710,0.02908962219954,0.20781503617764
71,3657295254,0.391254,-0.093769,0.302515,0.864067,-3.84933066368103,4.37305736541748,7.73772144317627,1.53151774406433,-0.00398277491331,0.37329870462418
72,3657311921,0.391189,-0.093832,0.302514,0.864090,-3.84247517585754,4.34368801116943,7.73579406738281,1.24699914455414,0.16372278332710,0.40819600224495
73,3657328588,0.391157,-0.093902,0.302497,0.864103,-3.83725571632385,4.35736560821533,7.72917366027832,1.15435791015625,0.11978419125080,0.19641737639904
74,3657345255,0.391165,-0.093943,0.302446,0.864113,-3.83704233169556,4.32803583145142,7.73155546188354,0.99481642246246,-0.14751634001732,0.11576299369335
75,3657361922,0.391164,-0.093963,0.302437,0.864115,-3.84088373184204,4.33437776565552,7.73188018798828,1.34230387210846,-0.17601045966148,0.16231407225132
76,3657378589,0.391158,-0.093969,0.302430,0.864119,-3.84246969223022,4.35529613494873,7.73675155639648,1.42363703250885,-0.28166285157204,0.15352891385555
77,3657395256,0.391145,-0.093963,0.302472,0.864111,-3.84873080253601,4.36937761306763,7.73038482666016,1.71776068210602,-0.15294623374939,0.30834490060806
78,3657411923,0.391131,-0.093972,0.302470,0.864116,-3.86182737350464,4.38169145584106,7.73460912704468,1.34441709518433,-0.12806349992752,0.38969084620476
79,3657428590,0.391056,-0.094015,0.302483,0.864141,-3.84014844894409,4.35392951965332,7.70347547531128,1.34469878673553,0.13454993069172,0.57155376672745
80,3657445257,0.390990,-0.094077,0.302503,0.864158,-3.82974147796631,4.35831689834595,7.71557903289795,1.29488205909729,0.32117685675621,0.58711344003677
81,3657461924,0.390892,-0.094127,0.302536,0.864185,-3.83560371398926,4.35537147521973,7.71909570693970,1.45357835292816,0.23239041864872,0.64583063125610
82,3657478591,0.390833,-0.094149,0.302576,0.864195,-3.84259510040283,4.33600282669067,7.72046852111816,1.56880986690521,0.09887142479420,0.57747036218643
83,3657495258,0.390765,-0.094196,0.302624,0.864204,-3.86858630180359,4.36088037490845,7.72800874710083,1.60355341434479,0.21146485209465,0.44448915123940
84,3657511925,0.390712,-0.094241,0.302674,0.864206,-3.85121297836304,4.35709428787231,7.71558570861816,1.60789501667023,0.22676844894886,0.43215671181679
85,3657528592,0.390686,-0.094291,0.302730,0.864192,-3.85646700859070,4.36724328994751,7.72866725921631,1.55889773368835,0.36492332816124,0.45340237021446
86,3657545259,0.390619,-0.094380,0.302792,0.864191,-3.84651637077332,4.35132980346680,7.70839738845825,1.56528806686401,0.53992205858231,0.40126773715019
87,3657561926,0.390576,-0.094496,0.302860,0.864174,-3.84729743003845,4.35077285766602,7.70710945129395,1.54534852504730,0.72211802005768,0.23915216326714
88,3657578593,0.390543,-0.094645,0.302967,0.864135,-3.84907221794128,4.32361459732056,7.72211551666260,1.74457693099976,0.99780023097992,0.05773742496967
89,3657595260,0.390527,-0.094749,0.303081,0.864091,-3.87766957283020,4.36550712585449,7.70491075515747,1.91222465038300,0.74957478046417,0.07558947801590
90,3657611927,0.390537,-0.094814,0.303101,0.864073,-3.85408759117126,4.38225889205933,7.72805070877075,1.41791260242462,0.18897689878941,0.01892138272524
91,3657628594,0.390548,-0.094889,0.303156,0.864040,-3.86078572273254,4.34283924102783,7.72652244567871,1.64178049564362,0.33896487951279,-0.04933006316423
92,3657645261,0.390542,-0.094960,0.303189,0.864023,-3.85839939117432,4.37727308273315,7.73821783065796,1.49320137500763,0.26878610253334,0.06534440070391
93,3657661928,0.390519,-0.095036,0.303254,0.864003,-3.86260271072388,4.36457157135010,7.73460912704468,1.72089815139771,0.35567718744278,0.05239718407393
94,3657678595,0.390498,-0.095098,0.303281,0.863996,-3.85566496849060,4.36290502548218,7.70044040679932,1.44497239589691,0.22567988932133,0.19148693978786
95,3657695262,0.390505,-0.095134,0.303308,0.863979,-3.87046861648560,4.34939765930176,7.70518398284912,1.53897106647491,0.03787478059530,0.09547774493694
96,3657711929,0.390535,-0.095158,0.303345,0.863950,-3.87750267982483,4.35683107376099,7.73446846008301,1.65853118896484,-0.03101697750390,-0.02210375852883
97,3657728596,0.390531,-0.095178,0.303373,0.863939,-3.88036108016968,4.35893583297729,7.72075462341309,1.62317287921906,-0.10041458904743,0.10257246345282
98,3657745263,0.390538,-0.095196,0.303394,0.863927,-3.87126421928406,4.36853456497192,7.70187997817993,1.58527886867523,-0.14080581068993,0.05330643057823
99,3657761930,0.390556,-0.095215,0.303425,0.863906,-3.87853527069092,4.35461378097534,7.71406030654907,1.64454650878906,-0.09830154478550,0.01255662553012
100,3657778597,0.390570,-0.095241,0.303471,0.863880,-3.87517285346985,4.37643146514893,7.70106983184814,1.72425341606140,0.00045462546404,0.00986729282886
101,3657795264,0.390607,-0.095256,0.303517,0.863846,-3.85891771316528,4.35810661315918,7.71291446685791,1.67826581001282,0.00761337578297,0.09796218574047
102,3657811931,0.390594,-0.095292,0.303548,0.863837,-3.85076212882996,4.35697841644287,7.68507909774780,1.60270833969116,-0.00055067305220,0.09405622631311
103,3657828598,0.390570,-0.095337,0.303589,0.863828,-3.85636639595032,4.37894630432129,7.72202014923096,1.63692700862885,0.10574843734503,0.13420416414738
104,3657845265,0.390535,-0.095364,0.303623,0.863829,-3.87052631378174,4.37387180328369,7.69950723648071,1.55756592750549,0.05427971854806,0.37694847583771
105,3657861932,0.390495,-0.095343,0.303638,0.863845,-3.88691473007202,4.36219739913940,7.72024917602539,1.54509258270264,-0.27496513724327,0.53073996305466
106,3657878599,0.390440,-0.095339,0.303702,0.863847,-3.88293004035950,4.35879230499268,7.68652629852295,1.87691760063171,-0.08512379974127,0.44391289353371
107,3657895266,0.390418,-0.095353,0.303724,0.863848,-3.87132358551025,4.36029529571533,7.71846723556519,1.55082976818085,-0.10684336721897,0.27431839704514
108,3657911933,0.390415,-0.095333,0.303747,0.863843,-3.87256598472595,4.35356807708740,7.70114850997925,1.65436911582947,-0.31672665476799,0.25799033045769
109,3657928600,0.390416,-0.095301,0.303782,0.863834,-3.87034296989441,4.34808444976807,7.70552492141724,1.76057231426239,-0.35106047987938,0.26347145438194
110,3657945267,0.390441,-0.095271,0.303805,0.863818,-3.88282418251038,4.36089515686035,7.72936391830444,1.71646702289581,-0.42545253038406,0.09296769648790
111,3657961934,0.390483,-0.095228,0.303836,0.863793,-3.88136935234070,4.35149478912354,7.70216178894043,1.81391060352325,-0.47754880785942,0.03594102337956
112,3657978601,0.390524,-0.095174,0.303849,0.863776,-3.87748813629150,4.37947511672974,7.71376085281372,1.72278058528900,-0.61161839962006,0.07041570544243
113,3657995268,0.390532,-0.095146,0.303848,0.863776,-3.86492586135864,4.35805225372314,7.69280385971069,1.56709384918213,-0.49981901049614,0.12475304305553
114,3658011935,0.390549,-0.095146,0.303848,0.863768,-3.86701822280884,4.37854290008545,7.68679857254028,1.51397299766541,-0.32991719245911,0.01783284172416
115,3658028602,0.390614,-0.095141,0.303838,0.863743,-3.84788012504578,4.35931777954102,7.72445869445801,1.41800236701965,-0.35057380795479,-0.08402246236801
116,3658045269,0.390667,-0.095131,0.303841,0.863719,-3.86599993705750,4.36249208450317,7.71741867065430,1.58294796943665,-0.41522029042244,-0.16887731850147
117,3658061936,0.390729,-0.095126,0.303842,0.863691,-3.87939906120300,4.36499118804932,7.71148681640625,1.55102193355560,-0.37529006600380,-0.17982676625252
118,3658078603,0.390771,-0.095120,0.303870,0.863663,-3.88398528099060,4.38012981414795,7.71519994735718,1.64646756649017,-0.21094617247581,0.05411322787404
119,3658095270,0.390760,-0.095090,0.303890,0.863664,-3.89059209823608,4.40114498138428,7.72486829757690,1.65288341045380,-0.38257685303688,0.32076704502106
120,3658111937,0.390749,-0.095065,0.303895,0.863670,-3.87177562713623,4.37548780441284,7.70218563079834,1.48423683643341,-0.32738155126572,0.43223354220390
121,3658128604,0.390693,-0.095054,0.303928,0.863685,-3.86954045295715,4.34838151931763,7.69854927062988,1.68457937240601,-0.21174019575119,0.47731187939644
122,3658145271,0.390653,-0.095040,0.303966,0.863691,-3.86438798904419,4.36943912506104,7.72704553604126,1.66145074367523,-0.15420125424862,0.53925615549088
123,3658161938,0.390580,-0.095022,0.304018,0.863708,-3.87773013114929,4.36915922164917,7.71098566055298,1.79767203330994,-0.17119528353214,0.60961425304413
124,3658178605,0.390501,-0.095020,0.304060,0.863729,-3.85560297966003,4.36229658126831,7.70055770874023,1.70394241809845,-0.10990410298109,0.58742088079453
125,3658195272,0.390475,-0.095038,0.304096,0.863726,-3.86163592338562,4.36731147766113,7.71809053421021,1.62173831462860,-0.02314107306302,0.30052015185356
126,3658211939,0.390461,-0.095077,0.304083,0.863732,-3.88054537773132,4.37460660934448,7.70284605026245,1.28152501583099,-0.08292111754417,0.14834235608578
127,3658228606,0.390454,-0.095112,0.304124,0.863718,-3.86605381965637,4.36411905288696,7.70890045166016,1.62648975849152,0.07240069657564,0.15147991478443
128,3658245273,0.390436,-0.095161,0.304132,0.863717,-3.87197685241699,4.38970041275024,7.69713354110718,1.42555785179138,0.01669307611883,0.08772988617420
129,3658261940,0.390419,-0.095171,0.304140,0.863721,-3.88742828369141,4.36615943908691,7.70230007171631,1.44867348670959,-0.14752915501595,0.30428525805473
130,3658278607,0.390399,-0.095190,0.304176,0.863716,-3.86054635047913,4.38422012329102,7.70801925659180,1.58721268177032,0.01994588971138,0.34188473224640
131,3658295274,0.390393,-0.095227,0.304188,0.863710,-3.87533259391785,4.37344074249268,7.68735742568970,1.42251014709473,0.01186508219689,0.15824164450169
132,3658311941,0.390433,-0.095268,0.304162,0.863697,-3.87174272537231,4.35757303237915,7.70325040817261,1.16585814952850,-0.07370053976774,-0.00649281963706
133,3658328608,0.390457,-0.095303,0.304149,0.863687,-3.85810065269470,4.35238409042358,7.70658683776855,1.27154874801636,-0.08796681463718,0.03568489104509
134,3658345275,0.390464,-0.095326,0.304166,0.863675,-3.86775112152100,4.37747049331665,7.72058773040771,1.51415252685547,-0.08283147215843,0.09750115126371
135,3658361942,0.390464,-0.095374,0.304166,0.863670,-3.87170767784119,4.36251974105835,7.70952892303467,1.34711921215057,0.01154492329806,0.06748306006193
136,3658378609,0.390438,-0.095404,0.304185,0.863671,-3.88903641700745,4.38116550445557,7.71263456344604,1.49829804897308,-0.01539323199540,0.24835993349552
137,3658395276,0.390426,-0.095443,0.304191,0.863670,-3.87479352951050,4.36815261840820,7.70533466339111,1.35635256767273,0.03535193204880,0.23351739346981
138,3658411943,0.390420,-0.095471,0.304207,0.863664,-3.87892746925354,4.35387277603149,7.69482469558716,1.46410501003265,-0.02536937780678,0.20795591175556
139,3658428610,0.390403,-0.095489,0.304218,0.863666,-3.87183737754822,4.37422180175781,7.71447944641113,1.43741679191589,-0.07865660637617,0.30778142809868
140,3658445277,0.390375,-0.095502,0.304209,0.863680,-3.86769080162048,4.36120080947876,7.69314336776733,1.32000803947449,-0.16201312839985,0.36742055416107
141,3658461944,0.390361,-0.095521,0.304215,0.863682,-3.88479328155518,4.36663293838501,7.69803190231323,1.41982078552246,-0.10743246227503,0.25734999775887
142,3658478611,0.390325,-0.095554,0.304228,0.863690,-3.87187647819519,4.36909961700439,7.68561649322510,1.46199202537537,-0.02794345654547,0.26059001684189
143,3658495278,0.390303,-0.095608,0.304227,0.863695,-3.88355517387390,4.38569593429565,7.72106122970581,1.30558812618256,0.06557492166758,0.18236882984638
144,3658511945,0.390283,-0.095658,0.304227,0.863698,-3.88786697387695,4.36326456069946,7.68602848052979,1.29927480220795,0.07355327159166,0.21921271085739
145,3658528612,0.390249,-0.095714,0.304246,0.863701,-3.87575721740723,4.36713743209839,7.70651674270630,1.45429539680481,0.11008977890015,0.17745117843151
146,3658545279,0.390234,-0.095777,0.304242,0.863702,-3.88806843757629,4.38831138610840,7.69487953186035,1.24162042140961,0.13886563479900,0.17088150978088
147,3658561946,0.390227,-0.095811,0.304205,0.863714,-3.87706661224365,4.35750913619995,7.69383573532104,1.09224712848663,-0.13417211174965,0.22231180965900
148,3658578613,0.390241,-0.095850,0.304200,0.863705,-3.88310503959656,4.38398170471191,7.70317792892456,1.29584264755249,-0.01809537224472,0.09921719878912
149,3658595280,0.390230,-0.095884,0.304161,0.863721,-3.88509535789490,4.35980987548828,7.70487070083618,1.09053111076355,-0.15349689126015,0.21786801517010
150,3658611947,0.390242,-0.095902,0.304177,0.863707,-3.88012647628784,4.36163711547852,7.69250345230103,1.43226861953735,-0.01634090207517,0.26099982857704
151,3658628614,0.390217,-0.095941,0.304152,0.863723,-3.87970733642578,4.38049507141113,7.69646692276001,1.19691336154938,-0.10914850980043,0.20229551196098
152,3658645281,0.390206,-0.096024,0.304115,0.863732,-3.87185764312744,4.36986923217773,7.71431684494019,0.93218058347702,0.20164236426353,0.19194795191288
153,3658661948,0.390194,-0.096129,0.304018,0.863759,-3.87273216247559,4.36140298843384,7.70228862762451,0.50315511226654,0.14314298331738,0.12535496056080
154,3658678615,0.390209,-0.096155,0.304007,0.863754,-3.90345048904419,4.36967563629150,7.71832180023193,1.31643509864807,-0.14624850451946,0.07471863925457
155,3658695282,0.390190,-0.096123,0.304016,0.863763,-3.89906930923462,4.36105489730835,7.70588207244873,1.57065379619598,-0.41219794750214,0.38988286256790
156,3658711949,0.390145,-0.096083,0.304032,0.863782,-3.86937546730042,4.36009120941162,7.69287586212158,1.61863934993744,-0.40911164879799,0.56086051464081
157,3658728616,0.390132,-0.096058,0.304058,0.863781,-3.88231968879700,4.38806676864624,7.69691133499146,1.61913895606995,-0.26439991593361,0.43690785765648
158,3658745283,0.390121,-0.096059,0.304017,0.863801,-3.88461947441101,4.35557460784912,7.68997001647949,1.13158833980560,-0.32622897624969,0.33886238932610
159,3658761950,0.390124,-0.096050,0.304033,0.863795,-3.88814163208008,4.33527660369873,7.69602870941162,1.44681656360626,-0.12984359264374,0.46915417909622
160,3658778617,0.390083,-0.096025,0.304052,0.863809,-3.87690138816833,4.37886619567871,7.69088029861450,1.59522938728333,-0.29664632678032,0.51260620355606
161,3658795284,0.390072,-0.096003,0.304060,0.863814,-3.87814450263977,4.36674547195435,7.67512416839600,1.49553179740906,-0.30859458446503,0.41742935776711
162,3658811951,0.390075,-0.096012,0.304027,0.863824,-3.88754320144653,4.35991239547729,7.70242500305176,1.21352326869965,-0.31364032626152,0.16505463421345
163,3658828618,0.390068,-0.096009,0.304032,0.863825,-3.89432263374329,4.34580135345459,7.69837093353271,1.50658369064331,-0.28092008829117,0.21827781200409
164,3658845285,0.390073,-0.095987,0.304047,0.863820,-3.88986563682556,4.37730026245117,7.71856594085693,1.61067390441895,-0.34998473525047,0.22758804261684
165,3658861952,0.390059,-0.095984,0.304037,0.863830,-3.87848830223083,4.35632658004761,7.69864845275879,1.36349856853485,-0.28195741772652,0.32385340332985
166,3658878619,0.390045,-0.095969,0.304048,0.863834,-3.88763451576233,4.37757301330566,7.70315694808960,1.53156912326813,-0.28483885526657,0.35278296470642
167,3658895286,0.390029,-0.095977,0.304027,0.863848,-3.87917160987854,4.34598731994629,7.68527841567993,1.27129280567169,-0.25816321372986,0.29101788997650
168,3658911953,0.390013,-0.095971,0.304024,0.863857,-3.87868785858154,4.33688783645630,7.70956039428711,1.41714417934418,-0.27527248859406,0.33555838465691
169,3658928620,0.390028,-0.095969,0.304011,0.863855,-3.87502932548523,4.34852218627930,7.69405841827393,1.38446235656738,-0.32864937186241,0.11881089955568
170,3658945287,0.390025,-0.095970,0.304032,0.863849,-3.89764285087585,4.37549209594727,7.70407295227051,1.56964218616486,-0.17484508454800,0.24957652390003
171,3658961954,0.390012,-0.095981,0.304040,0.863851,-3.89351248741150,4.37699270248413,7.67917776107788,1.45462846755981,-0.15112772583961,0.27015635371208
172,3658978621,0.389983,-0.095982,0.304029,0.863867,-3.88830208778381,4.36639690399170,7.70562267303467,1.36928701400757,-0.27155867218971,0.33875995874405
173,3658995288,0.389966,-0.095987,0.304025,0.863876,-3.88020467758179,4.37249088287354,7.69743680953979,1.35217761993408,-0.18067197501659,0.38327485322952
174,3659011955,0.389944,-0.095990,0.304006,0.863892,-3.88177323341370,4.36513805389404,7.70239210128784,1.27859246730804,-0.26203075051308,0.35638147592545
175,3659028622,0.389933,-0.096001,0.304005,0.863896,-3.86431074142456,4.32749414443970,7.69498395919800,1.37419176101685,-0.14641499519348,0.31245571374893
176,3659045289,0.389915,-0.096010,0.304025,0.863896,-3.88070201873779,4.38135337829590,7.71214723587036,1.57503366470337,-0.16372917592525,0.22876621782780
177,3659061956,0.389930,-0.096016,0.303997,0.863899,-3.88925957679749,4.36515522003174,7.70237827301025,1.17641043663025,-0.22627539932728,0.28181010484695
178,3659078623,0.389937,-0.096030,0.303992,0.863896,-3.89491152763367,4.36469459533691,7.68557691574097,1.35868334770203,-0.16944082081318,0.19141010940075
179,3659095290,0.389936,-0.096037,0.303973,0.863903,-3.87769103050232,4.36375474929810,7.71295452117920,1.28056442737579,-0.24568980932236,0.25270128250122
180,3659111957,0.389932,-0.096058,0.303964,0.863905,-3.88467478752136,4.36224031448364,7.70276546478271,1.35466217994690,-0.17547260224819,0.14727944135666
181,3659128624,0.389913,-0.096062,0.303958,0.863915,-3.89402413368225,4.35712099075317,7.69501781463623,1.39516842365265,-0.24950607120991,0.28017085790634
182,3659145291,0.389881,-0.096085,0.303954,0.863929,-3.88607358932495,4.37571477890015,7.70160388946533,1.31765174865723,-0.08342055976391,0.37491229176521
183,3659161958,0.389825,-0.096105,0.303923,0.863963,-3.88552331924438,4.36675977706909,7.68858909606934,1.15761077404022,-0.19203121960163,0.45548990368843
184,3659178625,0.389789,-0.096128,0.303934,0.863972,-3.87183356285095,4.34450006484985,7.69166374206543,1.43116724491119,-0.05308231711388,0.36876526474953
185,3659195292,0.389767,-0.096157,0.303932,0.863980,-3.87765407562256,4.36434602737427,7.69336032867432,1.34194529056549,-0.05949829891324,0.27588081359863
186,3659211959,0.389762,-0.096176,0.303925,0.863982,-3.89133596420288,4.35764122009277,7.70748662948608,1.36244821548462,-0.17289851605892,0.17702856659889
187,3659228626,0.389771,-0.096178,0.303945,0.863971,-3.89226460456848,4.37046957015991,7.71611547470093,1.59603619575500,-0.21509546041489,0.11582704633474
188,3659245293,0.389774,-0.096172,0.303927,0.863976,-3.89160680770874,4.36050176620483,7.70784759521484,1.36472797393799,-0.36590299010277,0.18277862668037
189,3659261960,0.389751,-0.096172,0.303921,0.863989,-3.89249372482300,4.36782646179199,7.70531177520752,1.42631351947784,-0.30694258213043,0.25745242834091
190,3659278627,0.389727,-0.096166,0.303913,0.864003,-3.87769818305969,4.36830139160156,7.69024562835693,1.44237267971039,-0.35123974084854,0.27052772045135
191,3659295294,0.389675,-0.096172,0.303921,0.864023,-3.88555645942688,4.36273527145386,7.70301485061646,1.51863467693329,-0.23249930143356,0.33657011389732
192,3659311961,0.389656,-0.096180,0.303911,0.864034,-3.87888264656067,4.36485004425049,7.68661499023438,1.34637629985809,-0.22372691333294,0.30273568630219
193,3659328628,0.389597,-0.096201,0.303909,0.864060,-3.88837146759033,4.37446784973145,7.70985698699951,1.40579783916473,-0.17537015676498,0.34841597080231
194,3659345295,0.389562,-0.096211,0.303924,0.864069,-3.88917541503906,4.36488628387451,7.69504785537720,1.49348282814026,-0.11836908757687,0.37888225913048
195,3659361962,0.389510,-0.096226,0.303930,0.864088,-3.89244723320007,4.37923717498779,7.70676660537720,1.46080112457275,-0.15756931900978,0.36863717436790
196,3659378629,0.389464,-0.096246,0.303945,0.864102,-3.89012002944946,4.35870504379272,7.71216678619385,1.46501433849335,-0.05606620386243,0.41109019517899
197,3659395296,0.389406,-0.096253,0.303977,0.864116,-3.87729001045227,4.35743618011475,7.70432376861572,1.56843841075897,-0.04044245555997,0.55928534269333
198,3659411963,0.389368,-0.096260,0.303983,0.864130,-3.88716840744019,4.36336946487427,7.69613075256348,1.43150007724762,-0.15363778173923,0.43001803755760
199,3659428630,0.389338,-0.096237,0.304000,0.864140,-3.87612438201904,4.36367511749268,7.68804740905762,1.55526065826416,-0.28134268522263,0.50220739841461
200,3659445297,0.389292,-0.096221,0.304007,0.864161,-3.88535594940186,4.35967111587524,7.72041749954224,1.47584867477417,-0.27350521087646,0.53955072164536
201,3659461964,0.389222,-0.096207,0.304030,0.864185,-3.88445758819580,4.37061548233032,7.70324182510376,1.60658860206604,-0.23369026184082,0.58142751455307
202,3659478631,0.389209,-0.096187,0.304032,0.864193,-3.87608814239502,4.35908365249634,7.71930027008057,1.42695391178131,-0.28459548950195,0.46599105000496
203,3659495298,0.389155,-0.096197,0.304041,0.864213,-3.89109754562378,4.35513544082642,7.71387195587158,1.45799648761749,-0.14387933909893,0.46209788322449
204,3659511965,0.389128,-0.096168,0.304046,0.864226,-3.89965534210205,4.36805820465088,7.70737600326538,1.50240910053253,-0.35989686846733,0.48297229409218
205,3659528632,0.389094,-0.096134,0.304069,0.864237,-3.88712787628174,4.35979557037354,7.69783020019531,1.61195456981659,-0.32085034251213,0.55831205844879
206,3659545299,0.389087,-0.096120,0.304078,0.864239,-3.86931276321411,4.37399482727051,7.70034885406494,1.53050613403320,-0.30636632442474,0.29163262248039
207,3659561966,0.389087,-0.096125,0.304062,0.864244,-3.87234616279602,4.36031055450439,7.70130252838135,1.33509409427643,-0.28150919079781,0.18503254652023
208,3659578633,0.389063,-0.096134,0.304057,0.864255,-3.87272524833679,4.36364078521729,7.71678209304810,1.43764710426331,-0.26269662380219,0.20602215826511
209,3659595300,0.389079,-0.096143,0.304055,0.864248,-3.87067532539368,4.38027572631836,7.70549869537354,1.44796931743622,-0.25913649797440,0.05449742451310
210,3659611967,0.389054,-0.096153,0.304046,0.864262,-3.90390014648438,4.36317873001099,7.70048093795776,1.40317261219025,-0.26749908924103,0.20834010839462
211,3659628634,0.389023,-0.096126,0.304079,0.864267,-3.88541746139526,4.37076759338379,7.70099115371704,1.73347401618958,-0.32196444272995,0.39699047803879
212,3659645301,0.389004,-0.096121,0.304081,0.864275,-3.88977050781250,4.37864780426025,7.71239328384399,1.44326937198639,-0.25152954459190,0.35141265392303
213,3659661968,0.388981,-0.096127,0.304073,0.864288,-3.88464450836182,4.35984039306641,7.69152641296387,1.35599398612976,-0.22277927398682,0.33586576581001
214,3659678635,0.388965,-0.096131,0.304072,0.864295,-3.88242363929749,4.37832069396973,7.72718906402588,1.42119109630585,-0.22148580849171,0.29213204979897
215,3659695302,0.388928,-0.096125,0.304089,0.864306,-3.88036227226257,4.35953903198242,7.70691299438477,1.52695882320404,-0.19241541624069,0.46410852670670
216,3659711969,0.388896,-0.096127,0.304097,0.864318,-3.87209391593933,4.38618373870850,7.69888639450073,1.45706164836884,-0.18091531097889,0.41147443652153
217,3659728636,0.388890,-0.096161,0.304068,0.864326,-3.88493013381958,4.34042406082153,7.70902109146118,1.15825116634369,-0.12137858569622,0.18822132050991
218,3659745303,0.388879,-0.096180,0.304064,0.864331,-3.87638258934021,4.34613275527954,7.72690916061401,1.36876165866852,-0.14722177386284,0.22381016612053
219,3659761970,0.388843,-0.096178,0.304073,0.864344,-3.89487934112549,4.38242673873901,7.72436809539795,1.53621780872345,-0.26947119832039,0.31785997748375
220,3659778637,0.388827,-0.096160,0.304073,0.864353,-3.86796188354492,4.36003208160400,7.69359636306763,1.44986438751221,-0.32693326473236,0.38532385230064
221,3659795304,0.388818,-0.096168,0.304071,0.864357,-3.87743949890137,4.37190580368042,7.67580413818359,1.39375996589661,-0.19450286030769,0.27028444409370
222,3659811971,0.388818,-0.096185,0.304046,0.864364,-3.85601019859314,4.34965896606445,7.68978786468506,1.20960462093353,-0.19169825315475,0.23424737155437
223,3659828638,0.388798,-0.096206,0.304055,0.864367,-3.87263369560242,4.36154460906982,7.69849681854248,1.51160383224487,-0.16663621366024,0.13280823826790
224,3659845305,0.388798,-0.096223,0.304029,0.864375,-3.88415622711182,4.35832929611206,7.70833396911621,1.23812425136566,-0.24225774407387,0.16455519199371
225,3659861972,0.388816,-0.096225,0.304047,0.864360,-3.89809584617615,4.37713146209717,7.68838024139404,1.57391965389252,-0.20137986540794,0.11357310414314
226,3659878639,0.388817,-0.096233,0.304019,0.864369,-3.87204289436340,4.38492822647095,7.70941638946533,1.22711074352264,-0.27150741219521,0.22934249043465
227,3659895306,0.388797,-0.096229,0.304019,0.864378,-3.89262533187866,4.37144374847412,7.68434238433838,1.42895162105560,-0.26149284839630,0.34809577465057
228,3659911973,0.388754,-0.096233,0.303972,0.864413,-3.87626338005066,4.37943553924561,7.70571899414062,1.11546504497528,-0.35025361180305,0.40746599435806
229,3659928640,0.388703,-0.096249,0.303940,0.864446,-3.87492465972900,4.33750820159912,7.70989131927490,1.22489523887634,-0.29345747828484,0.33021810650826
230,3659945307,0.388704,-0.096252,0.303936,0.864447,-3.87693238258362,4.34397888183594,7.69895267486572,1.38610184192657,-0.22631384432316,0.24866731464863
231,3659961974,0.388697,-0.096255,0.303932,0.864450,-3.88646626472473,4.38176679611206,7.70387220382690,1.42923343181610,-0.26219719648361,0.20666246116161
232,3659978641,0.388717,-0.096269,0.303901,0.864451,-3.88848114013672,4.37452840805054,7.69077491760254,1.20386743545532,-0.25966158509254,0.11190828680992
233,3659995308,0.388733,-0.096296,0.303862,0.864454,-3.88024687767029,4.35206460952759,7.69754076004028,1.10059690475464,-0.18803563714027,0.13780272006989
234,3660011975,0.388722,-0.096344,0.303839,0.864462,-3.87870883941650,4.36105203628540,7.70333576202393,1.17990660667419,-0.04272197932005,0.13193741440773
235,3660028642,0.388727,-0.096377,0.303813,0.864465,-3.88255500793457,4.35868263244629,7.70764827728271,1.22556138038635,-0.16767354309559,0.06768796592951
236,3660045309,0.388692,-0.096397,0.303824,0.864475,-3.88961482048035,4.37425708770752,7.70741653442383,1.41601717472076,-0.04657669365406,0.39843752980232
237,3660061976,0.388654,-0.096420,0.303797,0.864499,-3.88534045219421,4.39290809631348,7.70455169677734,1.15946757793427,-0.13479962944984,0.42991554737091
238,3660078643,0.388620,-0.096471,0.303754,0.864524,-3.87257432937622,4.34221792221069,7.71302127838135,1.04011237621307,-0.08257533609867,0.23027737438679
239,3660095310,0.388584,-0.096511,0.303748,0.864538,-3.85883975028992,4.36019134521484,7.71360158920288,1.27053713798523,0.00561558501795,0.33189579844475
240,3660111977,0.388574,-0.096553,0.303724,0.864546,-3.87973809242249,4.35088729858398,7.70350265502930,1.15974950790405,-0.04420752450824,0.21188747882843
241,3660128644,0.388565,-0.096589,0.303717,0.864548,-3.88845920562744,4.34244346618652,7.72626876831055,1.28448331356049,-0.02762329764664,0.21893095970154
242,3660145311,0.388566,-0.096646,0.303673,0.864557,-3.87805843353271,4.36111640930176,7.70356750488281,1.04696393013000,-0.07818276435137,0.02367253974080
243,3660161978,0.388573,-0.096696,0.303658,0.864553,-3.89651560783386,4.33971214294434,7.73151636123657,1.25828158855438,-0.03744576871395,0.00676815630868
244,3660178645,0.388577,-0.096752,0.303669,0.864541,-3.89447903633118,4.36742496490479,7.69660472869873,1.37736773490906,0.11504585295916,0.06483215093613
245,3660195312,0.388570,-0.096820,0.303635,0.864549,-3.90242409706116,4.36931753158569,7.71092176437378,1.11185371875763,-0.01660983450711,-0.02280811034143
246,3660211979,0.388571,-0.096850,0.303631,0.864547,-3.88679671287537,4.35628223419189,7.72344684600830,1.33519649505615,-0.07381580024958,0.15393874049187
247,3660228646,0.388585,-0.096893,0.303608,0.864543,-3.88690757751465,4.35018348693848,7.68000936508179,1.19763064384460,-0.07153627276421,0.05451023206115
248,3660245313,0.388591,-0.096949,0.303601,0.864537,-3.88752222061157,4.37196350097656,7.71070289611816,1.21389472484589,0.11485375463963,0.15621826052666
249,3660261980,0.388582,-0.097026,0.303551,0.864550,-3.89744186401367,4.37503337860107,7.71400833129883,0.89634835720062,0.09645101428032,0.13855829834938
250,3660278647,0.388576,-0.097080,0.303505,0.864563,-3.89116215705872,4.36482429504395,7.72650194168091,0.98478907346725,-0.04422032088041,0.15876670181751
251,3660295314,0.388552,-0.097127,0.303483,0.864576,-3.90321707725525,4.35092258453369,7.70791339874268,1.15772593021393,-0.00697946036234,0.25604373216629
252,3660311981,0.388533,-0.097165,0.303463,0.864587,-3.88855481147766,4.36049938201904,7.72598600387573,1.15689373016357,-0.01545726507902,0.33586576581001
253,3660328648,0.388489,-0.097202,0.303462,0.864603,-3.89483428001404,4.33714199066162,7.71290922164917,1.29552245140076,0.02045814506710,0.39549210667610
254,3660345315,0.388417,-0.097232,0.303537,0.864606,-3.88794112205505,4.34446811676025,7.71827173233032,1.77191853523254,0.26240849494934,0.62129366397858
255,3660361982,0.388378,-0.097245,0.303538,0.864622,-3.90161347389221,4.34743881225586,7.68810749053955,1.31369447708130,-0.05735963582993,0.55222898721695
256,3660378649,0.388362,-0.097263,0.303476,0.864649,-3.88035368919373,4.36775732040405,7.69923019409180,0.90267479419708,-0.23886404931545,0.40838810801506
257,3660395316,0.388309,-0.097272,0.303466,0.864675,-3.90813946723938,4.35168743133545,7.71177721023560,1.33196914196014,-0.19733303785324,0.46646484732628
258,3660411983,0.388284,-0.097269,0.303436,0.864697,-3.87908363342285,4.34330606460571,7.70007610321045,1.18645071983337,-0.28930824995041,0.45716750621796
259,3660428650,0.388220,-0.097281,0.303433,0.864726,-3.89189720153809,4.35028982162476,7.68196535110474,1.35705685615540,-0.14977027475834,0.51848429441452
260,3660445317,0.388191,-0.097302,0.303400,0.864748,-3.88424301147461,4.36812305450439,7.72118806838989,1.13358604907990,-0.18470597267151,0.36549961566925
261,3660461984,0.388157,-0.097315,0.303370,0.864772,-3.89635610580444,4.35464096069336,7.70448637008667,1.18427348136902,-0.23114179074764,0.39121472835541
262,3660478651,0.388077,-0.097347,0.303347,0.864812,-3.89598369598389,4.35914897918701,7.71196031570435,1.21731388568878,-0.13346774876118,0.45656555891037
263,3660495318,0.388023,-0.097352,0.303329,0.864843,-3.88540887832642,4.34729719161987,7.69492053985596,1.21783912181854,-0.17360286414623,0.61157363653183
264,3660511985,0.387958,-0.097355,0.303313,0.864877,-3.89024615287781,4.36902999877930,7.73508501052856,1.29307627677917,-0.23791638016701,0.54872012138367
265,3660528652,0.387913,-0.097328,0.303283,0.864911,-3.90577459335327,4.32435178756714,7.69125699996948,1.22283339500427,-0.40781822800636,0.64761066436768
266,3660545319,0.387843,-0.097268,0.303314,0.864938,-3.88337492942810,4.34922266006470,7.69230747222900,1.68903577327728,-0.40639668703079,0.84292030334473
267,3660561986,0.387757,-0.097259,0.303282,0.864989,-3.88920879364014,4.36511945724487,7.69910287857056,1.26263570785522,-0.41609111428261,0.56579095125198
268,3660578653,0.387740,-0.097257,0.303264,0.865003,-3.89865303039551,4.34163999557495,7.69260406494141,1.26138067245483,-0.23931227624416,0.42944177985191
269,3660595320,0.387683,-0.097250,0.303260,0.865030,-3.88420867919922,4.35405206680298,7.70523595809937,1.37050366401672,-0.23575212061405,0.59660303592682
270,3660611987,0.387640,-0.097219,0.303271,0.865049,-3.88281369209290,4.35269880294800,7.70854187011719,1.53364360332489,-0.34613004326820,0.56976085901260
271,3660628654,0.387616,-0.097177,0.303242,0.865075,-3.90242981910706,4.35560894012451,7.72563171386719,1.28298485279083,-0.51258689165115,0.55717223882675
272,3660645321,0.387578,-0.097145,0.303197,0.865111,-3.89178538322449,4.33291292190552,7.73624277114868,1.18428635597229,-0.53503650426865,0.53185415267944
273,3660661988,0.387511,-0.097111,0.303189,0.865148,-3.90553164482117,4.35605144500732,7.73370313644409,1.48951292037964,-0.50280290842056,0.53565764427185
274,3660678655,0.387499,-0.097055,0.303196,0.865157,-3.88103103637695,4.34685468673706,7.69889020919800,1.59090077877045,-0.52917128801346,0.47299614548683
275,3660695322,0.387468,-0.097027,0.303229,0.865163,-3.86156058311462,4.34338474273682,7.68207216262817,1.69841003417969,-0.29405939579010,0.46627280116081
276,3660711989,0.387407,-0.097038,0.303237,0.865186,-3.87422633171082,4.35944604873657,7.70116329193115,1.48083031177521,-0.16924872994423,0.42297452688217
277,3660728656,0.387406,-0.097048,0.303241,0.865184,-3.86716198921204,4.33440303802490,7.70745611190796,1.42904150485992,-0.16664904356003,0.22716544568539
278,3660745323,0.387434,-0.097034,0.303259,0.865167,-3.87521314620972,4.34452724456787,7.70734739303589,1.57997691631317,-0.26610314846039,0.16474726796150
279,3660761990,0.387421,-0.097013,0.303274,0.865169,-3.88785791397095,4.35819959640503,7.70802164077759,1.65232026576996,-0.39855927228928,0.20803277194500
280,3660778657,0.387393,-0.096996,0.303323,0.865167,-3.90365195274353,4.38101387023926,7.71817159652710,1.79963147640228,-0.19837033748627,0.38828209042549
281,3660795324,0.387347,-0.096995,0.303345,0.865180,-3.89214634895325,4.36539649963379,7.69257783889771,1.52516603469849,-0.12564310431480,0.53029179573059
282,3660811991,0.387293,-0.097008,0.303399,0.865184,-3.88766574859619,4.37978267669678,7.71000719070435,1.71692824363708,0.05139828473330,0.50671523809433
283,3660828658,0.387272,-0.097019,0.303407,0.865189,-3.89126491546631,4.33908176422119,7.70117330551147,1.36590600013733,-0.05598935484886,0.46967923641205
284,3660845325,0.387240,-0.097028,0.303470,0.865180,-3.87223553657532,4.32361078262329,7.70739221572876,1.78387963771820,0.04998958483338,0.42793056368828
285,3660861992,0.387202,-0.097058,0.303529,0.865173,-3.88169765472412,4.36719751358032,7.69600820541382,1.74484598636627,0.12672525644302,0.31782159209251
286,3660878659,0.387218,-0.097096,0.303554,0.865153,-3.88440299034119,4.35410976409912,7.70693016052246,1.51255154609680,0.05280698090792,0.07760008424520
287,3660895326,0.387224,-0.097138,0.303602,0.865129,-3.88258886337280,4.36165475845337,7.68701648712158,1.65992701053619,0.13946755230427,0.07794584333897
288,3660911993,0.387246,-0.097204,0.303610,0.865109,-3.89309859275818,4.34809494018555,7.72107505798340,1.38369405269623,0.11682591587305,-0.11196590214968
289,3660928660,0.387262,-0.097255,0.303638,0.865086,-3.90066361427307,4.35634565353394,7.71976327896118,1.54619395732880,0.09419710189104,-0.05180168524384
290,3660945327,0.387273,-0.097318,0.303668,0.865063,-3.89193558692932,4.36564826965332,7.71152591705322,1.54336380958557,0.15167200565338,-0.08753140270710
291,3660961994,0.387259,-0.097380,0.303689,0.865055,-3.87873339653015,4.36848211288452,7.68649864196777,1.48768174648285,0.12098799645901,0.01664185151458
292,3660978661,0.387241,-0.097457,0.303716,0.865046,-3.90139889717102,4.36741018295288,7.69051122665405,1.47182750701904,0.24068893492222,0.02829563245177
293,3660995328,0.387216,-0.097529,0.303765,0.865031,-3.88246750831604,4.35266351699829,7.69044065475464,1.60585856437683,0.31871801614761,0.11371399462223
294,3661011995,0.387238,-0.097597,0.303836,0.864989,-3.88169193267822,4.36383199691772,7.69916915893555,1.74967408180237,0.36534598469734,-0.04164625704288
295,3661028662,0.387251,-0.097629,0.303893,0.864959,-3.90096139907837,4.35378503799438,7.70064496994019,1.75465571880341,0.10134305059910,0.06365396082401
296,3661045329,0.387258,-0.097639,0.303962,0.864931,-3.89792060852051,4.36152887344360,7.70167350769043,1.86454689502716,0.01602714508772,0.17305859923363
297,3661061996,0.387254,-0.097673,0.304011,0.864912,-3.89414525032043,4.38021802902222,7.69819784164429,1.70590198040009,0.07233667373657,0.10622227936983
298,3661078663,0.387229,-0.097728,0.304054,0.864901,-3.90769028663635,4.37358236312866,7.72135877609253,1.65069353580475,0.14964859187603,0.08180055767298
299,3661095330,0.387214,-0.097758,0.304090,0.864892,-3.90786218643188,4.36907148361206,7.70235776901245,1.59512686729431,0.04881140217185,0.23041824996471
300,3661111997,0.387215,-0.097778,0.304128,0.864876,-3.88071727752686,4.34911298751831,7.69032907485962,1.61251783370972,0.01215962879360,0.21859800815582
301,3661128664,0.387196,-0.097811,0.304137,0.864878,-3.90237355232239,4.35602045059204,7.71139955520630,1.45026159286499,-0.05732122436166,0.16134080290794
302,3661145331,0.387247,-0.097827,0.304155,0.864846,-3.88488078117371,4.36434507369995,7.70064067840576,1.54376041889191,-0.12209572643042,-0.05712912231684
303,3661161998,0.387251,-0.097858,0.304160,0.864840,-3.91449165344238,4.36204099655151,7.70212268829346,1.48704123497009,-0.14650464057922,-0.03516623377800
304,3661178665,0.387278,-0.097885,0.304156,0.864826,-3.91640257835388,4.35584163665771,7.69483137130737,1.39273524284363,-0.14723460376263,-0.03512781858444
305,3661195332,0.387317,-0.097897,0.304161,0.864805,-3.90936756134033,4.37300729751587,7.68173646926880,1.47639906406403,-0.19708971679211,-0.02341000735760
306,3661211999,0.387316,-0.097925,0.304142,0.864809,-3.90508270263672,4.36827230453491,7.69235801696777,1.23551189899445,-0.12677006423473,0.18618513643742
307,3661228666,0.387309,-0.097959,0.304166,0.864800,-3.89858818054199,4.37172126770020,7.67938280105591,1.51413977146149,0.02754005603492,0.16920390725136
308,3661245333,0.387300,-0.097998,0.304169,0.864799,-3.89902424812317,4.37176322937012,7.68619823455811,1.36613667011261,-0.01201235596091,0.16072608530521
309,3661262000,0.387292,-0.098042,0.304210,0.864783,-3.89853167533875,4.36014413833618,7.68268013000488,1.55686151981354,0.19822306931019,0.24750190973282
310,3661278667,0.387219,-0.098088,0.304249,0.864796,-3.90938663482666,4.38097000122070,7.68000078201294,1.55454349517822,0.17870619893074,0.47024273872375
311,3661295334,0.387151,-0.098125,0.304307,0.864802,-3.91096210479736,4.36496829986572,7.68463182449341,1.63911676406860,0.24490225315094,0.57205325365067
312,3661312001,0.387078,-0.098147,0.304357,0.864815,-3.91552877426147,4.37735939025879,7.72643041610718,1.62104690074921,0.14548651874065,0.65502548217773
313,3661328668,0.387006,-0.098155,0.304402,0.864830,-3.91039681434631,4.33491325378418,7.70623254776001,1.59837961196899,0.06251420080662,0.72671550512314
314,3661345335,0.386946,-0.098229,0.304477,0.864823,-3.89243650436401,4.37365436553955,7.68386173248291,1.60769009590149,0.58088970184326,0.55668568611145
315,3661362002,0.386943,-0.098246,0.304488,0.864818,-3.91960239410400,4.33063030242920,7.65500736236572,1.41217529773712,-0.04702491685748,0.32185557484627
316,3661378669,0.386925,-0.098219,0.304549,0.864807,-3.92802190780640,4.35061740875244,7.72125720977783,1.90401601791382,-0.22152422368526,0.35731637477875
317,3661395336,0.386862,-0.098188,0.304644,0.864806,-3.91699028015137,4.35530948638916,7.68655204772949,2.15197277069092,-0.16440792381763,0.53326278924942
318,3661412003,0.386855,-0.098138,0.304714,0.864790,-3.93327903747559,4.40512561798096,7.69241333007812,2.03808569908142,-0.35588848590851,0.33265134692192
319,3661428670,0.386831,-0.098095,0.304766,0.864787,-3.91963052749634,4.33334302902222,7.69050216674805,1.86852955818176,-0.33605143427849,0.45192965865135
320,3661445337,0.386833,-0.098041,0.304865,0.864758,-3.90688419342041,4.37388181686401,7.68176126480103,2.25680541992188,-0.31278228759766,0.27716144919395
321,3661462004,0.386841,-0.097997,0.304898,0.864747,-3.92415547370911,4.37748908996582,7.67606353759766,1.80255103111267,-0.46155357360840,0.22478342056274
322,3661478671,0.386841,-0.097943,0.304908,0.864750,-3.89413499832153,4.37024450302124,7.66736364364624,1.67243897914886,-0.58587771654129,0.27759686112404
323,3661495338,0.386868,-0.097934,0.304894,0.864744,-3.91551852226257,4.36251592636108,7.68567085266113,1.44945478439331,-0.42911514639854,-0.00696665467694
324,3661512005,0.386898,-0.097912,0.304890,0.864734,-3.90638947486877,4.36090278625488,7.68887090682983,1.52029943466187,-0.45625180006027,0.05643118545413
325,3661528672,0.386909,-0.097896,0.304920,0.864720,-3.90652275085449,4.37838840484619,7.68288898468018,1.73962104320526,-0.32374456524849,0.09705292433500
326,3661545339,0.386906,-0.097884,0.304952,0.864712,-3.91606760025024,4.40328884124756,7.67170095443726,1.70111238956451,-0.25170883536339,0.21843151748180
327,3661562006,0.386877,-0.097887,0.304969,0.864719,-3.90499162673950,4.39021253585815,7.66442871093750,1.50219118595123,-0.13496612012386,0.41914543509483
328,3661578673,0.386814,-0.097937,0.305001,0.864730,-3.87992143630981,4.38732099533081,7.69861698150635,1.48567104339600,0.20027209818363,0.43727925419807
329,3661595340,0.386786,-0.097997,0.305025,0.864727,-3.90301609039307,4.36895990371704,7.67900037765503,1.36480462551117,0.27711021900177,0.36095336079597
330,3661612007,0.386748,-0.098060,0.305076,0.864719,-3.91086983680725,4.37097120285034,7.66306686401367,1.50216555595398,0.42593276500702,0.46488973498344
331,3661628674,0.386700,-0.098131,0.305107,0.864721,-3.92164421081543,4.39082002639771,7.68904113769531,1.42496895790100,0.32300812005997,0.33777388930321
332,3661645341,0.386644,-0.098191,0.305127,0.864733,-3.92134594917297,4.39346027374268,7.69988584518433,1.30843114852905,0.29661428928375,0.52283847332001
333,3661662008,0.386576,-0.098222,0.305134,0.864757,-3.93296480178833,4.37058067321777,7.70600080490112,1.28685235977173,0.09942208975554,0.66862589120865
334,3661678675,0.386484,-0.098201,0.305153,0.864794,-3.90930199623108,4.36684179306030,7.70887899398804,1.48245680332184,-0.16266626119614,0.90889871120453
335,3661695342,0.386407,-0.098197,0.305175,0.864821,-3.90570640563965,4.37685251235962,7.69009494781494,1.50297248363495,-0.10690740495920,0.72259193658829
336,3661712009,0.386354,-0.098198,0.305189,0.864840,-3.91870760917664,4.35874795913696,7.67069482803345,1.52895653247833,-0.20340326428413,0.42746958136559
337,3661728676,0.386319,-0.098198,0.305152,0.864868,-3.90054678916931,4.36164903640747,7.69022178649902,1.19668281078339,-0.36261180043221,0.36912381649017
338,3661745343,0.386332,-0.098192,0.305126,0.864872,-3.90381002426147,4.35776901245117,7.68036937713623,1.28927278518677,-0.37084627151489,0.18194623291492
339,3661762010,0.386347,-0.098210,0.305079,0.864880,-3.91251540184021,4.37586975097656,7.68720817565918,1.15328240394592,-0.35474869608879,-0.01053962763399
340,3661778677,0.386384,-0.098218,0.305033,0.864879,-3.91116786003113,4.37672424316406,7.68541002273560,1.21717309951782,-0.45225623250008,-0.12688530981541
341,3661795344,0.386410,-0.098224,0.305018,0.864872,-3.91566395759583,4.38860273361206,7.70542383193970,1.41343045234680,-0.35896196961403,-0.06172660738230
342,3661812011,0.386431,-0.098204,0.305013,0.864866,-3.92499947547913,4.37127542495728,7.67765283584595,1.45457720756531,-0.38182133436203,0.18544232845306
343,3661828678,0.386432,-0.098194,0.305050,0.864854,-3.90651059150696,4.38678789138794,7.67827320098877,1.68801152706146,-0.16748145222664,0.28855910897255
344,3661845345,0.386390,-0.098229,0.305064,0.864864,-3.90628623962402,4.41072893142700,7.66169738769531,1.46360564231873,-0.02055419236422,0.27816033363342
345,3661862012,0.386386,-0.098246,0.305069,0.864862,-3.90530204772949,4.36693048477173,7.66362619400024,1.37930154800415,-0.07613375037909,0.30262044072151
346,3661878679,0.386342,-0.098268,0.305117,0.864863,-3.91325068473816,4.38378810882568,7.67280340194702,1.65682780742645,0.08459234237671,0.43502527475357
347,3661895346,0.386299,-0.098295,0.305131,0.864873,-3.92043042182922,4.37624931335449,7.68974781036377,1.43617451190948,-0.01083417236805,0.39943644404411
348,3661912013,0.386245,-0.098303,0.305202,0.864872,-3.91750669479370,4.39678716659546,7.69963121414185,1.83069968223572,0.07397587597370,0.52312016487122
349,3661928680,0.386195,-0.098318,0.305259,0.864872,-3.91248679161072,4.38252592086792,7.67533969879150,1.72319030761719,0.08068640530109,0.49769955873489
350,3661945347,0.386135,-0.098318,0.305355,0.864865,-3.91509151458740,4.38560009002686,7.67410326004028,1.99335312843323,0.12240949273109,0.60933250188828
351,3661962014,0.386084,-0.098286,0.305428,0.864866,-3.90763831138611,4.38350820541382,7.66533946990967,1.92792546749115,-0.15069229900837,0.63482993841171
352,3661978681,0.386016,-0.098285,0.305471,0.864881,-3.89401721954346,4.38220882415771,7.67500162124634,1.69153320789337,-0.07934813946486,0.56678986549377
353,3661995348,0.385970,-0.098303,0.305500,0.864890,-3.91222381591797,4.39441394805908,7.66948890686035,1.55015110969543,-0.01758311688900,0.43893122673035
354,3662012015,0.385932,-0.098313,0.305521,0.864897,-3.92848777770996,4.38295507431030,7.68680810928345,1.52325761318207,-0.08745455741882,0.40961745381355
355,3662028682,0.385911,-0.098313,0.305562,0.864893,-3.92677450180054,4.38620471954346,7.67409515380859,1.70783555507660,-0.12404230982065,0.31638726592064
356,3662045349,0.385926,-0.098328,0.305561,0.864884,-3.90561938285828,4.37987995147705,7.65936040878296,1.43901765346527,-0.20563155412674,0.04472617805004
357,3662062016,0.385875,-0.098363,0.305563,0.864903,-3.90494394302368,4.38362026214600,7.67023038864136,1.40723228454590,-0.08459875732660,0.26860681176186
358,3662078683,0.385861,-0.098387,0.305559,0.864908,-3.92043995857239,4.36690521240234,7.68509054183960,1.36170554161072,-0.11798490583897,0.21871326863766
359,3662095350,0.385863,-0.098407,0.305532,0.864914,-3.91561174392700,4.40160942077637,7.68291139602661,1.21489369869232,-0.20971678197384,0.16620720922947
360,3662112017,0.385865,-0.098415,0.305525,0.864915,-3.92266631126404,4.38050699234009,7.67168807983398,1.37818741798401,-0.23152601718903,0.18992459774017
361,3662128684,0.385863,-0.098415,0.305552,0.864906,-3.91142416000366,4.38682508468628,7.68355607986450,1.63021636009216,-0.18155562877655,0.20171920955181
362,3662145351,0.385847,-0.098450,0.305517,0.864921,-3.92889261245728,4.40048694610596,7.67187643051147,1.16808640956879,-0.18811246752739,0.12755765020847
363,3662162018,0.385823,-0.098475,0.305534,0.864923,-3.91551017761230,4.37544298171997,7.66334962844849,1.49035811424255,-0.04019912704825,0.27413910627365
364,3662178685,0.385788,-0.098511,0.305547,0.864930,-3.91615653038025,4.41275167465210,7.66307115554810,1.42484092712402,0.02082952857018,0.29811263084412
365,3662195352,0.385743,-0.098550,0.305529,0.864953,-3.90823507308960,4.39043474197388,7.66488218307495,1.21536743640900,-0.06029229611158,0.34232011437416
366,3662212019,0.385715,-0.098581,0.305525,0.864963,-3.92776346206665,4.38491773605347,7.66315793991089,1.31049299240112,-0.04171027988195,0.31634882092476
367,3662228686,0.385705,-0.098617,0.305522,0.864964,-3.92912864685059,4.38605022430420,7.68943309783936,1.36544513702393,-0.07512205094099,0.12394625693560
368,3662245353,0.385708,-0.098646,0.305524,0.864959,-3.91016602516174,4.40875101089478,7.68889856338501,1.35823512077332,-0.04509115964174,0.17829641699791
369,3662262020,0.385715,-0.098640,0.305524,0.864956,-3.92793416976929,4.36403417587280,7.68194150924683,1.41427564620972,-0.23845423758030,0.29725462198257
370,3662278687,0.385672,-0.098638,0.305573,0.864959,-3.90610742568970,4.37980699539185,7.66718482971191,1.78359782695770,-0.13710476458073,0.36739495396614
371,3662295354,0.385671,-0.098632,0.305604,0.864949,-3.92357254028320,4.42660140991211,7.66871213912964,1.64548158645630,-0.16910785436630,0.27054056525230
372,3662312021,0.385646,-0.098645,0.305583,0.864966,-3.91004419326782,4.35883665084839,7.67745971679688,1.21052658557892,-0.16581660509109,0.42045164108276
373,3662328688,0.385623,-0.098679,0.305611,0.864962,-3.92062425613403,4.40030813217163,7.67039585113525,1.55900025367737,0.01673149876297,0.19625090062618
374,3662345355,0.385587,-0.098696,0.305593,0.864982,-3.93634152412415,4.38393974304199,7.68829679489136,1.23291206359863,-0.14425072073936,0.41781356930733
375,3662362022,0.385573,-0.098680,0.305632,0.864977,-3.91073775291443,4.38298177719116,7.68646907806396,1.72041153907776,-0.21150968968868,0.35597175359726
376,3662378689,0.385557,-0.098699,0.305654,0.864974,-3.91576457023621,4.39473247528076,7.68286466598511,1.52417993545532,-0.05547711253166,0.27024602890015
377,3662395356,0.385556,-0.098718,0.305686,0.864961,-3.93140983581543,4.38575839996338,7.66623258590698,1.61693608760834,-0.04959899187088,0.15619263052940
378,3662412023,0.385540,-0.098726,0.305760,0.864941,-3.92775034904480,4.39235687255859,7.67259788513184,1.89803528785706,0.03508299216628,0.28365424275398
379,3662428690,0.385525,-0.098732,0.305824,0.864924,-3.90719676017761,4.40693092346191,7.65800094604492,1.79306173324585,0.03960363566875,0.37337553501129
380,3662445357,0.385493,-0.098751,0.305861,0.864923,-3.91669893264771,4.41922616958618,7.65447044372559,1.61358094215393,-0.00297107314691,0.34890261292458
381,3662462024,0.385461,-0.098768,0.305872,0.864932,-3.91482114791870,4.36454391479492,7.67733764648438,1.48207247257233,-0.11889415979385,0.30096843838692
382,3662478691,0.385459,-0.098777,0.305921,0.864914,-3.90652608871460,4.38889694213867,7.67832279205322,1.77646493911743,-0.08628919720650,0.14228497445583
383,3662495358,0.385479,-0.098792,0.305918,0.864905,-3.93944525718689,4.39002037048340,7.67142391204834,1.42777359485626,-0.21711887419224,0.02086794748902
384,3662512025,0.385466,-0.098790,0.305939,0.864903,-3.92656016349792,4.40112304687500,7.67326021194458,1.58513796329498,-0.19730745255947,0.27760964632034
385,3662528692,0.385437,-0.098797,0.305937,0.864916,-3.92583870887756,4.40338850021362,7.65840291976929,1.38925206661224,-0.19570665061474,0.36886772513390
386,3662545359,0.385444,-0.098788,0.305923,0.864919,-3.92966294288635,4.40741205215454,7.68650817871094,1.32013607025146,-0.29425150156021,0.30752530694008
387,3662562026,0.385411,-0.098796,0.305901,0.864941,-3.91590642929077,4.38164615631104,7.67082309722900,1.27997541427612,-0.27347958087921,0.32880938053131
388,3662578693,0.385396,-0.098799,0.305899,0.864947,-3.93184375762939,4.39107799530029,7.67457056045532,1.39221036434174,-0.20039376616478,0.33931064605713
389,3662595360,0.385374,-0.098816,0.305906,0.864953,-3.91928529739380,4.39853239059448,7.64970779418945,1.43666100502014,-0.11857399344444,0.27973550558090
390,3662612027,0.385350,-0.098822,0.305883,0.864971,-3.93075346946716,4.39141130447388,7.67366600036621,1.25086665153503,-0.25060746073723,0.36502581834793
391,3662628694,0.385322,-0.098832,0.305908,0.864974,-3.89982128143311,4.38915205001831,7.67433404922485,1.56971907615662,-0.10321918874979,0.32896313071251
392,3662645361,0.385306,-0.098864,0.305863,0.864993,-3.92291545867920,4.39914035797119,7.66120147705078,1.07015621662140,-0.20039375126362,0.20900602638721
393,3662662028,0.385290,-0.098865,0.305880,0.864994,-3.91849589347839,4.36188316345215,7.64632797241211,1.54538714885712,-0.18708798289299,0.29637095332146
394,3662678695,0.385280,-0.098886,0.305877,0.864997,-3.92547535896301,4.41569471359253,7.66907787322998,1.37029874324799,-0.12916485965252,0.21750943362713
395,3662695362,0.385264,-0.098900,0.305866,0.865007,-3.93910408020020,4.39548301696777,7.65652894973755,1.31218338012695,-0.18085126578808,0.28831577301025
396,3662712029,0.385211,-0.098918,0.305864,0.865029,-3.92535090446472,4.40287399291992,7.66069889068604,1.32947194576263,-0.07982198148966,0.50804710388184
397,3662728696,0.385174,-0.098930,0.305870,0.865041,-3.91194152832031,4.38821125030518,7.66751623153687,1.39942026138306,-0.09823751449585,0.43873918056488
398,3662745363,0.385156,-0.098951,0.305870,0.865047,-3.91529393196106,4.38031482696533,7.67990398406982,1.35153734683990,-0.08686546981335,0.31433826684952
399,3662762030,0.385137,-0.098969,0.305879,0.865051,-3.91453433036804,4.36845445632935,7.66711711883545,1.48039495944977,-0.14226575195789,0.21524274349213
400,3662778697,0.385156,-0.098977,0.305904,0.865032,-3.91846394538879,4.39683198928833,7.67259883880615,1.57803034782410,-0.11620481312275,0.14908511936665
401,3662795364,0.385165,-0.098998,0.305893,0.865030,-3.93256163597107,4.39604091644287,7.66116476058960,1.33988356590271,-0.17745758593082,0.09262192994356
402,3662812031,0.385155,-0.099024,0.305886,0.865034,-3.93801784515381,4.37794160842896,7.67393302917480,1.35592997074127,-0.14719618856907,0.15014804899693
403,3662828698,0.385147,-0.099027,0.305908,0.865029,-3.92765498161316,4.39225006103516,7.67812538146973,1.56177914142609,-0.13947395980358,0.28744491934776
404,3662845365,0.385141,-0.099038,0.305924,0.865025,-3.92771220207214,4.39056491851807,7.66739702224731,1.52173364162445,-0.14044722914696,0.21968650817871
405,3662862032,0.385111,-0.099068,0.305934,0.865032,-3.92894411087036,4.39486265182495,7.64800071716309,1.44433224201202,-0.05410683155060,0.24597798287868
406,3662878699,0.385086,-0.099090,0.305934,0.865040,-3.92244601249695,4.39135456085205,7.66326856613159,1.37391006946564,-0.10580606758595,0.29482138156891
407,3662895366,0.385063,-0.099110,0.305939,0.865046,-3.92195796966553,4.39136362075806,7.67482662200928,1.40578508377075,-0.08464998751879,0.30789667367935
408,3662912033,0.385051,-0.099126,0.305954,0.865044,-3.91146278381348,4.38823461532593,7.67152023315430,1.46334958076477,-0.06660582125187,0.31118789315224
409,3662928700,0.385071,-0.099146,0.305986,0.865022,-3.92496919631958,4.39484405517578,7.67907047271729,1.57493102550507,-0.00948950368911,0.14301490783691
410,3662945367,0.385058,-0.099178,0.305991,0.865022,-3.92536544799805,4.39085674285889,7.66909742355347,1.37884056568146,-0.01434311270714,0.24243059754372
411,3662962034,0.385023,-0.099214,0.306013,0.865026,-3.92127656936646,4.41011190414429,7.66773319244385,1.49768340587616,0.02956345677376,0.26552042365074
412,3662978701,0.385027,-0.099225,0.306023,0.865020,-3.92363262176514,4.39662122726440,7.66373920440674,1.43087267875671,-0.09376809000969,0.28610026836395
413,3662995368,0.385001,-0.099223,0.306026,0.865030,-3.91503906250000,4.39659214019775,7.65333175659180,1.42034590244293,-0.20191770792007,0.42027240991592
414,3663012035,0.384979,-0.099238,0.306045,0.865031,-3.92401480674744,4.39628505706787,7.68928861618042,1.51525366306305,-0.09352477639914,0.29726740717888
415,3663028702,0.384963,-0.099253,0.306059,0.865032,-3.92707157135010,4.37932062149048,7.67011785507202,1.46459186077118,-0.07568553090096,0.32277762889862
416,3663045369,0.384932,-0.099264,0.306070,0.865041,-3.91005444526672,4.40741300582886,7.67028856277466,1.42596769332886,-0.08503416180611,0.43346297740936
417,3663062036,0.384904,-0.099288,0.306078,0.865048,-3.92178988456726,4.39131116867065,7.66068696975708,1.41350734233856,-0.05652723461390,0.32113844156265
418,3663078703,0.384869,-0.099319,0.306075,0.865060,-3.91474294662476,4.38442039489746,7.64357280731201,1.31811261177063,-0.03405207768083,0.34444597363472
419,3663095370,0.384861,-0.099342,0.306078,0.865060,-3.92689800262451,4.39338827133179,7.68000984191895,1.35197281837463,-0.04886902868748,0.29384809732437
420,3663112037,0.384871,-0.099380,0.306077,0.865052,-3.92238879203796,4.39348125457764,7.69900417327881,1.32049465179443,-0.00174166343641,0.13483163714409
421,3663128704,0.384854,-0.099408,0.306092,0.865051,-3.91990947723389,4.39372920989990,7.67346858978271,1.46331119537354,-0.02841728925705,0.24355755746365
422,3663145371,0.384835,-0.099440,0.306070,0.865064,-3.92074155807495,4.37062358856201,7.66457939147949,1.23670291900635,-0.14190717041492,0.19016790390015
423,3663162038,0.384825,-0.099449,0.306080,0.865063,-3.93335604667664,4.37817621231079,7.66490459442139,1.49398231506348,-0.16792967915535,0.23198062181473
424,3663178705,0.384804,-0.099431,0.306101,0.865067,-3.94677162170410,4.40725421905518,7.66170310974121,1.58395981788635,-0.26148003339767,0.41472721099854
425,3663195372,0.384778,-0.099440,0.306099,0.865079,-3.92768287658691,4.39889574050903,7.66245079040527,1.38036453723907,-0.16924871504307,0.36382195353508
426,3663212039,0.384800,-0.099444,0.306087,0.865073,-3.92883682250977,4.37702417373657,7.66086816787720,1.31628155708313,-0.21823298931122,0.19558498263359
427,3663228706,0.384768,-0.099446,0.306124,0.865074,-3.94760084152222,4.38060379028320,7.66705179214478,1.67638325691223,-0.12655235826969,0.34678953886032
428,3663245373,0.384758,-0.099428,0.306128,0.865078,-3.91802668571472,4.41337537765503,7.67217636108398,1.46671760082245,-0.29394412040710,0.38925537467003
429,3663262040,0.384754,-0.099419,0.306108,0.865089,-3.93350696563721,4.39847755432129,7.67960834503174,1.29045116901398,-0.32921284437180,0.33744093775749
430,3663278707,0.384730,-0.099432,0.306094,0.865103,-3.92637038230896,4.37921476364136,7.68734550476074,1.34697818756104,-0.24598436057568,0.23189096152782
431,3663295374,0.384737,-0.099404,0.306114,0.865096,-3.93226695060730,4.39058780670166,7.67624044418335,1.62307035923004,-0.34093064069748,0.29214483499527
432,3663312041,0.384715,-0.099402,0.306142,0.865096,-3.94069838523865,4.41951084136963,7.67343521118164,1.61126291751862,-0.15288218855858,0.35159191489220
433,3663328708,0.384718,-0.099401,0.306122,0.865101,-3.92018961906433,4.39960050582886,7.64842224121094,1.23498666286469,-0.22317624092102,0.37123686075211
434,3663345375,0.384677,-0.099400,0.306116,0.865122,-3.89978981018066,4.38764524459839,7.66576766967773,1.36926126480103,-0.23842862248421,0.46250769495964
435,3663362042,0.384671,-0.099396,0.306109,0.865128,-3.90741157531738,4.36588096618652,7.65973663330078,1.38715183734894,-0.27657875418663,0.28675338625908
436,3663378709,0.384695,-0.099399,0.306106,0.865118,-3.92947745323181,4.38403558731079,7.67396259307861,1.42776083946228,-0.26005855202675,0.09479900449514
437,3663395376,0.384679,-0.099416,0.306118,0.865119,-3.94322562217712,4.38232088088989,7.65419673919678,1.48832190036774,-0.12071264535189,0.22621776163578
438,3663412043,0.384666,-0.099431,0.306116,0.865124,-3.93726015090942,4.41224479675293,7.65584611892700,1.35927248001099,-0.13134191930294,0.30003356933594
439,3663428710,0.384628,-0.099459,0.306106,0.865141,-3.92957806587219,4.40905237197876,7.68006277084351,1.23288631439209,-0.03023578971624,0.44737058877945
440,3663445377,0.384581,-0.099455,0.306077,0.865172,-3.92694401741028,4.40367650985718,7.66452217102051,1.16341209411621,-0.25311750173569,0.60555464029312
441,3663462044,0.384523,-0.099459,0.306073,0.865199,-3.91196846961975,4.38211727142334,7.65568876266479,1.37423038482666,-0.20135426521301,0.51651215553284
442,3663478711,0.384454,-0.099458,0.306100,0.865220,-3.90973997116089,4.37472581863403,7.67319631576538,1.60793352127075,-0.16416460275650,0.51363068819046
443,3663495378,0.384414,-0.099443,0.306106,0.865237,-3.93554115295410,4.39145183563232,7.67401885986328,1.47989535331726,-0.27441450953484,0.50855946540833
444,3663512045,0.384394,-0.099438,0.306117,0.865243,-3.91788029670715,4.38830518722534,7.65727281570435,1.47198116779327,-0.19107073545456,0.40254840254784
445,3663528712,0.384349,-0.099458,0.306126,0.865258,-3.92076110839844,4.40378236770630,7.67081594467163,1.40842306613922,-0.05340247601271,0.44332379102707
446,3663545379,0.384343,-0.099496,0.306110,0.865262,-3.92364811897278,4.39766025543213,7.68094015121460,1.21854341030121,-0.03937952592969,0.21419261395931
447,3663562046,0.384315,-0.099513,0.306092,0.865278,-3.93177747726440,4.38483476638794,7.65674829483032,1.24267053604126,-0.15758213400841,0.37343958020210
448,3663578713,0.384265,-0.099536,0.306096,0.865296,-3.93939352035522,4.40504789352417,7.67802143096924,1.37515223026276,-0.05654003471136,0.43576803803444
449,3663595380,0.384216,-0.099562,0.306085,0.865319,-3.93722343444824,4.39685297012329,7.67318487167358,1.25807666778564,-0.07060141116381,0.44913792610168
450,3663612047,0.384134,-0.099579,0.306099,0.865348,-3.91161274909973,4.39187335968018,7.66231775283813,1.40175116062164,-0.00773503584787,0.68171405792236
451,3663628714,0.384130,-0.099585,0.306104,0.865348,-3.92551636695862,4.39136362075806,7.67058134078979,1.29397284984589,-0.02228304743767,0.54020380973816
452,3663645381,0.384108,-0.099608,0.306121,0.865349,-3.92067885398865,4.37756872177124,7.64723968505859,1.43678927421570,0.00853543169796,0.36999464035034
453,3663662048,0.384061,-0.099641,0.306124,0.865365,-3.91939353942871,4.39167499542236,7.65374851226807,1.34489059448242,-0.00011525712762,0.41023215651512
454,3663678715,0.384032,-0.099648,0.306125,0.865377,-3.92726063728333,4.39202833175659,7.66117858886719,1.33584964275360,-0.09331987798214,0.50894361734390
455,3663695382,0.384027,-0.099656,0.306116,0.865381,-3.93754220008850,4.40086603164673,7.69408702850342,1.29357588291168,-0.15052583813667,0.35343605279922
456,3663712049,0.383999,-0.099665,0.306088,0.865403,-3.92830157279968,4.38881921768188,7.67747402191162,1.20468699932098,-0.25494882464409,0.36182421445847
457,3663728716,0.383967,-0.099654,0.306085,0.865419,-3.92404460906982,4.38553142547607,7.65747165679932,1.42254865169525,-0.29279160499573,0.44092905521393
458,3663745383,0.383911,-0.099656,0.306086,0.865443,-3.91648769378662,4.39326238632202,7.65224647521973,1.43059086799622,-0.22331711649895,0.46490249037743
459,3663762050,0.383882,-0.099682,0.306069,0.865460,-3.91387653350830,4.38818264007568,7.65563249588013,1.22372996807098,-0.10220748186111,0.35407635569572
460,3663778717,0.383843,-0.099725,0.306033,0.865485,-3.92185115814209,4.39924621582031,7.68306303024292,1.05790054798126,-0.04450206458569,0.37237662076950
461,3663795384,0.383797,-0.099756,0.306034,0.865501,-3.91944265365601,4.36801719665527,7.66681957244873,1.33806502819061,-0.01613599993289,0.39574819803238
462,3663812051,0.383777,-0.099777,0.306039,0.865506,-3.92566800117493,4.40440654754639,7.66900634765625,1.37392282485962,-0.05874272063375,0.35064426064491
463,3663828718,0.383745,-0.099785,0.306038,0.865519,-3.93993401527405,4.38307952880859,7.67030620574951,1.32605278491974,-0.10032495111227,0.50715065002441
464,3663845385,0.383675,-0.099810,0.306033,0.865550,-3.92574810981750,4.39721632003784,7.65855407714844,1.33728396892548,-0.11190189421177,0.45315909385681
465,3663862052,0.383646,-0.099828,0.306016,0.865566,-3.93198442459106,4.38481569290161,7.67204904556274,1.24657654762268,-0.14445564150810,0.37141615152359
466,3663878719,0.383591,-0.099829,0.306008,0.865593,-3.93471693992615,4.38458824157715,7.67000579833984,1.34702956676483,-0.22779935598373,0.51651215553284
467,3663895386,0.383550,-0.099820,0.305984,0.865621,-3.91893315315247,4.37750339508057,7.65991353988647,1.27496802806854,-0.34128925204277,0.46412128210068
468,3663912053,0.383508,-0.099803,0.305997,0.865637,-3.91398715972900,4.38821220397949,7.65619993209839,1.50211429595947,-0.23976050317287,0.56760942935944
469,3663928720,0.383478,-0.099813,0.305967,0.865659,-3.93465852737427,4.40246772766113,7.66005992889404,1.21320319175720,-0.27158427238464,0.32427597045898
470,3663945387,0.383424,-0.099815,0.305943,0.865691,-3.92297101020813,4.38511562347412,7.66517019271851,1.25646305084229,-0.29006382822990,0.47849008440971
471,3663962054,0.383375,-0.099807,0.305927,0.865720,-3.92642879486084,4.39063358306885,7.68749570846558,1.28668594360352,-0.26521950960159,0.57191240787506
472,3663978721,0.383350,-0.099808,0.305892,0.865744,-3.93214607238770,4.39073038101196,7.66322803497314,1.16603744029999,-0.31046435236931,0.39723378419876
473,3663995388,0.383353,-0.099817,0.305889,0.865742,-3.90404391288757,4.38338232040405,7.66613578796387,1.36402356624603,-0.16577820479870,0.25792631506920
474,3664012055,0.383322,-0.099818,0.305867,0.865763,-3.92298150062561,4.38612270355225,7.68514251708984,1.27412283420563,-0.28510773181915,0.38449141383171
475,3664028722,0.383282,-0.099832,0.305868,0.865779,-3.90792584419250,4.37410449981689,7.65836334228516,1.39657723903656,-0.14207363128662,0.39071536064148
476,3664045389,0.383254,-0.099864,0.305856,0.865792,-3.91522359848022,4.39413213729858,7.64997291564941,1.26506900787354,-0.06917991489172,0.29867613315582
477,3664062056,0.383218,-0.099911,0.305824,0.865814,-3.90875649452209,4.37884807586670,7.65878391265869,1.11599004268646,-0.06249498575926,0.25613337755203
478,3664078723,0.383212,-0.099939,0.305817,0.865816,-3.93370771408081,4.38783931732178,7.68155002593994,1.26145756244659,-0.02900638245046,0.30940780043602
479,3664095390,0.383168,-0.099947,0.305807,0.865837,-3.93165373802185,4.39778995513916,7.67780256271362,1.31007039546967,-0.17538295686245,0.46536359190941
480,3664112057,0.383159,-0.099963,0.305781,0.865849,-3.92273736000061,4.39277648925781,7.68948364257812,1.20656955242157,-0.20705309510231,0.26947763562202
481,3664128724,0.383137,-0.099971,0.305756,0.865867,-3.93118667602539,4.35810184478760,7.67080307006836,1.24810039997101,-0.26317048072815,0.31536278128624
482,3664145391,0.383113,-0.099956,0.305786,0.865868,-3.91549563407898,4.39051866531372,7.67340707778931,1.69833338260651,-0.27823078632355,0.30429807305336
483,3664162058,0.383138,-0.099947,0.305796,0.865855,-3.90250658988953,4.38934946060181,7.66276693344116,1.50108993053436,-0.24385851621628,0.20247481763363
484,3664178725,0.383100,-0.099981,0.305804,0.865865,-3.91031241416931,4.38702011108398,7.63128662109375,1.43158984184265,-0.05073875933886,0.24419786036015
485,3664195392,0.383105,-0.100029,0.305795,0.865860,-3.92147397994995,4.39099121093750,7.65663909912109,1.24851012229919,0.03095935098827,0.12609772384167
486,3664212059,0.383097,-0.100063,0.305805,0.865856,-3.92177486419678,4.39373397827148,7.68483209609985,1.44425535202026,-0.03032543696463,0.13438344001770
487,3664228726,0.383084,-0.100084,0.305796,0.865863,-3.93507480621338,4.40117931365967,7.67766427993774,1.34371268749237,-0.15915732085705,0.20812238752842
488,3664245393,0.383074,-0.100065,0.305819,0.865861,-3.93425178527832,4.37845373153687,7.67409658432007,1.62864124774933,-0.29318860173225,0.31482493877411
489,3664262060,0.383053,-0.100049,0.305855,0.865860,-3.94270658493042,4.41263628005981,7.66832780838013,1.68142902851105,-0.19765321910381,0.41573899984360
490,3664278727,0.383019,-0.100027,0.305885,0.865867,-3.94298768043518,4.39962339401245,7.68013620376587,1.61356818675995,-0.20682255923748,0.55829924345016
491,3664295394,0.382973,-0.100011,0.305900,0.865884,-3.91955709457397,4.40065526962280,7.67017269134521,1.54961311817169,-0.26702520251274,0.51544922590256
492,3664312061,0.382941,-0.100003,0.305880,0.865906,-3.93155813217163,4.35797929763794,7.65275001525879,1.31372022628784,-0.34093067049980,0.40224108099937
493,3664328728,0.382896,-0.100003,0.305913,0.865914,-3.91404747962952,4.39203023910522,7.65825939178467,1.67444944381714,-0.17570310831070,0.36019775271416
494,3664345395,0.382884,-0.099996,0.305907,0.865923,-3.93143892288208,4.39229488372803,7.65810680389404,1.41131746768951,-0.30137184262276,0.29954692721367
495,3664362062,0.382876,-0.099987,0.305928,0.865919,-3.92232656478882,4.38499498367310,7.67001485824585,1.61790943145752,-0.25427007675171,0.24990950524807
496,3664378729,0.382899,-0.100012,0.305907,0.865914,-3.92415928840637,4.40955591201782,7.66354751586914,1.26846265792847,-0.19983029365540,0.01589908450842
497,3664395396,0.382924,-0.100047,0.305892,0.865904,-3.93148136138916,4.37950325012207,7.66594076156616,1.26844978332520,-0.09197521209717,0.02059901319444
498,3664412063,0.382931,-0.100078,0.305902,0.865894,-3.92892336845398,4.40396070480347,7.67129468917847,1.46650004386902,-0.07176677882671,0.05249962955713
499,3664428730,0.382926,-0.100086,0.305899,0.865896,-3.93904376029968,4.38376235961914,7.64178466796875,1.40294206142426,-0.20300625264645,0.23379911482334
500,3664445397,0.382928,-0.100084,0.305922,0.865888,-3.92591691017151,4.41511535644531,7.64325523376465,1.51690578460693,-0.10780385881662,0.37113445997238
501,3664462064,0.382891,-0.100095,0.305923,0.865902,-3.90426850318909,4.38965415954590,7.66262388229370,1.35972070693970,-0.10675372183323,0.46198269724846
502,3664478731,0.382874,-0.100122,0.305940,0.865901,-3.93109893798828,4.38434791564941,7.66330194473267,1.45512807369232,0.00164561613929,0.29795894026756
503,3664495398,0.382862,-0.100147,0.305941,0.865902,-3.92000579833984,4.37012338638306,7.66310644149780,1.36518895626068,-0.07185642421246,0.25279095768929
504,3664512065,0.382843,-0.100151,0.305981,0.865896,-3.92774939537048,4.37358713150024,7.65130996704102,1.66826403141022,-0.07372615486383,0.33277940750122
505,3664528732,0.382837,-0.100176,0.305990,0.865893,-3.93234562873840,4.40691184997559,7.67916011810303,1.44666278362274,-0.08132032305002,0.18161323666573
506,3664545399,0.382817,-0.100182,0.305987,0.865902,-3.95073246955872,4.38994359970093,7.66646718978882,1.40025269985199,-0.21462163329124,0.30154472589493
507,3664562066,0.382791,-0.100201,0.306008,0.865904,-3.93246817588806,4.39292573928833,7.67191934585571,1.51164221763611,-0.04892025515437,0.31951203942299
508,3664578733,0.382748,-0.100185,0.306028,0.865918,-3.92399883270264,4.39524793624878,7.63435983657837,1.56987273693085,-0.23985013365746,0.51674264669418
509,3664595400,0.382735,-0.100186,0.306068,0.865909,-3.92545890808105,4.39483737945557,7.64762020111084,1.67337369918823,-0.09509995579720,0.32162508368492
510,3664612067,0.382700,-0.100218,0.306053,0.865927,-3.92222237586975,4.38237047195435,7.65300703048706,1.26683604717255,-0.10692021250725,0.28113138675690
511,3664628734,0.382708,-0.100234,0.306070,0.865915,-3.92927479743958,4.38800716400146,7.68390846252441,1.50313889980316,-0.08225519210100,0.18192060291767
512,3664645401,0.382717,-0.100254,0.306070,0.865909,-3.92433953285217,4.37656497955322,7.66571760177612,1.36760938167572,-0.10887958109379,0.17701576650143
513,3664662068,0.382671,-0.100281,0.306101,0.865915,-3.92752575874329,4.38163995742798,7.65377044677734,1.63006269931793,-0.04589795693755,0.25259885191917
514,3664678735,0.382644,-0.100318,0.306116,0.865917,-3.93643093109131,4.42568063735962,7.65869045257568,1.43999075889587,0.03005009517074,0.25982162356377
515,3664695402,0.382566,-0.100370,0.306110,0.865948,-3.93494367599487,4.40397262573242,7.64179468154907,1.30762434005737,0.01072531752288,0.34465089440346
516,3664712069,0.382576,-0.100391,0.306125,0.865936,-3.92621946334839,4.40418338775635,7.66062641143799,1.39311969280243,0.03066480532289,0.32573592662811
517,3664728736,0.382546,-0.100419,0.306127,0.865945,-3.92879009246826,4.39750432968140,7.66758537292480,1.38662683963776,-0.06920551508665,0.27465137839317
518,3664745403,0.382508,-0.100431,0.306165,0.865947,-3.92176818847656,4.38595581054688,7.65871047973633,1.63526213169098,-0.03273303061724,0.40207460522652
519,3664762070,0.382497,-0.100456,0.306189,0.865941,-3.92914056777954,4.38850545883179,7.65170955657959,1.54483652114868,-0.03753541037440,0.19371525943279
520,3664778737,0.382484,-0.100492,0.306308,0.865900,-3.92493462562561,4.36623096466064,7.65484094619751,2.11889386177063,0.34732744097710,0.21670266985893
521,3664795404,0.382477,-0.100498,0.306419,0.865863,-3.94585943222046,4.42005634307861,7.64387464523315,2.12113523483276,0.16111029684544,0.31358268857002
522,3664812071,0.382458,-0.100530,0.306406,0.865873,-3.93028140068054,4.43752861022949,7.66390228271484,1.25392735004425,-0.06663144379854,0.27306342124939
523,3664828738,0.382437,-0.100547,0.306429,0.865872,-3.95059466362000,4.36069440841675,7.67178726196289,1.52146482467651,-0.04852325841784,0.31972974538803
524,3664845405,0.382399,-0.100563,0.306452,0.865879,-3.93980002403259,4.38782501220703,7.65817594528198,1.52546036243439,-0.05537465587258,0.38703989982605
525,3664862072,0.382380,-0.100559,0.306513,0.865866,-3.93336462974548,4.40163564682007,7.65903902053833,1.84423601627350,-0.08160205930471,0.32131770253181
526,3664878739,0.382363,-0.100576,0.306480,0.865883,-3.93408131599426,4.42150640487671,7.67240715026855,1.20870804786682,-0.26993224024773,0.20469029247761
527,3664895406,0.382357,-0.100581,0.306471,0.865888,-3.95196771621704,4.36837244033813,7.68617582321167,1.34317469596863,-0.21407093107700,0.29333585500717
528,3664912073,0.382354,-0.100576,0.306507,0.865877,-3.93615651130676,4.40934753417969,7.65956687927246,1.68419504165649,-0.17082388699055,0.25378978252411
529,3664928740,0.382351,-0.100582,0.306518,0.865874,-3.94565224647522,4.41515016555786,7.65792036056519,1.48501789569855,-0.16367796063423,0.24997356534004
530,3664945407,0.382333,-0.100567,0.306536,0.865877,-3.93342137336731,4.40469837188721,7.65401363372803,1.58489453792572,-0.27213490009308,0.35271885991096
531,3664962074,0.382333,-0.100551,0.306548,0.865875,-3.92803740501404,4.37747097015381,7.64338207244873,1.47287750244141,-0.22230543196201,0.40664646029472
532,3664978741,0.382324,-0.100537,0.306570,0.865873,-3.93094134330750,4.39711141586304,7.65236425399780,1.60692143440247,-0.25304067134857,0.31894850730896
533,3664995408,0.382322,-0.100532,0.306550,0.865881,-3.93131256103516,4.38409328460693,7.65823221206665,1.32934379577637,-0.34992066025734,0.22617934644222
534,3665012075,0.382327,-0.100545,0.306560,0.865874,-3.93171691894531,4.40201663970947,7.65253019332886,1.49231755733490,-0.15932381153107,0.13917300105095
535,3665028742,0.382322,-0.100553,0.306540,0.865882,-3.95101833343506,4.41167545318604,7.66503143310547,1.31282389163971,-0.27823078632355,0.19394578039646
536,3665045409,0.382309,-0.100541,0.306570,0.865879,-3.94150280952454,4.40893125534058,7.65656471252441,1.61865210533142,-0.18120984733105,0.39755392074585
537,3665062076,0.382295,-0.100535,0.306550,0.865893,-3.94812297821045,4.40209388732910,7.66288137435913,1.26514577865601,-0.27762889862061,0.40607020258904
538,3665078743,0.382268,-0.100514,0.306547,0.865908,-3.93419575691223,4.38815164566040,7.63806438446045,1.44698321819305,-0.35909008979797,0.42932650446892
539,3665095410,0.382240,-0.100508,0.306563,0.865915,-3.94817876815796,4.39022159576416,7.65001583099365,1.54620671272278,-0.22673642635345,0.36959761381149
540,3665112077,0.382229,-0.100493,0.306585,0.865914,-3.94881296157837,4.39707899093628,7.67156887054443,1.58458733558655,-0.22933611273766,0.38477319478989
541,3665128744,0.382196,-0.100479,0.306620,0.865918,-3.93800091743469,4.41196632385254,7.65461921691895,1.62504267692566,-0.14053690433502,0.53112423419952
542,3665145411,0.382149,-0.100502,0.306610,0.865940,-3.93356370925903,4.39507341384888,7.65715408325195,1.29247450828552,-0.11649937927723,0.40583962202072
543,3665162078,0.382093,-0.100515,0.306617,0.865961,-3.92587208747864,4.37555122375488,7.65518140792847,1.48906457424164,-0.18922662734985,0.34977340698242
544,3665178745,0.382060,-0.100518,0.306621,0.865973,-3.93387055397034,4.38498497009277,7.67947626113892,1.45201599597931,-0.20855140686035,0.36862438917160
545,3665195412,0.382055,-0.100524,0.306639,0.865968,-3.93610167503357,4.40657043457031,7.65272474288940,1.54903686046600,-0.16278150677681,0.21788081526756
546,3665212079,0.382100,-0.100520,0.306631,0.865952,-3.93955636024475,4.42333459854126,7.65222692489624,1.28476500511169,-0.17795702815056,0.26824820041656
547,3665228746,0.382087,-0.100532,0.306630,0.865956,-3.94361472129822,4.40786314010620,7.66120815277100,1.35633981227875,-0.11587186902761,0.34954294562340
548,3665245413,0.382050,-0.100570,0.306621,0.865972,-3.93717813491821,4.40986347198486,7.64329957962036,1.22807121276855,0.01761513389647,0.39407056570053
549,3665262080,0.382007,-0.100592,0.306639,0.865982,-3.92227435112000,4.38321924209595,7.64900064468384,1.46311914920807,-0.00866989884526,0.43373188376427
550,3665278747,0.381988,-0.100635,0.306657,0.865979,-3.92241621017456,4.40481328964233,7.66114425659180,1.43919682502747,0.08323487639427,0.23426017165184
551,3665295414,0.381953,-0.100661,0.306679,0.865983,-3.93842506408691,4.39774513244629,7.64387655258179,1.49352145195007,0.00831772480160,0.34862086176872
552,3665312081,0.381923,-0.100680,0.306703,0.865986,-3.93795037269592,4.40379381179810,7.66101980209351,1.51918542385101,-0.03008211776614,0.36008256673813
553,3665328748,0.381887,-0.100688,0.306717,0.865996,-3.96114110946655,4.40335988998413,7.64507102966309,1.48546612262726,-0.12943376600742,0.40211296081543
554,3665345415,0.381851,-0.100678,0.306746,0.866002,-3.95317840576172,4.39360380172729,7.67088747024536,1.61164712905884,-0.16703324019909,0.48108977079391
555,3665362082,0.381825,-0.100668,0.306752,0.866013,-3.93141222000122,4.41627120971680,7.64959621429443,1.45725369453430,-0.24901947379112,0.43460273742676
556,3665378749,0.381778,-0.100696,0.306746,0.866033,-3.93612670898438,4.37030410766602,7.64351177215576,1.30955815315247,-0.07179240137339,0.39222645759583
557,3665395416,0.381732,-0.100725,0.306793,0.866033,-3.93383121490479,4.38606166839600,7.64980554580688,1.65208971500397,0.10837374627590,0.40402117371559
558,3665412083,0.381701,-0.100757,0.306790,0.866044,-3.94787526130676,4.42448377609253,7.64962148666382,1.32834506034851,-0.04617970064282,0.29293882846832
559,3665428750,0.381674,-0.100790,0.306796,0.866050,-3.92960095405579,4.38367700576782,7.63848972320557,1.35399615764618,0.01300484687090,0.34097546339035
560,3665445417,0.381671,-0.100826,0.306828,0.866036,-3.94449734687805,4.40591669082642,7.66778182983398,1.57613503932953,0.05931260436773,0.13613788783550
561,3665462084,0.381639,-0.100850,0.306836,0.866044,-3.94537711143494,4.41171360015869,7.67065334320068,1.39575755596161,-0.04174869880080,0.36069720983505
562,3665478751,0.381615,-0.100873,0.306836,0.866052,-3.95120859146118,4.42054176330566,7.65853261947632,1.38281035423279,-0.10421806573868,0.27699494361877
563,3665495418,0.381577,-0.100904,0.306828,0.866068,-3.94124794006348,4.40146493911743,7.66868782043457,1.26842415332794,-0.04086506366730,0.38318520784378
564,3665512085,0.381551,-0.100947,0.306838,0.866071,-3.94573187828064,4.39466571807861,7.64952373504639,1.42938721179962,0.01739742793143,0.17366051673889
565,3665528752,0.381478,-0.100982,0.306825,0.866104,-3.93581080436707,4.39481115341187,7.65352296829224,1.30115711688995,-0.11170978844166,0.37361884117126
566,3665545419,0.381473,-0.101021,0.306831,0.866099,-3.93816018104553,4.40192222595215,7.65527105331421,1.38475704193115,0.00543629564345,0.16043154895306
567,3665562086,0.381439,-0.101071,0.306816,0.866114,-3.94115471839905,4.38934898376465,7.66669940948486,1.26150870323181,-0.02987721189857,0.16844834387302
568,3665578753,0.381435,-0.101098,0.306837,0.866105,-3.94863748550415,4.38481521606445,7.64606189727783,1.50148689746857,-0.01198674272746,0.19772364199162
569,3665595420,0.381411,-0.101093,0.306887,0.866098,-3.93803477287292,4.42189931869507,7.64375543594360,1.77090680599213,-0.11439910531044,0.34865924715996
570,3665612087,0.381423,-0.101109,0.306893,0.866089,-3.94909024238586,4.42132282257080,7.65272283554077,1.37032425403595,-0.05323599278927,0.28120821714401
571,3665628754,0.381392,-0.101141,0.306884,0.866102,-3.94744300842285,4.40606021881104,7.62945938110352,1.27012741565704,-0.04432277753949,0.33240804076195
572,3665645421,0.381379,-0.101174,0.306902,0.866098,-3.94755911827087,4.40049171447754,7.64333391189575,1.40441465377808,0.09126445651054,0.34552168846130
573,3665662088,0.381350,-0.101195,0.306904,0.866107,-3.94644570350647,4.39617252349854,7.65863275527954,1.34863030910492,-0.06015142798424,0.38697588443756
574,3665678755,0.381333,-0.101212,0.306921,0.866107,-3.92779064178467,4.38887357711792,7.63925743103027,1.48843729496002,-0.06583745032549,0.29987990856171
575,3665695422,0.381302,-0.101237,0.306916,0.866119,-3.95949983596802,4.41174983978271,7.66324758529663,1.33970427513123,-0.10250202566385,0.31506821513176
576,3665712089,0.381290,-0.101241,0.306894,0.866132,-3.95851922035217,4.39626216888428,7.67233562469482,1.29303801059723,-0.29939967393875,0.24117557704449
577,3665728756,0.381279,-0.101243,0.306935,0.866122,-3.94186830520630,4.41322517395020,7.65673875808716,1.69687342643738,-0.10707389563322,0.27673885226250
578,3665745423,0.381224,-0.101315,0.306921,0.866143,-3.94599723815918,4.41829442977905,7.67019748687744,1.18678367137909,0.13516463339329,0.25937342643738
579,3665762090,0.381154,-0.101600,0.306795,0.866185,-3.93030142784119,4.38532924652100,7.66532230377197,-0.20307029783726,1.24635887145996,0.07147864252329
580,3665778757,0.381111,-0.101700,0.306818,0.866184,-3.93520998954773,4.38024854660034,7.59764242172241,1.29518961906433,0.48425295948982,0.26776158809662
581,3665795424,0.381111,-0.101742,0.306788,0.866189,-3.94827938079834,4.42600202560425,7.66120004653931,1.17802393436432,-0.11299040913582,0.06460162997246
582,3665812091,0.381092,-0.101785,0.306785,0.866194,-3.96160197257996,4.37679767608643,7.68137502670288,1.37949359416962,-0.06537641584873,0.08090411871672
583,3665828758,0.381067,-0.101787,0.306828,0.866189,-3.96997117996216,4.40319490432739,7.64244365692139,1.73995399475098,-0.13832139968872,0.27635464072227
584,3665845425,0.381016,-0.101772,0.306879,0.866196,-3.94525170326233,4.41772413253784,7.64493608474731,1.76956212520599,-0.13809086382389,0.55009031295776
585,3665862092,0.381012,-0.101764,0.306876,0.866199,-3.93156337738037,4.40596866607666,7.64377689361572,1.37288570404053,-0.22933611273766,0.39025431871414
586,3665878759,0.381013,-0.101788,0.306875,0.866196,-3.95225381851196,4.38522720336914,7.65341520309448,1.39473319053650,-0.12427280843258,0.12628982961178
587,3665895426,0.381028,-0.101824,0.306861,0.866190,-3.94185185432434,4.38420915603638,7.66552543640137,1.28997719287872,-0.10653601586819,0.01582224480808
588,3665912093,0.381065,-0.101854,0.306889,0.866161,-3.97372174263000,4.38824462890625,7.63849592208862,1.60188865661621,-0.04163344204426,-0.09466454386711
589,3665928760,0.381103,-0.101895,0.306866,0.866147,-3.96484255790710,4.40351200103760,7.66179227828979,1.25093066692352,-0.13163647055626,-0.13070160150528
590,3665945427,0.381132,-0.101954,0.306877,0.866124,-3.95334935188293,4.39260721206665,7.63672304153442,1.39276087284088,0.11770954728127,-0.07291935384274
591,3665962094,0.381145,-0.102018,0.306872,0.866112,-3.94404149055481,4.40626859664917,7.65252399444580,1.27198421955109,0.10362258553505,-0.01325457356870
592,3665978761,0.381147,-0.102072,0.306894,0.866097,-3.93531799316406,4.37984180450439,7.63256025314331,1.47856366634369,0.12223020941019,0.04377851262689
593,3665995428,0.381095,-0.102147,0.307011,0.866070,-3.94091868400574,4.38841390609741,7.63374280929565,2.09830141067505,0.47979629039764,0.12818516790867
594,3666012095,0.381061,-0.102138,0.307072,0.866064,-3.97865009307861,4.41326951980591,7.65178918838501,1.80661094188690,-0.06066367402673,0.48809477686882
595,3666028762,0.381023,-0.102161,0.307083,0.866074,-3.95077991485596,4.42084026336670,7.64557075500488,1.36935102939606,0.02648993395269,0.48660930991173
596,3666045429,0.380964,-0.102160,0.307158,0.866074,-3.97004890441895,4.39875411987305,7.66051101684570,1.82302856445312,0.09391536563635,0.68568390607834
597,3666062096,0.380892,-0.102179,0.307210,0.866085,-3.95944523811340,4.38576459884644,7.62970733642578,1.64861905574799,0.11422624439001,0.61842507123947
598,3666078763,0.380838,-0.102171,0.307288,0.866082,-3.95228219032288,4.40681457519531,7.63639783859253,1.88096451759338,0.04242102801800,0.64066964387894
599,3666095430,0.380800,-0.102189,0.307298,0.866093,-3.95099425315857,4.40043163299561,7.63624906539917,1.42265093326569,-0.06556851416826,0.40831124782562
600,3666112097,0.380796,-0.102189,0.307333,0.866082,-3.97428393363953,4.39461612701416,7.65569877624512,1.60730576515198,-0.07087034732103,0.35953187942505
601,3666128764,0.380788,-0.102181,0.307327,0.866089,-3.97679305076599,4.40222883224487,7.66812419891357,1.41709303855896,-0.31745657324791,0.28474277257919
602,3666145431,0.380795,-0.102173,0.307342,0.866081,-3.97098779678345,4.40214395523071,7.67145538330078,1.58444654941559,-0.27508038282394,0.17001070082188
603,3666162098,0.380816,-0.102177,0.307297,0.866088,-3.97303247451782,4.39362144470215,7.64741277694702,1.16091489791870,-0.39120835065842,0.07537177205086
604,3666178765,0.380858,-0.102171,0.307276,0.866077,-3.96060085296631,4.39683151245117,7.64644718170166,1.38373255729675,-0.42043241858482,-0.06088138371706
605,3666195432,0.380899,-0.102205,0.307208,0.866079,-3.96009564399719,4.41206073760986,7.62999916076660,1.01593410968781,-0.35942298173904,-0.21601749956608
606,3666212099,0.380938,-0.102222,0.307137,0.866085,-3.95071434974670,4.39025354385376,7.62620162963867,1.04410815238953,-0.48274818062782,-0.18482124805450
607,3666228766,0.381000,-0.102217,0.307088,0.866076,-3.96160984039307,4.40932035446167,7.63272380828857,1.14328038692474,-0.44712087512016,-0.04241462796926
608,3666245433,0.381004,-0.102231,0.307023,0.866096,-3.96263027191162,4.39720344543457,7.62020254135132,1.07936418056488,-0.47383499145508,-0.02028525993228
609,3666262100,0.381044,-0.102231,0.306982,0.866093,-3.96267557144165,4.41340303421021,7.64333248138428,1.21598207950592,-0.42222532629967,-0.02052857540548
610,3666278767,0.381066,-0.102233,0.306964,0.866089,-3.95616507530212,4.40876531600952,7.64729928970337,1.32422137260437,-0.29513514041901,0.11180584132671
611,3666295434,0.381051,-0.102235,0.306955,0.866099,-3.96948099136353,4.43261623382568,7.64933204650879,1.34619712829590,-0.22851651906967,0.34325501322746
612,3666312101,0.381025,-0.102227,0.306926,0.866121,-3.96403074264526,4.38145971298218,7.63857746124268,1.18273687362671,-0.29147252440453,0.50954544544220
613,3666328768,0.380961,-0.102195,0.306958,0.866142,-3.94783830642700,4.37435388565063,7.61986970901489,1.63263678550720,-0.24019593000412,0.73707592487335
614,3666345435,0.380914,-0.102168,0.306960,0.866165,-3.95208001136780,4.40949392318726,7.63514804840088,1.41624772548676,-0.29434114694595,0.66739648580551
615,3666362102,0.380861,-0.102140,0.306940,0.866199,-3.96485662460327,4.38127994537354,7.63790893554688,1.30863606929779,-0.40685775876045,0.63146185874939
616,3666378769,0.380806,-0.102137,0.306949,0.866220,-3.95844435691833,4.38268899917603,7.64907932281494,1.44020843505859,-0.16171857714653,0.58059507608414
617,3666395436,0.380767,-0.102138,0.306920,0.866247,-3.96297669410706,4.40658473968506,7.66061878204346,1.21590530872345,-0.29888737201691,0.43606260418892
618,3666412103,0.380728,-0.102125,0.306874,0.866282,-3.97261524200439,4.36348772048950,7.65273714065552,1.15925002098083,-0.45661038160324,0.42936491966248
619,3666428770,0.380710,-0.102069,0.306859,0.866302,-3.95618295669556,4.37403249740601,7.65711355209351,1.44791781902313,-0.60075867176056,0.48484200239182
620,3666445437,0.380758,-0.102017,0.306863,0.866286,-3.93539118766785,4.42603635787964,7.66953516006470,1.55144453048706,-0.51432865858078,0.22446331381798
621,3666462104,0.380759,-0.102011,0.306791,0.866311,-3.94519281387329,4.39164447784424,7.63904094696045,1.03281283378601,-0.55341356992722,0.13953156769276
622,3666478771,0.380769,-0.101997,0.306780,0.866313,-3.95127511024475,4.37368345260620,7.62296152114868,1.40798783302307,-0.37947776913643,0.19544410705566
623,3666495438,0.380774,-0.101985,0.306733,0.866329,-3.95565891265869,4.41465854644775,7.65030527114868,1.20938682556152,-0.51180577278137,0.14553776383400
624,3666512105,0.380757,-0.101978,0.306676,0.866357,-3.95696330070496,4.38662481307983,7.62902212142944,1.09507739543915,-0.47508996725082,0.27860853075981
625,3666528772,0.380730,-0.101972,0.306627,0.866387,-3.96179413795471,4.41268539428711,7.66857576370239,1.14041185379028,-0.44768437743187,0.32955217361450
626,3666545439,0.380729,-0.101972,0.306545,0.866417,-3.96173763275146,4.39143610000610,7.67865514755249,0.90029281377792,-0.49620759487152,0.22921442985535
627,3666562106,0.380740,-0.101941,0.306538,0.866418,-3.94718003273010,4.38240957260132,7.65351819992065,1.46384906768799,-0.45326796174049,0.25937342643738
628,3666578773,0.380745,-0.101901,0.306524,0.866425,-3.93560433387756,4.40074300765991,7.65727996826172,1.40328776836395,-0.47968745231628,0.38023969531059
629,3666595440,0.380734,-0.101881,0.306504,0.866440,-3.94865298271179,4.39746809005737,7.64621019363403,1.32765340805054,-0.40347686409950,0.36502581834793
630,3666612107,0.380707,-0.101880,0.306458,0.866468,-3.93135070800781,4.38057422637939,7.64221763610840,1.12340509891510,-0.36811852455139,0.37217172980309
631,3666628774,0.380679,-0.101887,0.306422,0.866492,-3.92392110824585,4.38403511047363,7.63976287841797,1.16849613189697,-0.29650542140007,0.35086196660995
632,3666645441,0.380662,-0.101908,0.306360,0.866519,-3.95675420761108,4.39417505264282,7.68443632125854,1.01008152961731,-0.34132763743401,0.19237056374550
633,3666662108,0.380626,-0.101911,0.306315,0.866550,-3.96662211418152,4.39566373825073,7.66321516036987,1.16803514957428,-0.40480875968933,0.29446285963058
634,3666678775,0.380601,-0.101891,0.306284,0.866574,-3.96122479438782,4.42150783538818,7.65938425064087,1.24414324760437,-0.40801030397415,0.45341512560844
635,3666695442,0.380557,-0.101883,0.306239,0.866610,-3.95374369621277,4.40101242065430,7.66402339935303,1.10192883014679,-0.36688908934593,0.53656685352325
636,3666712109,0.380502,-0.101863,0.306195,0.866653,-3.95427179336548,4.37490701675415,7.65432882308960,1.11898696422577,-0.41355544328690,0.63824927806854
637,3666728776,0.380445,-0.101855,0.306143,0.866697,-3.92840027809143,4.36895418167114,7.63924884796143,1.08022212982178,-0.41684669256210,0.54685032367706
638,3666745443,0.380421,-0.101829,0.306142,0.866711,-3.93363380432129,4.35741567611694,7.65080070495605,1.43836450576782,-0.34269794821739,0.48714718222618
639,3666762110,0.380437,-0.101832,0.306098,0.866719,-3.97181677818298,4.42061185836792,7.65174674987793,1.08260393142700,-0.29586505889893,0.27518922090530
640,3666778777,0.380393,-0.101850,0.306061,0.866750,-3.95148801803589,4.37023639678955,7.64518547058105,1.12236773967743,-0.21912947297096,0.41212755441666
641,3666795444,0.380370,-0.101890,0.306003,0.866776,-3.95068836212158,4.41018819808960,7.67911195755005,0.90801495313644,-0.12108403444290,0.32556939125061
642,3666812111,0.380327,-0.101929,0.305957,0.866806,-3.94908809661865,4.38535833358765,7.65871906280518,0.98203563690186,-0.07496836781502,0.42141214013100
643,3666828778,0.380295,-0.101944,0.305951,0.866820,-3.95531010627747,4.40060806274414,7.67958498001099,1.32915174961090,-0.13371109962463,0.38925540447235
644,3666845445,0.380265,-0.101947,0.305916,0.866845,-3.95061302185059,4.40265178680420,7.65562534332275,1.15899384021759,-0.29038399457932,0.41963204741478
645,3666862112,0.380207,-0.101937,0.305902,0.866877,-3.93348884582520,4.38597011566162,7.64924573898315,1.32557904720306,-0.29641580581665,0.57161784172058
646,3666878779,0.380135,-0.101917,0.305878,0.866919,-3.92778515815735,4.39279651641846,7.64839076995850,1.23808586597443,-0.34191673994064,0.73561596870422
647,3666895446,0.380083,-0.101922,0.305860,0.866948,-3.93482041358948,4.37898111343384,7.64323759078979,1.21605896949768,-0.17215576767921,0.59181350469589
648,3666912113,0.380042,-0.101940,0.305843,0.866970,-3.94707703590393,4.41088390350342,7.67127275466919,1.22229564189911,-0.12164751440287,0.46748936176300
649,3666928780,0.380007,-0.101951,0.305819,0.866992,-3.93287587165833,4.38608407974243,7.67966842651367,1.17851078510284,-0.16425421833992,0.49316608905792
650,3666945447,0.379973,-0.101952,0.305777,0.867022,-3.94878649711609,4.39013528823853,7.69129276275635,1.10522007942200,-0.30867147445679,0.45296698808670
651,3666962114,0.379888,-0.101910,0.305725,0.867082,-3.97270369529724,4.46292781829834,7.68799638748169,1.27719652652740,-0.74707120656967,0.51368188858032
652,3666978781,0.379861,-0.101874,0.305483,0.867184,-3.94243979454041,4.37795019149780,7.64099597930908,-0.15635272860527,-1.09372627735138,0.58716470003128
653,3666995448,0.379841,-0.101859,0.305399,0.867224,-3.92719221115112,4.34881925582886,7.65208005905151,0.90956467390060,-0.57240551710129,0.36890614032745
654,3667012115,0.379817,-0.101923,0.305243,0.867282,-3.92454767227173,4.36663484573364,7.66603660583496,0.21085014939308,-0.27150744199753,0.26051318645477
655,3667028782,0.379813,-0.101931,0.305140,0.867319,-3.93134784698486,4.35233497619629,7.66436815261841,0.72968655824661,-0.49564415216446,0.24497906863689
656,3667045449,0.379835,-0.101899,0.305069,0.867338,-3.94104123115540,4.37194967269897,7.68001842498779,1.00983834266663,-0.61028665304184,0.28903293609619
657,3667062116,0.379822,-0.101834,0.305051,0.867358,-3.93756437301636,4.35995674133301,7.67472743988037,1.49541664123535,-0.71482485532761,0.40268930792809
658,3667078783,0.379806,-0.101833,0.304982,0.867389,-3.90169477462769,4.36743021011353,7.65676879882812,0.99178123474121,-0.46152800321579,0.28501170873642
659,3667095450,0.379793,-0.101834,0.304953,0.867405,-3.94046545028687,4.37737751007080,7.65329170227051,1.25821757316589,-0.35015124082565,0.24729703366756
660,3667112117,0.379808,-0.101838,0.304916,0.867411,-3.92012906074524,4.36626625061035,7.64687633514404,1.14060401916504,-0.27760323882103,0.24810382723808
661,3667128784,0.379791,-0.101850,0.304921,0.867415,-3.91750597953796,4.36175346374512,7.66037988662720,1.44013178348541,-0.15973362326622,0.27739197015762
662,3667145451,0.379768,-0.101858,0.304898,0.867432,-3.92545604705811,4.36148118972778,7.67555570602417,1.27306008338928,-0.26765272021294,0.28969880938530
663,3667162118,0.379737,-0.101872,0.304916,0.867438,-3.92314696311951,4.36336088180542,7.66174983978271,1.52439749240875,-0.11468086391687,0.31389006972313
664,3667178785,0.379715,-0.101874,0.304923,0.867445,-3.93770241737366,4.39798879623413,7.67640209197998,1.43590557575226,-0.15936221182346,0.40349605679512
665,3667195452,0.379662,-0.101905,0.304921,0.867465,-3.92665576934814,4.37352037429810,7.67467880249023,1.35589146614075,-0.07384140789509,0.34470209479332
666,3667212119,0.379589,-0.101933,0.304942,0.867486,-3.92459750175476,4.37383651733398,7.67099618911743,1.48476171493530,0.01192911434919,0.50816231966019
667,3667228786,0.379552,-0.101950,0.304960,0.867494,-3.94142031669617,4.35743904113770,7.65388917922974,1.46041691303253,-0.02526692859828,0.44648694992065
668,3667245453,0.379511,-0.101977,0.304976,0.867503,-3.92822289466858,4.37665128707886,7.67619228363037,1.45689511299133,-0.01283196173608,0.36616557836533
669,3667262120,0.379477,-0.102018,0.304972,0.867515,-3.94098281860352,4.38123750686646,7.67477560043335,1.32901096343994,-0.02643230557442,0.23981811106205
670,3667278787,0.379453,-0.102030,0.305023,0.867506,-3.93438673019409,4.37151145935059,7.66810083389282,1.74428236484528,-0.01339544076473,0.30034089088440
671,3667295454,0.379426,-0.102058,0.305068,0.867499,-3.94446182250977,4.40174818038940,7.66674757003784,1.64837563037872,0.07856055349112,0.31387722492218
672,3667312121,0.379395,-0.102091,0.305091,0.867500,-3.93257832527161,4.35743045806885,7.66798877716064,1.47274947166443,0.06866124272346,0.34809580445290
673,3667328788,0.379374,-0.102110,0.305133,0.867492,-3.94407486915588,4.38745260238647,7.65879917144775,1.54784584045410,0.12641789019108,0.50049138069153
674,3667345455,0.379342,-0.102128,0.305150,0.867498,-3.92803788185120,4.37074136734009,7.65500974655151,1.41459572315216,0.01648817583919,0.48482918739319
675,3667362122,0.379299,-0.102160,0.305164,0.867508,-3.93591022491455,4.38257932662964,7.66810274124146,1.39283764362335,0.05910770222545,0.44333663582802
676,3667378789,0.379280,-0.102185,0.305146,0.867520,-3.94731473922729,4.36224794387817,7.69384098052979,1.19907784461975,-0.08258815109730,0.36352747678757
677,3667395456,0.379236,-0.102205,0.305155,0.867534,-3.94345974922180,4.36718273162842,7.67565011978149,1.42781186103821,-0.07518607378006,0.38875594735146
678,3667412123,0.379208,-0.102216,0.305166,0.867541,-3.93337535858154,4.36327791213989,7.65543460845947,1.46285009384155,-0.12822997570038,0.36391162872314
679,3667428790,0.379173,-0.102256,0.305193,0.867542,-3.92977333068848,4.36540269851685,7.63830375671387,1.49514782428741,0.11147287487984,0.32603046298027
680,3667445457,0.379166,-0.102330,0.305165,0.867546,-3.93698835372925,4.39176511764526,7.64127779006958,1.12403249740601,0.06412780284882,-0.01303686480969
681,3667462124,0.379155,-0.102384,0.305149,0.867550,-3.93468785285950,4.35361194610596,7.65823888778687,1.18917846679688,0.05278137326241,0.17173956334591
682,3667478791,0.379174,-0.102420,0.305153,0.867536,-3.95266723632812,4.37578439712524,7.67657470703125,1.37602317333221,-0.01383085735142,0.07487232983112
683,3667495458,0.379173,-0.102428,0.305143,0.867539,-3.94874429702759,4.37252616882324,7.66783714294434,1.36027121543884,-0.23225593566895,0.19769804179668
684,3667512125,0.379182,-0.102400,0.305146,0.867537,-3.95938730239868,4.38913965225220,7.68306970596313,1.47733414173126,-0.34659105539322,0.35392269492149
685,3667528792,0.379152,-0.102391,0.305152,0.867550,-3.95880627632141,4.37383651733398,7.65253925323486,1.43883836269379,-0.22729991376400,0.48404803872108
686,3667545459,0.379136,-0.102377,0.305158,0.867556,-3.92462277412415,4.37883758544922,7.65700912475586,1.39283764362335,-0.17780333757401,0.55814552307129
687,3667562126,0.379101,-0.102361,0.305151,0.867575,-3.93399238586426,4.36633682250977,7.66844034194946,1.36854410171509,-0.29167738556862,0.52317130565643
688,3667578793,0.379002,-0.102379,0.305187,0.867604,-3.93184256553650,4.35404539108276,7.63286352157593,1.66118228435516,-0.06369879096746,0.52985638380051
689,3667595460,0.378991,-0.102378,0.305220,0.867597,-3.92887973785400,4.37652111053467,7.65553474426270,1.61457955837250,-0.10686898231506,0.35269325971603
690,3667612127,0.378974,-0.102397,0.305244,0.867594,-3.93279218673706,4.36812448501587,7.67558813095093,1.53671705722809,-0.04715297371149,0.26596865057945
691,3667628794,0.378957,-0.102421,0.305245,0.867599,-3.94780540466309,4.37735652923584,7.68776273727417,1.38169622421265,-0.09502311050892,0.25626143813133
692,3667645461,0.378937,-0.102424,0.305264,0.867600,-3.94475579261780,4.36857366561890,7.66216182708740,1.54974126815796,-0.15589170157909,0.31333935260773
693,3667662128,0.378927,-0.102449,0.305298,0.867590,-3.93648529052734,4.39478731155396,7.68917846679688,1.61171114444733,-0.00615985365584,0.19321578741074
694,3667678795,0.378917,-0.102465,0.305309,0.867588,-3.95809578895569,4.38393211364746,7.65827798843384,1.48335301876068,-0.12045653909445,0.21336020529270
695,3667695462,0.378888,-0.102450,0.305356,0.867586,-3.93785786628723,4.38847970962524,7.66183567047119,1.76059746742249,-0.18185016512871,0.42065656185150
696,3667712129,0.378856,-0.102444,0.305383,0.867591,-3.95493078231812,4.38965082168579,7.64490699768066,1.59241199493408,-0.15879873931408,0.44255542755127
697,3667728796,0.378860,-0.102415,0.305398,0.867588,-3.92071986198425,4.35179281234741,7.67031478881836,1.53024995326996,-0.29535281658173,0.42301291227341
698,3667745463,0.378816,-0.102425,0.305438,0.867592,-3.94994950294495,4.36899280548096,7.68083953857422,1.74470520019531,-0.13910257816315,0.26215240359306
699,3667762130,0.378820,-0.102414,0.305496,0.867571,-3.94876289367676,4.37023353576660,7.67876577377319,1.85376393795013,-0.14834874868393,0.21382120251656
700,3667778797,0.378857,-0.102417,0.305561,0.867531,-3.95789051055908,4.38738441467285,7.67089986801147,1.88977527618408,-0.06454400718212,0.02765531092882
701,3667795464,0.378857,-0.102431,0.305604,0.867514,-3.96533155441284,4.37953090667725,7.65722894668579,1.75500154495239,-0.10726599395275,0.05836494266987
702,3667812131,0.378865,-0.102442,0.305657,0.867491,-3.94400715827942,4.39381742477417,7.65619468688965,1.77879548072815,-0.04173589125276,0.13991577923298
703,3667828798,0.378892,-0.102451,0.305701,0.867463,-3.94992947578430,4.37546253204346,7.66324901580811,1.72468864917755,-0.08006530255079,0.06647136062384
704,3667845465,0.378896,-0.102462,0.305759,0.867440,-3.93180131912231,4.35735130310059,7.65894174575806,1.82971358299255,-0.05034175887704,0.11865722388029
705,3667862132,0.378898,-0.102502,0.305879,0.867392,-3.94195413589478,4.38801097869873,7.66814994812012,2.17221951484680,0.31590065360069,0.05189773067832
706,3667878799,0.378887,-0.102546,0.306012,0.867344,-3.95758771896362,4.39537286758423,7.65482139587402,2.23183298110962,0.38952434062958,0.12768571078777
707,3667895466,0.378889,-0.102552,0.306058,0.867326,-3.94744062423706,4.42187023162842,7.66423368453979,1.75904834270477,-0.09896747767925,0.14670313894749
708,3667912133,0.378884,-0.102572,0.306120,0.867304,-3.93548679351807,4.36850309371948,7.63422393798828,1.82912445068359,0.02970432676375,0.15383626520634
709,3667928800,0.378893,-0.102595,0.306173,0.867279,-3.93972635269165,4.38713216781616,7.67349195480347,1.74587059020996,0.03902735188603,0.10897564142942
710,3667945467,0.378884,-0.102623,0.306215,0.867264,-3.95584297180176,4.37693119049072,7.65127468109131,1.69306981563568,-0.00473834900185,0.11822181195021
711,3667962134,0.378879,-0.102610,0.306278,0.867246,-3.94686698913574,4.39220714569092,7.65222024917603,1.84828245639801,-0.09659828245640,0.34353667497635
712,3667978801,0.378856,-0.102617,0.306289,0.867251,-3.97535848617554,4.39184999465942,7.66820573806763,1.51620125770569,-0.19673113524914,0.25327757000923
713,3667995468,0.378820,-0.102594,0.306326,0.867257,-3.95568227767944,4.39314556121826,7.65789031982422,1.71306049823761,-0.25147831439972,0.47856685519218
714,3668012135,0.378788,-0.102571,0.306367,0.867259,-3.95122981071472,4.41478157043457,7.65287637710571,1.74771463871002,-0.25117096304893,0.43345016241074
715,3668028802,0.378755,-0.102572,0.306344,0.867281,-3.94368267059326,4.37482118606567,7.64040422439575,1.25245463848114,-0.27006033062935,0.41329291462898
716,3668045469,0.378745,-0.102586,0.306380,0.867271,-3.93400859832764,4.36114215850830,7.61592960357666,1.65645658969879,-0.06665704399347,0.21689473092556
717,3668062136,0.378738,-0.102618,0.306405,0.867262,-3.94720554351807,4.40113067626953,7.65519094467163,1.53885579109192,0.00530823227018,0.14868812263012
718,3668078803,0.378710,-0.102664,0.306414,0.867266,-3.96153759956360,4.41385507583618,7.64655447006226,1.42135763168335,0.02289135009050,0.17444169521332
719,3668095470,0.378698,-0.102685,0.306433,0.867262,-3.96248316764832,4.36973762512207,7.65192651748657,1.47779512405396,-0.01535481214523,0.29706251621246
720,3668112137,0.378661,-0.102697,0.306479,0.867260,-3.95999455451965,4.39992761611938,7.64166402816772,1.70982050895691,-0.03000527434051,0.35412755608559
721,3668128804,0.378667,-0.102658,0.306473,0.867264,-3.96737599372864,4.39386415481567,7.67695856094360,1.39863896369934,-0.40387383103371,0.47230455279350
722,3668145471,0.378659,-0.102626,0.306447,0.867281,-3.96036458015442,4.36931180953979,7.67820262908936,1.26642620563507,-0.43060073256493,0.48795390129089
723,3668162138,0.378645,-0.102590,0.306460,0.867287,-3.96008825302124,4.39049291610718,7.66720533370972,1.57148647308350,-0.38357579708099,0.44267073273659
724,3668178805,0.378632,-0.102546,0.306446,0.867302,-3.94295597076416,4.38124465942383,7.66572475433350,1.41241872310638,-0.51499450206757,0.45180165767670
725,3668195472,0.378610,-0.102508,0.306462,0.867310,-3.95155715942383,4.38614511489868,7.64249753952026,1.63176596164703,-0.42381337285042,0.41682749986649
726,3668212139,0.378615,-0.102485,0.306448,0.867316,-3.94447612762451,4.39328527450562,7.64633274078369,1.43230700492859,-0.45722514390945,0.20384508371353
727,3668228806,0.378598,-0.102505,0.306426,0.867329,-3.93971586227417,4.37614154815674,7.62988185882568,1.27533948421478,-0.23243524134159,0.17919282615185
728,3668245473,0.378619,-0.102536,0.306416,0.867320,-3.93153214454651,4.38525342941284,7.64691972732544,1.32547640800476,-0.10741966962814,0.03097216039896
729,3668262140,0.378630,-0.102587,0.306412,0.867310,-3.94825649261475,4.39602136611938,7.66296529769897,1.36023283004761,-0.03715122118592,-0.07674845308065
730,3668278807,0.378644,-0.102643,0.306388,0.867306,-3.95658898353577,4.41956949234009,7.65564298629761,1.22284638881683,-0.05793593451381,-0.10368021577597
731,3668295474,0.378649,-0.102668,0.306415,0.867291,-3.97570061683655,4.38161945343018,7.64232110977173,1.54710316658020,-0.00128063501325,0.16828183829784
732,3668312141,0.378621,-0.102684,0.306439,0.867293,-3.96751236915588,4.44799900054932,7.65890359878540,1.52734291553497,-0.04482222348452,0.35813599824905
733,3668328808,0.378587,-0.102653,0.306403,0.867324,-3.96555113792419,4.39288568496704,7.64524745941162,1.20841348171234,-0.46443510055542,0.57046526670456
734,3668345475,0.378559,-0.102631,0.306444,0.867324,-3.94548439979553,4.38483572006226,7.64896297454834,1.66804635524750,-0.15041059255600,0.56936401128769
735,3668362142,0.378529,-0.102637,0.306471,0.867327,-3.93310427665710,4.37699794769287,7.64033031463623,1.54825544357300,-0.07270164042711,0.43351414799690
736,3668378809,0.378506,-0.102644,0.306516,0.867321,-3.95697784423828,4.38855552673340,7.65537118911743,1.72664809226990,-0.08012932538986,0.28629234433174
737,3668395476,0.378514,-0.102653,0.306529,0.867312,-3.94698810577393,4.38498210906982,7.63782978057861,1.48728454113007,-0.13194382190704,0.20994088053703
738,3668412143,0.378505,-0.102666,0.306546,0.867308,-3.94789600372314,4.39113473892212,7.63584947586060,1.52643358707428,-0.12682127952576,0.21292479336262
739,3668428810,0.378538,-0.102698,0.306528,0.867296,-3.95983743667603,4.41454696655273,7.66032314300537,1.25586128234863,-0.11970096081495,0.00064672069857
740,3668445477,0.378538,-0.102732,0.306539,0.867288,-3.95944976806641,4.38674592971802,7.65049791336060,1.46030175685883,-0.03534552454948,0.09437640011311
741,3668462144,0.378541,-0.102773,0.306521,0.867289,-3.96876478195190,4.42114591598511,7.66812944412231,1.23864936828613,-0.07581359148026,0.08096814900637
742,3668478811,0.378501,-0.102800,0.306509,0.867307,-3.96015644073486,4.39113616943359,7.64312219619751,1.32960009574890,-0.15110212564468,0.26075652241707
743,3668495478,0.378490,-0.102801,0.306537,0.867302,-3.96571493148804,4.40950489044189,7.66472673416138,1.59685552120209,-0.13189257681370,0.31209713220596
744,3668512145,0.378468,-0.102805,0.306543,0.867309,-3.94178915023804,4.37938833236694,7.62997865676880,1.48396778106689,-0.21760550141335,0.29014706611633
745,3668528812,0.378446,-0.102802,0.306581,0.867306,-3.94415879249573,4.37852382659912,7.64417695999146,1.70933377742767,-0.16983780264854,0.28603625297546
746,3668545479,0.378422,-0.102802,0.306610,0.867306,-3.95134687423706,4.38721704483032,7.63016080856323,1.70124030113220,-0.23491963744164,0.19361276924610
747,3668562146,0.378402,-0.102783,0.306689,0.867289,-3.96001291275024,4.39302873611450,7.65758943557739,2.01835107803345,-0.14453247189522,0.32705494761467
748,3668578813,0.378397,-0.102760,0.306723,0.867281,-3.97489571571350,4.41271257400513,7.65820121765137,1.72033464908600,-0.28769469261169,0.29553857445717
749,3668595480,0.378372,-0.102734,0.306746,0.867287,-3.97539305686951,4.40307426452637,7.63622188568115,1.62541401386261,-0.30385628342628,0.43727925419807
750,3668612147,0.378348,-0.102696,0.306810,0.867280,-3.94589376449585,4.39409637451172,7.65621948242188,1.89538455009460,-0.23320363461971,0.51721638441086
751,3668628814,0.378340,-0.102656,0.306854,0.867272,-3.93542170524597,4.37632322311401,7.65211534500122,1.81557524204254,-0.34910109639168,0.36940559744835
752,3668645481,0.378341,-0.102640,0.306893,0.867260,-3.93465781211853,4.38737821578979,7.65540266036987,1.73433196544647,-0.22408550977707,0.26120471954346
753,3668662148,0.378306,-0.102658,0.306919,0.867264,-3.96280884742737,4.39882802963257,7.65359401702881,1.58347308635712,-0.07083191722631,0.30189046263695
754,3668678815,0.378283,-0.102683,0.306942,0.867263,-3.95466065406799,4.39695119857788,7.63382720947266,1.51250040531158,-0.01424066070467,0.28941711783409
755,3668695482,0.378283,-0.102726,0.306945,0.867257,-3.96103858947754,4.42022609710693,7.64310789108276,1.32883167266846,0.06037553772330,0.17664439976215
756,3668712149,0.378295,-0.102758,0.306949,0.867246,-3.96077084541321,4.40422677993774,7.65692138671875,1.34943723678589,0.00288783176802,0.18176694214344
757,3668728816,0.378285,-0.102779,0.306959,0.867245,-3.96289920806885,4.41320610046387,7.64091920852661,1.46701228618622,-0.10279657691717,0.20124539732933
758,3668745483,0.378284,-0.102779,0.306983,0.867237,-3.95319962501526,4.38146400451660,7.61725664138794,1.54116106033325,-0.11347705870867,0.33172929286957
759,3668762150,0.378277,-0.102782,0.307002,0.867233,-3.95749068260193,4.40949630737305,7.64708232879639,1.53131294250488,-0.14016552269459,0.30354255437851
760,3668778817,0.378267,-0.102813,0.306994,0.867236,-3.97304415702820,4.38539075851440,7.63334608078003,1.29461312294006,-0.06241814419627,0.22259356081486
761,3668795484,0.378247,-0.102841,0.306998,0.867240,-3.95850801467896,4.40200185775757,7.64342117309570,1.40978050231934,-0.08412491530180,0.21727895736694
762,3668812151,0.378238,-0.102865,0.306988,0.867244,-3.96757864952087,4.39068841934204,7.62565088272095,1.33031713962555,-0.14330305159092,0.17426238954067
763,3668828818,0.378256,-0.102866,0.307034,0.867221,-3.96760940551758,4.39823770523071,7.66120243072510,1.66789245605469,-0.02673965692520,0.29455244541168
764,3668845485,0.378238,-0.102858,0.307060,0.867220,-3.96558690071106,4.40994977951050,7.64335536956787,1.58949220180511,-0.16686673462391,0.39414742588997
765,3668862152,0.378218,-0.102825,0.307108,0.867216,-3.95835709571838,4.39378738403320,7.65030670166016,1.77358329296112,-0.23512457311153,0.50383377075195
766,3668878819,0.378200,-0.102819,0.307111,0.867223,-3.95410084724426,4.39726781845093,7.65227890014648,1.44793069362640,-0.24498546123505,0.36615273356438
767,3668895486,0.378199,-0.102807,0.307148,0.867212,-3.94326996803284,4.39014148712158,7.60272502899170,1.72044992446899,-0.22284330427647,0.24123962223530
768,3668912153,0.378189,-0.102812,0.307175,0.867206,-3.95889091491699,4.42719459533691,7.65104866027832,1.60514140129089,-0.13057354092598,0.25590288639069
