sep=,
DeviceTag:,A
FirmwareVersion:,3.0.0
AppVersion:,2023.6.0
StartTime: ,2024-03-14_11:53:59_000 EDT
© Movella Technologies B. V. 2005-2024

PacketCounter,SampleTimeFine,Quat_W,Quat_X,Quat_Y,Quat_Z,Acc_X,Acc_Y,Acc_Z,Gyr_X,Gyr_Y,Gyr_Z
0,3501158798,0.774207,-0.055304,0.368226,-0.511816,0.00000000000000,0.00000000000000,0.00000000000000,0.00000000000000,0.00000000000000,0.00000000000000
1,3501175465,0.774169,-0.055303,0.368258,-0.511851,-5.09427356719971,-4.55940961837769,7.18093442916870,0.95175516605377,0.91815125942230,0.63127624988556
2,3501192132,0.774140,-0.055356,0.368305,-0.511854,-5.10805749893188,-4.56849098205566,7.15636682510376,0.49946042895317,0.74534231424332,0.73623698949814
3,3501208799,0.774136,-0.055486,0.368372,-0.511798,-5.07015132904053,-4.60449218750000,7.15673160552979,-0.09072657674551,0.52471458911896,0.91300302743912
4,3501225466,0.774162,-0.055421,0.368308,-0.511812,-5.09123849868774,-4.55631303787231,7.17684412002563,1.58661699295044,0.44674950838089,1.11689293384552
5,3501242133,0.774202,-0.055516,0.368368,-0.511698,-5.09467792510986,-4.56367015838623,7.16721296310425,-0.03829739242792,0.45388266444206,1.49265694618225
6,3501258800,0.774275,-0.055512,0.368365,-0.511590,-5.10343456268311,-4.61651563644409,7.18081092834473,0.75563853979111,0.39392325282097,1.79796004295349
7,3501275467,0.774317,-0.055469,0.368333,-0.511554,-5.10562181472778,-4.59924268722534,7.17116117477417,1.18909513950348,0.43682456016541,1.45463478565216
8,3501292134,0.774342,-0.055543,0.368352,-0.511494,-5.11625337600708,-4.57801723480225,7.18779802322388,0.35332718491554,0.36777275800705,1.19375681877136
9,3501308801,0.774341,-0.055668,0.368380,-0.511463,-5.10393810272217,-4.58017158508301,7.17211723327637,0.12761527299881,0.32794499397278,0.80052483081818
10,3501325468,0.774320,-0.055850,0.368470,-0.511409,-5.08867406845093,-4.60634279251099,7.14406585693359,-0.46743813157082,0.48894640803337,0.74517583847046
11,3501342135,0.774292,-0.055919,0.368498,-0.511423,-5.08342695236206,-4.63474988937378,7.15352821350098,0.50234192609787,0.58665889501572,0.65341842174530
12,3501358802,0.774288,-0.055905,0.368484,-0.511441,-5.09541273117065,-4.56640005111694,7.15832662582397,1.15419781208038,0.62361800670624,0.85525923967361
13,3501375469,0.774260,-0.055940,0.368524,-0.511451,-5.09335088729858,-4.57289409637451,7.17584848403931,0.63683420419693,0.77260708808899,0.74408739805222
14,3501392136,0.774238,-0.055998,0.368604,-0.511420,-5.07968902587891,-4.62479877471924,7.14097642898560,0.24899385869503,0.84911215305328,0.98392462730408
15,3501408803,0.774222,-0.055896,0.368598,-0.511460,-5.09618282318115,-4.61368513107300,7.15330028533936,1.60637724399567,0.99016141891479,0.96922296285629
16,3501425470,0.774193,-0.055837,0.368598,-0.511512,-5.09842586517334,-4.54659175872803,7.18759679794312,1.39251124858856,0.91287493705750,0.74146205186844
17,3501442137,0.774154,-0.055950,0.368717,-0.511471,-5.08869361877441,-4.57874059677124,7.15778875350952,-0.20069472491741,0.91264456510544,0.83795785903931
18,3501458804,0.774140,-0.055960,0.368771,-0.511453,-5.08880376815796,-4.64713525772095,7.13812446594238,0.66504651308060,0.90020954608917,0.99657732248306
19,3501475471,0.774131,-0.055894,0.368765,-0.511477,-5.10053730010986,-4.62402963638306,7.14770412445068,1.40220558643341,0.85198080539703,0.95840150117874
20,3501492138,0.774117,-0.055829,0.368747,-0.511519,-5.11246252059937,-4.56521368026733,7.18127822875977,1.46123003959656,0.79376316070557,0.86848819255829
21,3501508805,0.774115,-0.055905,0.368799,-0.511477,-5.09455776214600,-4.56782150268555,7.17790746688843,0.28481319546700,0.63237750530243,0.97782880067825
22,3501525472,0.774119,-0.055955,0.368836,-0.511438,-5.09175443649292,-4.60909223556519,7.16999816894531,0.46319285035133,0.60584276914597,1.07757735252380
23,3501542139,0.774118,-0.055960,0.368824,-0.511448,-5.10744380950928,-4.57223320007324,7.16456556320190,0.98932892084122,0.53384548425674,0.90104186534882
24,3501558806,0.774145,-0.056055,0.368862,-0.511369,-5.07756471633911,-4.63536071777344,7.14221811294556,0.15422688424587,0.40194010734558,1.22198188304901
25,3501575473,0.774195,-0.056025,0.368778,-0.511357,-5.09233093261719,-4.62226438522339,7.14184617996216,1.40538156032562,0.14273957908154,1.24365019798279
26,3501592140,0.774281,-0.056004,0.368663,-0.511312,-5.09491348266602,-4.56742906570435,7.17918157577515,1.40971016883850,-0.14220811426640,1.49783074855804
27,3501608807,0.774386,-0.056119,0.368607,-0.511181,-5.11828613281250,-4.60687589645386,7.15724468231201,0.28833496570587,-0.36735653877258,1.66588842868805
28,3501625474,0.774529,-0.056065,0.368451,-0.511082,-5.07751083374023,-4.60652112960815,7.15023612976074,1.60628759860992,-0.41958084702492,2.05164122581482
29,3501642141,0.774686,-0.056011,0.368328,-0.510940,-5.07429981231689,-4.57892799377441,7.15478992462158,1.35317015647888,-0.32907837629318,2.40882325172424
30,3501658808,0.774848,-0.055958,0.368229,-0.510770,-5.08312797546387,-4.61204957962036,7.16563701629639,1.23861742019653,-0.18837501108646,2.51015996932983
31,3501675475,0.775004,-0.055805,0.368077,-0.510660,-5.09948015213013,-4.56154394149780,7.18498849868774,2.09730863571167,-0.08921543508768,2.41502141952515
32,3501692142,0.775152,-0.055843,0.368043,-0.510456,-5.10601043701172,-4.60700845718384,7.18916273117065,0.43093365430832,-0.14329664409161,2.44488596916199
33,3501708809,0.775287,-0.055813,0.367952,-0.510319,-5.11513757705688,-4.64492082595825,7.18268251419067,1.15873134136200,-0.13954439759254,2.18535232543945
34,3501725476,0.775387,-0.055700,0.367807,-0.510285,-5.08935213088989,-4.55181884765625,7.17433071136475,2.03509569168091,-0.01735900714993,1.70877695083618
35,3501742143,0.775460,-0.055801,0.367821,-0.510153,-5.08819627761841,-4.56459140777588,7.16667461395264,0.06163696944714,0.09225696325302,1.68147385120392
36,3501758810,0.775507,-0.055818,0.367810,-0.510087,-5.06987905502319,-4.65553808212280,7.11722469329834,0.76854753494263,0.36495536565781,1.42443752288818
37,3501775477,0.775541,-0.055661,0.367742,-0.510103,-5.07937002182007,-4.60719299316406,7.15056133270264,2.09085440635681,0.72473704814911,1.36219859123230
38,3501792144,0.775525,-0.055613,0.367763,-0.510116,-5.10907649993896,-4.56298971176147,7.18927669525146,1.18571436405182,0.95799189805984,0.94950121641159
39,3501808811,0.775497,-0.055576,0.367791,-0.510143,-5.09060573577881,-4.58665418624878,7.16009473800659,1.12350106239319,0.97634321451187,0.81716030836105
40,3501825478,0.775448,-0.055499,0.367795,-0.510223,-5.10994958877563,-4.54407024383545,7.19209861755371,1.55301308631897,1.07586145401001,0.54256659746170
41,3501842145,0.775397,-0.055562,0.367877,-0.510234,-5.09296607971191,-4.58435964584351,7.18042469024658,0.32123452425003,0.94548004865646,0.62820273637772
42,3501858812,0.775361,-0.055541,0.367894,-0.510279,-5.09408950805664,-4.61529779434204,7.17487049102783,1.15660560131073,0.92488735914230,0.60097634792328
43,3501875479,0.775338,-0.055445,0.367862,-0.510347,-5.08058357238770,-4.54710292816162,7.16934633255005,1.76030981540680,0.87760645151138,0.73190850019455
44,3501892146,0.775304,-0.055516,0.367928,-0.510344,-5.07311296463013,-4.53729343414307,7.17318439483643,0.34020066261292,0.81493204832077,0.68122094869614
45,3501908813,0.775217,-0.055735,0.368110,-0.510321,-5.10037612915039,-4.64149522781372,7.15313720703125,-0.93684220314026,1.03118002414703,0.29413625597954
46,3501925480,0.775140,-0.055643,0.368107,-0.510450,-5.10228824615479,-4.60201311111450,7.16377735137939,1.75788927078247,1.15993523597717,0.24388413131237
47,3501942147,0.775096,-0.055631,0.368155,-0.510483,-5.10766887664795,-4.54127311706543,7.19614171981812,0.95844000577927,1.06588530540466,0.63214695453644
48,3501958814,0.775076,-0.055606,0.368169,-0.510506,-5.13123750686646,-4.54700660705566,7.20008659362793,1.11737966537476,0.85926771163940,0.81438142061234
49,3501975481,0.775046,-0.055626,0.368179,-0.510542,-5.11737346649170,-4.56091117858887,7.19408464431763,0.89894169569016,0.69323331117630,0.61680501699448
50,3501992148,0.775018,-0.055755,0.368238,-0.510527,-5.09825849533081,-4.58728837966919,7.15214967727661,0.00890041235834,0.53352528810501,0.64992225170135
51,3502008815,0.774954,-0.055860,0.368302,-0.510567,-5.09470558166504,-4.59799957275391,7.14847469329834,0.26842111349106,0.78061109781265,0.26669225096703
52,3502025482,0.774911,-0.055909,0.368333,-0.510606,-5.07300567626953,-4.59965801239014,7.16084623336792,0.67515069246292,0.73674917221069,0.48488682508469
53,3502042149,0.774876,-0.055855,0.368321,-0.510673,-5.10412216186523,-4.55765771865845,7.19524860382080,1.41279661655426,0.82617610692978,0.66203713417053
54,3502058816,0.774864,-0.055887,0.368355,-0.510664,-5.09409427642822,-4.58698415756226,7.19247674942017,0.62657630443573,0.69811254739761,0.92231333255768
55,3502075483,0.774861,-0.055884,0.368328,-0.510688,-5.09168815612793,-4.60567474365234,7.16588497161865,1.13510370254517,0.49949890375137,0.81699389219284
56,3502092150,0.774825,-0.055901,0.368331,-0.510738,-5.08927822113037,-4.59437894821167,7.15521478652954,0.98039019107819,0.68659967184067,0.52256309986115
57,3502108817,0.774812,-0.055946,0.368353,-0.510737,-5.10336303710938,-4.59271669387817,7.14403343200684,0.64597791433334,0.61389803886414,0.80466139316559
58,3502125484,0.774795,-0.055931,0.368342,-0.510773,-5.07799386978149,-4.58318042755127,7.16649103164673,1.15164947509766,0.66149920225143,0.76138871908188
59,3502142151,0.774757,-0.055997,0.368373,-0.510801,-5.11493062973022,-4.60049247741699,7.16359090805054,0.55091631412506,0.65373849868774,0.52660989761353
60,3502158818,0.774729,-0.056069,0.368399,-0.510816,-5.09841156005859,-4.60420179367065,7.17627525329590,0.50567150115967,0.56610465049744,0.62772881984711
61,3502175485,0.774651,-0.056210,0.368456,-0.510878,-5.10951709747314,-4.63009405136108,7.18457889556885,0.13016374409199,0.64567053318024,0.02950583025813
62,3502192152,0.774577,-0.056345,0.368484,-0.510956,-5.10297584533691,-4.64272880554199,7.14771175384521,0.30298542976379,0.49298042058945,-0.02869262360036
63,3502208819,0.774523,-0.056361,0.368470,-0.511045,-5.07004880905151,-4.57257556915283,7.14346981048584,1.16044747829437,0.68767547607422,0.21144564449787
64,3502225486,0.774485,-0.056402,0.368484,-0.511088,-5.06168889999390,-4.58727216720581,7.16338729858398,0.78194290399551,0.65428930521011,0.50538980960846
65,3502242153,0.774464,-0.056357,0.368424,-0.511168,-5.06989431381226,-4.56561374664307,7.15596771240234,1.61295962333679,0.54768913984299,0.54402649402618
66,3502258820,0.774443,-0.056373,0.368393,-0.511221,-5.08629751205444,-4.52086353302002,7.17631673812866,1.11527931690216,0.47129929065704,0.55341356992722
67,3502275487,0.774392,-0.056610,0.368500,-0.511196,-5.09656858444214,-4.61591148376465,7.15946531295776,-0.75801420211792,0.47073578834534,0.35821920633316
68,3502292154,0.774372,-0.056726,0.368512,-0.511204,-5.09101724624634,-4.67919540405273,7.13360071182251,0.33259367942810,0.34417062997818,0.52812099456787
69,3502308821,0.774348,-0.056706,0.368451,-0.511286,-5.08151435852051,-4.62207078933716,7.17260122299194,1.49036467075348,0.46813616156578,0.44992554187775
70,3502325488,0.774307,-0.056807,0.368471,-0.511322,-5.10363817214966,-4.61250305175781,7.16590356826782,0.44888821244240,0.49965256452560,0.36084452271461
71,3502342155,0.774273,-0.056805,0.368438,-0.511398,-5.06031799316406,-4.61687755584717,7.15278291702271,1.25844168663025,0.55305504798889,0.43947547674179
72,3502358822,0.774247,-0.056777,0.368401,-0.511467,-5.06894302368164,-4.57361841201782,7.15349721908569,1.40170621871948,0.61047869920731,0.55956065654755
73,3502375489,0.774206,-0.056834,0.368425,-0.511506,-5.08058404922485,-4.59883975982666,7.15970611572266,0.65399467945099,0.66213947534561,0.47322022914886
74,3502392156,0.774180,-0.056819,0.368401,-0.511564,-5.08098649978638,-4.60672569274902,7.16516208648682,1.29153323173523,0.66065400838852,0.55146700143814
75,3502408823,0.774144,-0.056807,0.368397,-0.511623,-5.07523107528687,-4.60616779327393,7.15774154663086,1.17508506774902,0.74461239576340,0.55451494455338
76,3502425490,0.774122,-0.056804,0.368413,-0.511644,-5.09371614456177,-4.63665103912354,7.17074251174927,0.98229819536209,0.79066401720047,0.76352733373642
77,3502442157,0.774119,-0.056729,0.368361,-0.511695,-5.08396387100220,-4.60759544372559,7.17163085937500,1.67451977729797,0.63527172803879,0.84917610883713
78,3502458824,0.774118,-0.056748,0.368369,-0.511689,-5.07718753814697,-4.57580518722534,7.17028284072876,0.82355076074600,0.60209059715271,0.92890864610672
79,3502475491,0.774120,-0.056789,0.368380,-0.511674,-5.05983257293701,-4.60972785949707,7.15723562240601,0.66758221387863,0.51773512363434,0.95338147878647
80,3502492158,0.774126,-0.056770,0.368355,-0.511685,-5.06347799301147,-4.58088779449463,7.14927101135254,1.17201161384583,0.53549754619598,0.97457611560822
81,3502508825,0.774130,-0.056873,0.368412,-0.511626,-5.07204818725586,-4.62589311599731,7.15061140060425,0.07929691672325,0.53338444232941,1.02937424182892
82,3502525492,0.774131,-0.056856,0.368389,-0.511642,-5.09640979766846,-4.63320446014404,7.17026519775391,1.17283105850220,0.56214749813080,0.91484719514847
83,3502542159,0.774139,-0.056807,0.368348,-0.511665,-5.11344909667969,-4.59648847579956,7.18825769424438,1.41788077354431,0.55313187837601,0.98509013652802
84,3502558826,0.774121,-0.056946,0.368435,-0.511615,-5.08795452117920,-4.63895606994629,7.16529703140259,-0.22014755010605,0.60885232686996,0.85322302579880
85,3502575493,0.774117,-0.056859,0.368387,-0.511666,-5.07151365280151,-4.63043642044067,7.15589380264282,1.73563170433044,0.71081638336182,0.86245638132095
86,3502592160,0.774114,-0.056788,0.368356,-0.511700,-5.05832004547119,-4.53616857528687,7.17131090164185,1.54125678539276,0.72542840242386,0.92952311038971
87,3502608827,0.774119,-0.056873,0.368443,-0.511620,-5.05673408508301,-4.62845420837402,7.16427230834961,-0.00815124157816,0.72619688510895,1.23614573478699
88,3502625494,0.774146,-0.056729,0.368373,-0.511646,-5.08204698562622,-4.63325166702271,7.15608119964600,2.04738950729370,0.69498783349991,1.25590598583221
89,3502642161,0.774148,-0.056659,0.368372,-0.511651,-5.09772968292236,-4.58193683624268,7.19399547576904,1.32637917995453,0.82986426353455,1.15510714054108
90,3502658828,0.774167,-0.056669,0.368409,-0.511595,-5.09788465499878,-4.64039278030396,7.15596532821655,0.64574736356735,0.71563166379929,1.31046104431152
91,3502675495,0.774167,-0.056510,0.368382,-0.511631,-5.08349657058716,-4.63456678390503,7.17654657363892,2.01705098152161,1.06091642379761,1.13765203952789
92,3502692162,0.774170,-0.056403,0.368353,-0.511660,-5.07991886138916,-4.59287595748901,7.16809558868408,1.68763351440430,0.83165723085403,1.09754264354706
93,3502708829,0.774161,-0.056361,0.368371,-0.511665,-5.07524061203003,-4.62221097946167,7.18695640563965,1.14049518108368,0.89096343517303,1.00871777534485
94,3502725496,0.774143,-0.056267,0.368357,-0.511713,-5.06839561462402,-4.59643125534058,7.17446947097778,1.63902056217194,0.94714468717575,0.85801261663437
95,3502742163,0.774120,-0.056204,0.368367,-0.511747,-5.07236003875732,-4.58866262435913,7.17336034774780,1.31710743904114,0.94384068250656,0.88718545436859
96,3502758830,0.774122,-0.056211,0.368422,-0.511705,-5.09877824783325,-4.63743877410889,7.17737960815430,0.62893265485764,0.86856502294540,1.19598507881165
97,3502775497,0.774115,-0.056093,0.368388,-0.511751,-5.09175348281860,-4.59614801406860,7.17628479003906,1.84900653362274,0.91170966625214,0.93577283620834
98,3502792164,0.774121,-0.056063,0.368437,-0.511710,-5.08995819091797,-4.58251428604126,7.14434719085693,0.86454385519028,0.96389549970627,1.27428305149078
99,3502808831,0.774130,-0.055984,0.368459,-0.511691,-5.07100105285645,-4.60382223129272,7.15955686569214,1.22623360157013,0.95382976531982,1.34745848178864
100,3502825498,0.774124,-0.055898,0.368464,-0.511705,-5.08441352844238,-4.57599973678589,7.16527795791626,1.39767217636108,0.92894691228867,1.14671885967255
101,3502842165,0.774157,-0.055927,0.368485,-0.511637,-5.10104513168335,-4.61493873596191,7.17458009719849,0.57827073335648,0.52694284915924,1.35746014118195
102,3502858832,0.774151,-0.055933,0.368486,-0.511645,-5.10020589828491,-4.61240768432617,7.16290998458862,0.95573794841766,0.62681961059570,0.86818093061447
103,3502875499,0.774140,-0.055980,0.368505,-0.511643,-5.10290670394897,-4.58361673355103,7.17802286148071,0.63253122568130,0.57367324829102,0.83243834972382
104,3502892166,0.774140,-0.056064,0.368540,-0.511608,-5.09186172485352,-4.64994573593140,7.14005279541016,0.32473060488701,0.51243323087692,0.92099422216415
105,3502908833,0.774132,-0.056002,0.368512,-0.511647,-5.07448196411133,-4.59060239791870,7.16603946685791,1.48871254920959,0.72925752401352,0.85969018936157
106,3502925500,0.774114,-0.056026,0.368558,-0.511638,-5.07621335983276,-4.58693933486938,7.15302705764771,0.64353191852570,0.82266718149185,0.90265548229218
107,3502942167,0.774117,-0.055980,0.368579,-0.511624,-5.05966281890869,-4.60634040832520,7.15465354919434,1.11280763149261,0.89232081174850,1.14395260810852
108,3502958834,0.774106,-0.055949,0.368602,-0.511627,-5.08416414260864,-4.63255596160889,7.15720796585083,1.06244039535522,0.88846623897552,0.98292589187622
109,3502975501,0.774073,-0.055858,0.368560,-0.511718,-5.10031366348267,-4.56983137130737,7.18275070190430,1.81428825855255,0.83127290010452,0.57326346635818
110,3502992168,0.774035,-0.055942,0.368627,-0.511717,-5.11991930007935,-4.57540750503540,7.16725778579712,0.25985363125801,0.76991766691208,0.64555525779724
111,3503008835,0.773987,-0.055982,0.368652,-0.511767,-5.09024524688721,-4.60447263717651,7.16431617736816,0.78175073862076,0.76845777034760,0.40995681285858
112,3503025502,0.773967,-0.056039,0.368707,-0.511751,-5.10233831405640,-4.64966058731079,7.16042709350586,0.40076193213463,0.73311233520508,0.88375335931778
113,3503042169,0.773942,-0.055955,0.368659,-0.511834,-5.08254575729370,-4.58345890045166,7.15334081649780,1.75207507610321,0.73267686367035,0.66680103540421
114,3503058836,0.773930,-0.056073,0.368713,-0.511800,-5.09723377227783,-4.57463359832764,7.16693305969238,0.09215448796749,0.53813558816910,0.76293826103210
115,3503075503,0.773916,-0.056081,0.368699,-0.511830,-5.05199956893921,-4.60321760177612,7.13003492355347,1.02607035636902,0.55194085836411,0.74137240648270
116,3503092170,0.773924,-0.056102,0.368727,-0.511795,-5.07894420623779,-4.60834836959839,7.15084838867188,0.66021859645844,0.65539062023163,1.14446496963501
117,3503108837,0.773939,-0.056065,0.368695,-0.511800,-5.10139083862305,-4.58729028701782,7.16005325317383,1.30127894878387,0.55587249994278,1.04709851741791
118,3503125504,0.773913,-0.056135,0.368747,-0.511795,-5.10672664642334,-4.60259628295898,7.16789913177490,0.38071995973587,0.70497667789459,0.74983733892441
119,3503142171,0.773895,-0.056218,0.368775,-0.511792,-5.12176465988159,-4.65899324417114,7.14141941070557,0.40524411201477,0.51686429977417,0.70974063873291
120,3503158838,0.773843,-0.056189,0.368754,-0.511889,-5.07645130157471,-4.60669946670532,7.16346120834351,1.39125621318817,0.75625336170197,0.36510902643204
121,3503175505,0.773786,-0.056264,0.368810,-0.511927,-5.08588075637817,-4.57643651962280,7.13679027557373,0.43469873070717,0.80481505393982,0.39703524112701
122,3503192172,0.773756,-0.056320,0.368863,-0.511928,-5.06680011749268,-4.61914157867432,7.12898063659668,0.49099540710449,0.79346859455109,0.70067381858826
123,3503208839,0.773730,-0.056300,0.368857,-0.511974,-5.06818819046021,-4.59937572479248,7.13812160491943,1.21148061752319,0.75557458400726,0.65282934904099
124,3503225506,0.773707,-0.056286,0.368878,-0.511995,-5.07630395889282,-4.58999109268188,7.14812278747559,0.97821307182312,0.81716042757034,0.85009825229645
125,3503242173,0.773668,-0.056295,0.368919,-0.512023,-5.09177970886230,-4.62174892425537,7.13997745513916,0.81764698028564,0.90790611505508,0.67663627862930
126,3503258840,0.773643,-0.056265,0.368952,-0.512041,-5.11242580413818,-4.63113021850586,7.15939617156982,1.05847036838531,0.98774087429047,0.84220957756042
127,3503275507,0.773588,-0.056271,0.369009,-0.512082,-5.09276533126831,-4.62985801696777,7.15661716461182,0.80965590476990,1.04581773281097,0.56632244586945
128,3503292174,0.773542,-0.056234,0.369005,-0.512159,-5.09360551834106,-4.58568000793457,7.15782833099365,1.34553742408752,0.87143373489380,0.48532217741013
129,3503308841,0.773488,-0.056297,0.369076,-0.512181,-5.09615993499756,-4.61452817916870,7.17092132568359,0.38759699463844,0.89383196830750,0.55875384807587
130,3503325508,0.773442,-0.056280,0.369083,-0.512247,-5.09684610366821,-4.60461950302124,7.17062950134277,1.17938804626465,0.86217463016510,0.48483565449715
131,3503342175,0.773398,-0.056331,0.369129,-0.512276,-5.07980823516846,-4.61924839019775,7.12941360473633,0.58420002460480,0.80026876926422,0.54179823398590
132,3503358842,0.773339,-0.056388,0.369171,-0.512329,-5.07209300994873,-4.62807512283325,7.15216493606567,0.64070165157318,0.83215659856796,0.31745657324791
133,3503375509,0.773258,-0.056462,0.369240,-0.512391,-5.09808206558228,-4.62257385253906,7.18018245697021,0.42467135190964,0.92852431535721,0.21823298931122
134,3503392176,0.773200,-0.056530,0.369267,-0.512453,-5.09573936462402,-4.61802053451538,7.16236782073975,0.66872203350067,0.71693795919418,0.23244807124138
135,3503408843,0.773130,-0.056624,0.369305,-0.512521,-5.09196949005127,-4.59607362747192,7.16673898696899,0.51907980442047,0.73065352439880,0.06705404073000
136,3503425510,0.773079,-0.056738,0.369379,-0.512533,-5.07907152175903,-4.61963987350464,7.13278722763062,0.08523905277252,0.72811782360077,0.48095524311066
137,3503442177,0.773020,-0.056788,0.369419,-0.512587,-5.07936096191406,-4.63599061965942,7.13378620147705,0.67074537277222,0.82335865497589,0.35732275247574
138,3503458844,0.772983,-0.056801,0.369424,-0.512637,-5.08305120468140,-4.60851478576660,7.14678573608398,1.00109803676605,0.72948819398880,0.50514650344849
139,3503475511,0.772944,-0.056867,0.369481,-0.512648,-5.08811855316162,-4.64906549453735,7.14318323135376,0.41634079813957,0.78194928169250,0.63654601573944
140,3503492178,0.772933,-0.056811,0.369459,-0.512686,-5.09113883972168,-4.61976146697998,7.13688659667969,1.42771589756012,0.74103951454163,0.85108441114426
141,3503508845,0.772906,-0.056852,0.369483,-0.512705,-5.10356760025024,-4.59986734390259,7.15550422668457,0.69183731079102,0.66805595159531,0.68374371528625
142,3503525512,0.772904,-0.056973,0.369548,-0.512648,-5.08452701568604,-4.64479351043701,7.13896512985229,-0.03993659839034,0.53130978345871,0.94786196947098
143,3503542179,0.772922,-0.056875,0.369482,-0.512680,-5.06482601165771,-4.62375593185425,7.16819047927856,1.81837379932404,0.59409940242767,1.05831682682037
144,3503558846,0.772921,-0.056943,0.369531,-0.512639,-5.08285760879517,-4.61319160461426,7.15398788452148,0.34432432055473,0.64558088779449,0.98996931314468
145,3503575513,0.772933,-0.056934,0.369512,-0.512634,-5.07614469528198,-4.64206027984619,7.15600967407227,1.05742037296295,0.50284135341644,1.06122374534607
146,3503592180,0.772931,-0.056964,0.369527,-0.512623,-5.07969951629639,-4.60662126541138,7.15993356704712,0.72987234592438,0.60511285066605,0.92774319648743
147,3503608847,0.772934,-0.057024,0.369544,-0.512601,-5.08001565933228,-4.63076066970825,7.13119554519653,0.53994137048721,0.48926657438278,0.92738461494446
148,3503625514,0.772925,-0.057067,0.369561,-0.512596,-5.08369016647339,-4.63965892791748,7.14178848266602,0.66749250888824,0.58471226692200,0.84328532218933
149,3503642181,0.772935,-0.057062,0.369565,-0.512580,-5.09182453155518,-4.66223144531250,7.13861274719238,0.95153737068176,0.63201898336411,1.07988274097443
150,3503658848,0.772930,-0.057061,0.369579,-0.512577,-5.07537031173706,-4.63439798355103,7.16275501251221,0.92434948682785,0.72670912742615,0.93310910463333
151,3503675515,0.772921,-0.057050,0.369568,-0.512599,-5.08349514007568,-4.60760831832886,7.15431499481201,1.11789178848267,0.63518208265305,0.82992827892303
152,3503692182,0.772905,-0.057109,0.369637,-0.512568,-5.07208824157715,-4.64065790176392,7.14503431320190,0.33524462580681,0.81732690334320,0.92487466335297
153,3503708849,0.772886,-0.057107,0.369676,-0.512567,-5.08886051177979,-4.64010334014893,7.14107561111450,0.84363102912903,0.89582979679108,0.89690542221069
154,3503725516,0.772866,-0.057123,0.369708,-0.512573,-5.10152530670166,-4.64251565933228,7.14628791809082,0.78514444828033,0.79390406608582,0.81774944067001
155,3503742183,0.772825,-0.057158,0.369754,-0.512598,-5.10447597503662,-4.67162513732910,7.14726877212524,0.67039954662323,0.86650329828262,0.58685094118118
156,3503758850,0.772784,-0.057148,0.369758,-0.512658,-5.09940528869629,-4.62161922454834,7.14705896377563,1.17455995082855,0.83853405714035,0.47460326552391
157,3503775517,0.772736,-0.057239,0.369822,-0.512675,-5.05890655517578,-4.60503244400024,7.13573265075684,0.29742744565010,0.77602630853653,0.47482100129128
158,3503792184,0.772721,-0.057321,0.369889,-0.512640,-5.07597875595093,-4.68291330337524,7.12905597686768,0.17989078164101,0.70007181167603,0.92461830377579
159,3503808851,0.772706,-0.057215,0.369815,-0.512728,-5.07934141159058,-4.62413501739502,7.15414237976074,2.01609086990356,0.67882621288300,0.66537952423096
160,3503825518,0.772703,-0.057287,0.369848,-0.512699,-5.09829711914062,-4.59720134735107,7.15005254745483,0.39056810736656,0.53922420740128,0.93487638235092
161,3503842185,0.772711,-0.057333,0.369874,-0.512664,-5.08108472824097,-4.65952014923096,7.14727115631104,0.55059623718262,0.56650173664093,1.05498707294464
162,3503858852,0.772714,-0.057292,0.369824,-0.512699,-5.08235836029053,-4.64253997802734,7.12338638305664,1.41886675357819,0.47802263498306,0.90252757072449
163,3503875519,0.772708,-0.057342,0.369822,-0.512705,-5.08891725540161,-4.60137271881104,7.15250205993652,0.69396322965622,0.42625933885574,0.81141018867493
164,3503892186,0.772707,-0.057473,0.369883,-0.512647,-5.09042072296143,-4.67011308670044,7.13825178146362,-0.10098446905613,0.45634144544601,0.96467661857605
165,3503908853,0.772706,-0.057443,0.369820,-0.512698,-5.07918500900269,-4.65620946884155,7.12843370437622,1.49639654159546,0.43562081456184,0.70787101984024
166,3503925520,0.772688,-0.057484,0.369822,-0.512719,-5.10037374496460,-4.62106227874756,7.15802717208862,0.79464679956436,0.54437226057053,0.66640400886536
167,3503942187,0.772622,-0.057689,0.369906,-0.512734,-5.08780908584595,-4.64796781539917,7.16442871093750,-0.41970887780190,0.50121486186981,0.17315465211868
168,3503958854,0.772613,-0.057774,0.369912,-0.512734,-5.05453824996948,-4.67653560638428,7.10145187377930,0.47063332796097,0.36646649241447,0.73103761672974
169,3503975521,0.772580,-0.057778,0.369911,-0.512784,-5.05967760086060,-4.64459753036499,7.13635873794556,1.05570423603058,0.69296443462372,0.58448183536530
170,3503992188,0.772579,-0.057818,0.369926,-0.512770,-5.07935380935669,-4.64031744003296,7.16321802139282,0.63896006345749,0.53989011049271,0.96285825967789
171,3504008855,0.772563,-0.057841,0.369934,-0.512787,-5.07010936737061,-4.62541198730469,7.15792274475098,0.84849756956100,0.62167143821716,0.76421892642975
172,3504025522,0.772533,-0.057957,0.369966,-0.512795,-5.07650852203369,-4.61969089508057,7.13296365737915,0.22452090680599,0.44240814447403,0.54706162214279
173,3504042189,0.772527,-0.058053,0.370015,-0.512759,-5.07939529418945,-4.67685651779175,7.14044857025146,0.20542666316032,0.55956065654755,0.87555736303329
174,3504058856,0.772495,-0.058071,0.370003,-0.512813,-5.08658885955811,-4.66296911239624,7.13625288009644,1.00371050834656,0.57262313365936,0.55270928144455
175,3504075523,0.772475,-0.058135,0.370032,-0.512815,-5.06323957443237,-4.64670753479004,7.14131069183350,0.52789056301117,0.60401147603989,0.71595174074173
176,3504092190,0.772454,-0.058201,0.370062,-0.512817,-5.07203912734985,-4.68692588806152,7.11356115341187,0.51596778631210,0.61414128541946,0.69849675893784
177,3504108857,0.772426,-0.058131,0.370035,-0.512887,-5.06702470779419,-4.62867736816406,7.12787628173828,1.58297979831696,0.80761957168579,0.68238627910614
178,3504125524,0.772386,-0.058190,0.370095,-0.512897,-5.06045293807983,-4.62178611755371,7.13340091705322,0.46335935592651,0.84214550256729,0.62087744474411
179,3504142191,0.772359,-0.058249,0.370163,-0.512882,-5.06659650802612,-4.69564008712769,7.13602733612061,0.37591761350632,0.85593795776367,0.79068964719772
180,3504158858,0.772321,-0.058185,0.370154,-0.512954,-5.08310985565186,-4.63845920562744,7.14579534530640,1.49164509773254,0.91173517704010,0.62310570478439
181,3504175525,0.772282,-0.058261,0.370209,-0.512964,-5.09006071090698,-4.65186738967896,7.12768745422363,0.36900213360786,0.73377817869186,0.60252594947815
182,3504192192,0.772250,-0.058296,0.370225,-0.512996,-5.08078336715698,-4.67546892166138,7.11068058013916,0.79815578460693,0.68575441837311,0.58081930875778
183,3504208859,0.772203,-0.058348,0.370270,-0.513028,-5.08111333847046,-4.64529323577881,7.13081598281860,0.59112828969955,0.80786293745041,0.51377791166306
184,3504225526,0.772175,-0.058420,0.370301,-0.513039,-5.06146430969238,-4.67713785171509,7.11732721328735,0.47603768110275,0.59567457437515,0.64354473352432
185,3504242193,0.772137,-0.058415,0.370310,-0.513092,-5.07278251647949,-4.64599180221558,7.13702869415283,1.09235596656799,0.81247323751450,0.54724091291428
186,3504258860,0.772101,-0.058474,0.370342,-0.513116,-5.07406711578369,-4.65119981765747,7.12166357040405,0.59326690435410,0.69447547197342,0.54199028015137
187,3504275527,0.772071,-0.058503,0.370363,-0.513143,-5.06977987289429,-4.66050767898560,7.13603591918945,0.77260702848434,0.69402724504471,0.67534279823303
188,3504292194,0.772042,-0.058581,0.370397,-0.513152,-5.07631206512451,-4.65556812286377,7.12622976303101,0.43957799673080,0.60267961025238,0.62754964828491
189,3504308861,0.772037,-0.058642,0.370434,-0.513127,-5.07501983642578,-4.68934822082520,7.11841726303101,0.45087316632271,0.61013293266296,0.92323541641235
190,3504325528,0.772041,-0.058611,0.370405,-0.513145,-5.07810020446777,-4.67556142807007,7.14176702499390,1.32525229454041,0.60823756456375,0.88161480426788
191,3504342195,0.772040,-0.058638,0.370419,-0.513134,-5.07815933227539,-4.65670442581177,7.13709831237793,0.76135033369064,0.62273436784744,0.92075103521347
192,3504358862,0.772014,-0.058706,0.370467,-0.513131,-5.08391380310059,-4.65933895111084,7.13197755813599,0.37399661540985,0.66044896841049,0.78301858901978
193,3504375529,0.771981,-0.058756,0.370517,-0.513138,-5.06516790390015,-4.68330526351929,7.12604284286499,0.51905417442322,0.78765451908112,0.71157199144363
194,3504392196,0.771966,-0.058823,0.370551,-0.513129,-5.07601928710938,-4.69567012786865,7.13894081115723,0.46024739742279,0.59676307439804,0.79280269145966
195,3504408863,0.771946,-0.058809,0.370538,-0.513169,-5.06891584396362,-4.67575550079346,7.13852071762085,1.18452334403992,0.67534285783768,0.69473171234131
196,3504425530,0.771919,-0.058873,0.370579,-0.513173,-5.08956575393677,-4.67118358612061,7.14216899871826,0.48588567972183,0.68391031026840,0.68832844495773
197,3504442197,0.771892,-0.058937,0.370613,-0.513181,-5.08476638793945,-4.68817377090454,7.10591077804565,0.51901572942734,0.65266281366348,0.66271579265594
198,3504458864,0.771865,-0.058939,0.370614,-0.513222,-5.06597948074341,-4.66045522689819,7.12258243560791,1.05922591686249,0.71627193689346,0.61969923973083
199,3504475531,0.771831,-0.059002,0.370649,-0.513240,-5.06676626205444,-4.66324520111084,7.12394571304321,0.49728333950043,0.64088094234467,0.65852808952332
200,3504492198,0.771784,-0.059032,0.370679,-0.513284,-5.05443572998047,-4.68053197860718,7.13551568984985,0.76346331834793,0.78577196598053,0.52954256534576
201,3504508865,0.771752,-0.059077,0.370707,-0.513308,-5.07541608810425,-4.67717838287354,7.12122821807861,0.67138564586639,0.69392478466034,0.61829054355621
202,3504525532,0.771716,-0.059100,0.370703,-0.513363,-5.06258392333984,-4.65373420715332,7.12654495239258,0.97079819440842,0.62287527322769,0.50080513954163
203,3504542199,0.771698,-0.059186,0.370745,-0.513350,-5.07553148269653,-4.67434358596802,7.12797737121582,0.30908128619194,0.57098394632339,0.77592396736145
204,3504558866,0.771698,-0.059149,0.370728,-0.513366,-5.06194591522217,-4.69768953323364,7.12817430496216,1.25371599197388,0.66066682338715,0.97168183326721
205,3504575533,0.771682,-0.059122,0.370718,-0.513399,-5.06090974807739,-4.65310478210449,7.12948894500732,1.20115876197815,0.69629400968552,0.81635361909866
206,3504592200,0.771665,-0.059182,0.370779,-0.513374,-5.06919574737549,-4.68693208694458,7.10335779190063,0.36160010099411,0.76713877916336,0.89616274833679
207,3504608867,0.771662,-0.059123,0.370752,-0.513406,-5.07672119140625,-4.67386913299561,7.12040233612061,1.44011235237122,0.69656288623810,0.93683570623398
208,3504625534,0.771665,-0.059190,0.370776,-0.513376,-5.07043170928955,-4.68589878082275,7.12577438354492,0.45369052886963,0.49627164006233,0.96112930774689
209,3504642201,0.771661,-0.059269,0.370790,-0.513363,-5.06705141067505,-4.70461893081665,7.11529207229614,0.47845807671547,0.42802667617798,0.79471093416214
210,3504658868,0.771645,-0.059306,0.370754,-0.513408,-5.08549022674561,-4.67924594879150,7.13934946060181,1.01289260387421,0.36918145418167,0.54254096746445
211,3504675535,0.771621,-0.059438,0.370766,-0.513421,-5.06983518600464,-4.64959144592285,7.11630916595459,0.23721201717854,0.27841004729271,0.47984108328819
212,3504692202,0.771589,-0.059619,0.370829,-0.513403,-5.05050945281982,-4.70734357833862,7.09848880767822,-0.27561184763908,0.39501181244850,0.49870482087135
213,3504708869,0.771584,-0.059572,0.370786,-0.513446,-5.05453586578369,-4.69322538375854,7.09415340423584,1.48460185527802,0.59529036283493,0.80362403392792
214,3504725536,0.771568,-0.059620,0.370820,-0.513440,-5.06809759140015,-4.66480064392090,7.13622760772705,0.58254802227020,0.68105447292328,0.79997420310974
215,3504742203,0.771559,-0.059660,0.370831,-0.513442,-5.07348537445068,-4.69951343536377,7.11377906799316,0.70999675989151,0.56264698505402,0.81904286146164
216,3504758870,0.771561,-0.059620,0.370799,-0.513466,-5.06264638900757,-4.69841146469116,7.12569379806519,1.33551037311554,0.57806593179703,0.94847679138184
217,3504775537,0.771572,-0.059604,0.370771,-0.513471,-5.06620454788208,-4.66417789459229,7.10667514801025,1.16605663299561,0.50089478492737,1.00341582298279
218,3504792204,0.771571,-0.059655,0.370814,-0.513436,-5.06225395202637,-4.67249345779419,7.12524795532227,0.47733107209206,0.67561179399490,0.99874162673950
219,3504808871,0.771563,-0.059671,0.370836,-0.513431,-5.06942987442017,-4.70759582519531,7.11344671249390,0.76845782995224,0.68261688947678,0.94425058364868
220,3504825538,0.771568,-0.059640,0.370799,-0.513453,-5.06208801269531,-4.69766378402710,7.13405799865723,1.30682384967804,0.51622396707535,0.93989634513855
221,3504842205,0.771570,-0.059660,0.370813,-0.513438,-5.07618951797485,-4.70516109466553,7.12738609313965,0.76813769340515,0.61485844850540,0.99853664636612
222,3504858872,0.771559,-0.059658,0.370809,-0.513458,-5.07445478439331,-4.70377254486084,7.12980985641479,1.04720091819763,0.65317511558533,0.80589079856873
223,3504875539,0.771543,-0.059673,0.370824,-0.513469,-5.05346393585205,-4.67630577087402,7.11604547500610,0.83231031894684,0.67276871204376,0.83698463439941
224,3504892206,0.771546,-0.059649,0.370843,-0.513453,-5.04090738296509,-4.69369697570801,7.08938360214233,0.99263298511505,0.79576098918915,1.11885249614716
225,3504908873,0.771558,-0.059570,0.370837,-0.513450,-5.05833578109741,-4.69798946380615,7.10799789428711,1.38930964469910,0.82319211959839,1.22633600234985
226,3504925540,0.771557,-0.059497,0.370844,-0.513454,-5.08872604370117,-4.67825078964233,7.11447858810425,1.33439588546753,0.92219793796539,1.11822474002838
227,3504942207,0.771524,-0.059505,0.370888,-0.513470,-5.07153701782227,-4.68220520019531,7.13312578201294,0.79248255491257,0.91144073009491,0.76365542411804
228,3504958874,0.771505,-0.059494,0.370936,-0.513466,-5.06478309631348,-4.70598745346069,7.11681318283081,0.82535642385483,0.95071786642075,0.96929991245270
229,3504975541,0.771488,-0.059393,0.370954,-0.513490,-5.07524156570435,-4.70507240295410,7.12126255035400,1.47693085670471,1.11047697067261,1.05804789066315
230,3504992208,0.771475,-0.059261,0.370975,-0.513510,-5.07396125793457,-4.69289064407349,7.11060667037964,1.60285556316376,1.21349132061005,1.19458913803101
231,3505008875,0.771469,-0.059149,0.371010,-0.513505,-5.06929731369019,-4.68946361541748,7.11027812957764,1.41096520423889,1.20380985736847,1.27706217765808
232,3505025542,0.771444,-0.059033,0.371043,-0.513533,-5.06277132034302,-4.66938114166260,7.12231874465942,1.54520165920258,1.30194473266602,1.00112366676331
233,3505042209,0.771425,-0.058922,0.371083,-0.513545,-5.06712627410889,-4.67901515960693,7.12718915939331,1.43514358997345,1.27425754070282,1.12627995014191
234,3505058876,0.771392,-0.058849,0.371136,-0.513565,-5.08712291717529,-4.67441463470459,7.12692689895630,1.18621373176575,1.24167811870575,0.96410042047501
235,3505075543,0.771339,-0.058823,0.371175,-0.513619,-5.09688663482666,-4.67372655868530,7.15490293502808,1.08291780948639,1.07372283935547,0.56077724695206
236,3505092210,0.771275,-0.058864,0.371230,-0.513671,-5.08452367782593,-4.67544269561768,7.12822818756104,0.63753849267960,0.92893421649933,0.41552767157555
237,3505108877,0.771224,-0.058860,0.371249,-0.513735,-5.08287906646729,-4.68240356445312,7.12250471115112,1.05888032913208,0.89680308103561,0.44737705588341
238,3505125544,0.771190,-0.058878,0.371272,-0.513767,-5.07832145690918,-4.68798112869263,7.12288904190063,0.87029397487640,0.78652763366699,0.62018591165543
239,3505142211,0.771159,-0.058891,0.371278,-0.513808,-5.06945371627808,-4.65847921371460,7.11369466781616,0.94172769784927,0.68084967136383,0.62372052669525
240,3505158878,0.771127,-0.058957,0.371329,-0.513811,-5.07574796676636,-4.67139148712158,7.11717939376831,0.41516903042793,0.72332817316055,0.71049630641937
241,3505175545,0.771122,-0.058954,0.371327,-0.513820,-5.07575798034668,-4.67588996887207,7.11796903610229,1.00869214534760,0.63945955038071,0.88952910900116
242,3505192212,0.771128,-0.058954,0.371343,-0.513800,-5.07898283004761,-4.69514131546021,7.12521934509277,0.84888172149658,0.66879886388779,1.10885059833527
243,3505208879,0.771147,-0.058916,0.371358,-0.513765,-5.09381294250488,-4.69202423095703,7.10391378402710,1.02330410480499,0.76971274614334,1.32167923450470
244,3505225546,0.771163,-0.058854,0.371353,-0.513753,-5.08358478546143,-4.67684507369995,7.09244871139526,1.27763819694519,0.75458854436874,1.24829888343811
245,3505242213,0.771184,-0.058830,0.371383,-0.513701,-5.06177663803101,-4.67312669754028,7.11657667160034,0.88352292776108,0.80540424585342,1.35801100730896
246,3505258880,0.771224,-0.058791,0.371412,-0.513624,-5.06919622421265,-4.71807289123535,7.10728693008423,0.88648110628128,0.78363335132599,1.60849022865295
247,3505275547,0.771267,-0.058617,0.371347,-0.513628,-5.08903026580811,-4.67035722732544,7.12912559509277,2.15496301651001,0.78780823945999,1.50163412094116
248,3505292214,0.771279,-0.058667,0.371388,-0.513573,-5.09978818893433,-4.66339683532715,7.13398075103760,0.44779965281487,0.63167327642441,1.13493716716766
249,3505308881,0.771269,-0.058654,0.371421,-0.513567,-5.08229112625122,-4.66608381271362,7.10345506668091,0.90033763647079,0.86819362640381,0.99596261978149
250,3505325548,0.771256,-0.058639,0.371480,-0.513546,-5.07482767105103,-4.68237876892090,7.10814857482910,0.76158082485199,0.99739694595337,1.10942685604095
251,3505342215,0.771240,-0.058609,0.371526,-0.513538,-5.09659910202026,-4.72230100631714,7.08524036407471,0.93047094345093,1.00816714763641,1.04159164428711
252,3505358882,0.771217,-0.058550,0.371532,-0.513576,-5.08797073364258,-4.66643047332764,7.11571168899536,1.32864582538605,0.91646069288254,0.85175013542175
253,3505375549,0.771162,-0.058576,0.371588,-0.513616,-5.09638738632202,-4.65609455108643,7.14403486251831,0.72369968891144,0.99703836441040,0.47946977615356
254,3505392216,0.771115,-0.058652,0.371666,-0.513621,-5.09504508972168,-4.70487356185913,7.10013532638550,0.27581036090851,0.88509804010391,0.60835278034210
255,3505408883,0.771093,-0.058656,0.371677,-0.513644,-5.08566522598267,-4.69735956192017,7.10364961624146,0.95575070381165,0.73169082403183,0.75250113010406
256,3505425550,0.771067,-0.058642,0.371667,-0.513693,-5.08377456665039,-4.67372512817383,7.10787725448608,1.17347133159637,0.68717592954636,0.65724748373032
257,3505442217,0.771020,-0.058742,0.371749,-0.513692,-5.06869935989380,-4.67135524749756,7.08910655975342,0.12404229491949,0.82027226686478,0.57422387599945
258,3505458884,0.771014,-0.058780,0.371779,-0.513676,-5.08761978149414,-4.71593809127808,7.10399293899536,0.62541091442108,0.66627597808838,0.92084068059921
259,3505475551,0.770995,-0.058736,0.371754,-0.513727,-5.07327747344971,-4.68390655517578,7.10043096542358,1.41721475124359,0.71401804685593,0.71869230270386
260,3505492218,0.770994,-0.058768,0.371780,-0.513707,-5.09818410873413,-4.67793178558350,7.11790370941162,0.64993506669998,0.64025348424911,0.98634505271912
261,3505508885,0.771003,-0.058738,0.371785,-0.513693,-5.07625150680542,-4.67119312286377,7.12299442291260,1.08859097957611,0.74235856533051,1.12137520313263
262,3505525552,0.771026,-0.058773,0.371806,-0.513640,-5.08787441253662,-4.70735263824463,7.12354469299316,0.56592535972595,0.51249724626541,1.25909459590912
263,3505542219,0.771039,-0.058771,0.371755,-0.513657,-5.09251594543457,-4.72152042388916,7.11972856521606,1.18205177783966,0.31394767761230,0.91981613636017
264,3505558886,0.771021,-0.058831,0.371716,-0.513705,-5.11231517791748,-4.69559383392334,7.11277246475220,0.89608579874039,0.26044273376465,0.47733104228973
265,3505575553,0.771003,-0.058943,0.371696,-0.513733,-5.08942270278931,-4.65846729278564,7.11401367187500,0.51008969545364,0.17736794054508,0.45322954654694
266,3505592220,0.771004,-0.059046,0.371684,-0.513728,-5.04483890533447,-4.68732309341431,7.08878850936890,0.45224341750145,0.19611641764641,0.70530962944031
267,3505608887,0.771045,-0.059035,0.371640,-0.513700,-5.06009244918823,-4.69121599197388,7.09537458419800,1.15471029281616,0.33324688673019,1.22527325153351
268,3505625554,0.771085,-0.058970,0.371572,-0.513697,-5.06391191482544,-4.66604471206665,7.10373020172119,1.55020844936371,0.38772496581078,1.25316524505615
269,3505642221,0.771118,-0.058973,0.371566,-0.513652,-5.08451890945435,-4.69105052947998,7.12141513824463,0.87053728103638,0.47695970535278,1.30458295345306
270,3505658888,0.771150,-0.058969,0.371531,-0.513629,-5.07240343093872,-4.72585964202881,7.10719633102417,1.06890749931335,0.35860335826874,1.17470073699951
271,3505675555,0.771174,-0.058904,0.371464,-0.513650,-5.09099102020264,-4.70227813720703,7.10982990264893,1.60428953170776,0.43599212169647,1.08404457569122
272,3505692222,0.771186,-0.058968,0.371442,-0.513639,-5.08644104003906,-4.67213964462280,7.12867450714111,0.68277055025101,0.24736747145653,0.88349729776382
273,3505708889,0.771188,-0.059061,0.371432,-0.513633,-5.09653329849243,-4.71335458755493,7.11354494094849,0.47938004136086,0.22251032292843,0.77023786306381
274,3505725556,0.771170,-0.059121,0.371389,-0.513684,-5.07137298583984,-4.69889211654663,7.12791872024536,0.92741024494171,0.25046658515930,0.44358631968498
275,3505742223,0.771138,-0.059244,0.371364,-0.513736,-5.07143783569336,-4.69140148162842,7.10446548461914,0.52272951602936,0.15623743832111,0.24757234752178
276,3505758890,0.771097,-0.059337,0.371329,-0.513812,-5.06431341171265,-4.68081474304199,7.11303615570068,0.77651304006577,0.24398657679558,0.14847682416439
277,3505775557,0.771060,-0.059454,0.371333,-0.513852,-5.05130004882812,-4.68638706207275,7.10278749465942,0.42054775357246,0.33998298645020,0.31622719764709
278,3505792224,0.771034,-0.059492,0.371308,-0.513905,-5.06399917602539,-4.71381139755249,7.11458015441895,0.96707147359848,0.44390648603439,0.47926482558250
279,3505808891,0.771007,-0.059494,0.371263,-0.513977,-5.07326030731201,-4.69235324859619,7.13442373275757,1.30217516422272,0.48432332277298,0.43769538402557
280,3505825558,0.770957,-0.059614,0.371275,-0.514029,-5.08082818984985,-4.69939708709717,7.14353418350220,0.40158149600029,0.40849694609642,0.20164877176285
281,3505842225,0.770908,-0.059703,0.371247,-0.514112,-5.06974935531616,-4.71258306503296,7.11837959289551,0.76000559329987,0.29272753000259,0.13971726596355
282,3505858892,0.770857,-0.059843,0.371252,-0.514169,-5.05518007278442,-4.70078849792480,7.11454057693481,0.33255526423454,0.30593088269234,0.11570536345243
283,3505875559,0.770820,-0.059905,0.371225,-0.514238,-5.06466054916382,-4.69792890548706,7.10237407684326,0.88778734207153,0.37887585163116,0.29969421029091
284,3505892226,0.770788,-0.059939,0.371198,-0.514301,-5.06143236160278,-4.68190813064575,7.10719680786133,1.01462137699127,0.45518890023232,0.42513236403465
285,3505908893,0.770773,-0.060017,0.371211,-0.514305,-5.06123208999634,-4.70620965957642,7.11195993423462,0.52402293682098,0.46540835499763,0.67232048511505
286,3505925560,0.770763,-0.059992,0.371152,-0.514365,-5.04710865020752,-4.72562122344971,7.12085056304932,1.44307076931000,0.43904009461403,0.65905314683914
287,3505942227,0.770753,-0.059996,0.371118,-0.514404,-5.06418180465698,-4.68337249755859,7.13370227813721,1.15045845508575,0.45504802465439,0.69858634471893
288,3505958894,0.770740,-0.060048,0.371109,-0.514424,-5.04453372955322,-4.68540143966675,7.12414264678955,0.76092761754990,0.42770645022392,0.68639469146729
289,3505975561,0.770733,-0.060114,0.371087,-0.514443,-5.05702590942383,-4.71495103836060,7.12910461425781,0.70587313175201,0.26879248023033,0.68936574459076
290,3505992228,0.770721,-0.060134,0.371029,-0.514500,-5.05034208297729,-4.69497489929199,7.10484838485718,1.19124674797058,0.28517180681229,0.56096935272217
291,3506008895,0.770691,-0.060214,0.371012,-0.514547,-5.07009267807007,-4.70336675643921,7.11998128890991,0.69468039274216,0.33119779825211,0.40698575973511
292,3506025562,0.770668,-0.060297,0.371003,-0.514579,-5.04093933105469,-4.72330522537231,7.11736679077148,0.60013115406036,0.31872442364693,0.53758496046066
293,3506042229,0.770669,-0.060349,0.370976,-0.514591,-5.05821514129639,-4.70606374740601,7.11710977554321,0.80373919010162,0.28987172245979,0.76686972379684
294,3506058896,0.770688,-0.060382,0.370921,-0.514599,-5.02377033233643,-4.68360710144043,7.11987447738647,1.06415641307831,0.21325135231018,0.80432838201523
295,3506075563,0.770718,-0.060414,0.370905,-0.514562,-5.03199195861816,-4.70180368423462,7.12266445159912,0.76987934112549,0.33240160346031,1.16635107994080
296,3506092230,0.770736,-0.060429,0.370871,-0.514557,-5.03535747528076,-4.71961688995361,7.10546541213989,0.99235123395920,0.33191499114037,1.00828230381012
297,3506108897,0.770759,-0.060378,0.370816,-0.514569,-5.05266809463501,-4.68824291229248,7.12596464157104,1.45822048187256,0.44262585043907,1.09902799129486
298,3506125564,0.770764,-0.060460,0.370824,-0.514546,-5.06588459014893,-4.71707201004028,7.11857938766479,0.45225617289543,0.36037066578865,0.88243430852890
299,3506142231,0.770768,-0.060480,0.370780,-0.514570,-5.07470893859863,-4.74589395523071,7.12464046478271,1.07893502712250,0.31225720047951,0.77639776468277
300,3506158898,0.770750,-0.060488,0.370741,-0.514623,-5.04663515090942,-4.71355915069580,7.11616325378418,1.15725862979889,0.42394143342972,0.61613911390305
301,3506175565,0.770738,-0.060535,0.370719,-0.514652,-5.05667495727539,-4.71055126190186,7.10763168334961,0.86901324987411,0.38748171925545,0.62347710132599
302,3506192232,0.770702,-0.060545,0.370691,-0.514724,-5.03418111801147,-4.68791341781616,7.12571859359741,1.17977213859558,0.56456792354584,0.40827921032906
303,3506208899,0.770667,-0.060584,0.370680,-0.514780,-5.03616571426392,-4.69501972198486,7.09974193572998,0.90310364961624,0.51668500900269,0.46375629305840
304,3506225566,0.770644,-0.060601,0.370656,-0.514830,-5.02365112304688,-4.70454359054565,7.12024450302124,1.08091998100281,0.50925731658936,0.55451500415802
305,3506242233,0.770617,-0.060672,0.370670,-0.514851,-5.05372333526611,-4.73490476608276,7.12363481521606,0.57432633638382,0.52048838138580,0.58467388153076
306,3506258900,0.770617,-0.060631,0.370600,-0.514907,-5.06225681304932,-4.71768569946289,7.11042785644531,1.58555412292480,0.42487624287605,0.71702754497528
307,3506275567,0.770618,-0.060620,0.370578,-0.514923,-5.02742385864258,-4.69497728347778,7.11307382583618,1.14399111270905,0.55391305685043,0.89115542173386
308,3506292234,0.770612,-0.060599,0.370565,-0.514943,-5.02148485183716,-4.72852325439453,7.14341402053833,1.16115176677704,0.64122676849365,0.88712143898010
309,3506308901,0.770623,-0.060549,0.370512,-0.514971,-5.06155443191528,-4.70634317398071,7.11632537841797,1.49994373321533,0.50696498155594,0.94605636596680
310,3506325568,0.770587,-0.060634,0.370515,-0.515013,-5.04084634780884,-4.71060466766357,7.12908220291138,0.59370237588882,0.43747770786285,0.39672788977623
311,3506342235,0.770546,-0.060717,0.370529,-0.515054,-5.04562282562256,-4.74046373367310,7.12645483016968,0.55292695760727,0.51738935709000,0.39724019169807
312,3506358902,0.770519,-0.060682,0.370462,-0.515148,-5.02207994461060,-4.69143772125244,7.13507509231567,1.60350883007050,0.48402884602547,0.44445720314980
313,3506375569,0.770502,-0.060823,0.370504,-0.515126,-5.04900026321411,-4.72705221176147,7.13695812225342,0.00461028516293,0.37625053524971,0.67860835790634
314,3506392236,0.770514,-0.060782,0.370438,-0.515160,-5.02557849884033,-4.70067596435547,7.11609697341919,1.51016318798065,0.40080034732819,0.89636766910553
315,3506408903,0.770516,-0.060842,0.370457,-0.515137,-5.02125740051270,-4.68574428558350,7.13024473190308,0.48831894993782,0.46219393610954,0.98724150657654
316,3506425570,0.770538,-0.060900,0.370485,-0.515076,-5.01845216751099,-4.74034595489502,7.11040210723877,0.39035037159920,0.46817457675934,1.24681341648102
317,3506442237,0.770567,-0.060815,0.370426,-0.515086,-5.04015541076660,-4.72207021713257,7.10613679885864,1.65977990627289,0.53758496046066,1.20188879966736
318,3506458904,0.770564,-0.060829,0.370427,-0.515087,-5.03807401657104,-4.69378900527954,7.14077997207642,0.88753122091293,0.57885974645615,0.91300302743912
319,3506475571,0.770544,-0.060922,0.370462,-0.515081,-5.05007505416870,-4.71327877044678,7.15780544281006,0.33423289656639,0.53402477502823,0.67321693897247
320,3506492238,0.770537,-0.060948,0.370472,-0.515082,-5.05109548568726,-4.73900508880615,7.11673879623413,0.79559445381165,0.60723865032196,0.86401879787445
321,3506508905,0.770513,-0.061003,0.370474,-0.515109,-5.04802608489990,-4.73143815994263,7.09218406677246,0.72549253702164,0.51262539625168,0.58275300264359
322,3506525572,0.770479,-0.061060,0.370483,-0.515147,-5.02863740921021,-4.70855045318604,7.11770153045654,0.71554195880890,0.56438857316971,0.49744984507561
323,3506542239,0.770450,-0.061163,0.370514,-0.515156,-5.04531669616699,-4.71255064010620,7.10936403274536,0.31118148565292,0.49855116009712,0.56189131736755
324,3506558906,0.770411,-0.061169,0.370505,-0.515219,-5.01198339462280,-4.69983005523682,7.11590242385864,1.08127844333649,0.64595222473145,0.51169049739838
325,3506575573,0.770404,-0.061320,0.370587,-0.515153,-5.02716255187988,-4.75011634826660,7.11762714385986,-0.30561709403992,0.49686074256897,0.94860476255417
326,3506592240,0.770395,-0.061313,0.370538,-0.515203,-5.03752756118774,-4.72249507904053,7.12877559661865,1.30346882343292,0.43513417243958,0.64755308628082
327,3506608907,0.770380,-0.061427,0.370572,-0.515187,-5.05101966857910,-4.71386241912842,7.10828542709351,0.18291307985783,0.42048364877701,0.72332817316055
328,3506625574,0.770351,-0.061534,0.370592,-0.515203,-5.02696752548218,-4.73833513259888,7.11749315261841,0.36275264620781,0.43633794784546,0.49990865588188
329,3506642241,0.770334,-0.061608,0.370587,-0.515223,-5.04101896286011,-4.73454284667969,7.12436819076538,0.64186716079712,0.39020952582359,0.58864390850067
330,3506658908,0.770326,-0.061637,0.370556,-0.515255,-5.02108716964722,-4.70220994949341,7.12144184112549,1.01494169235229,0.39909708499908,0.65286773443222
331,3506675575,0.770314,-0.061775,0.370609,-0.515218,-5.02294349670410,-4.74607610702515,7.12403774261475,-0.07118409126997,0.40783101320267,0.81102609634399
332,3506692242,0.770325,-0.061794,0.370572,-0.515226,-5.01053285598755,-4.74090766906738,7.10834074020386,1.02402138710022,0.33971408009529,0.88450902700424
333,3506708909,0.770333,-0.061850,0.370542,-0.515229,-5.00871753692627,-4.69993209838867,7.09815120697021,0.79777157306671,0.26046836376190,0.79011338949203
334,3506725576,0.770330,-0.061989,0.370603,-0.515172,-5.01582241058350,-4.72976303100586,7.12198162078857,-0.12052696198225,0.44490537047386,0.90091383457184
335,3506742243,0.770349,-0.062025,0.370594,-0.515147,-5.03197145462036,-4.74994373321533,7.11822319030762,0.75878906250000,0.39750909805298,1.04689347743988
336,3506758910,0.770343,-0.062026,0.370568,-0.515174,-5.04611539840698,-4.73975372314453,7.13291454315186,1.11606061458588,0.49948602914810,0.78683495521545
337,3506775577,0.770318,-0.062134,0.370599,-0.515176,-5.04321718215942,-4.76142549514771,7.14990377426147,0.25964874029160,0.45495837926865,0.61438459157944
338,3506792244,0.770285,-0.062163,0.370595,-0.515224,-5.03374052047729,-4.76425886154175,7.11943960189819,0.94486534595490,0.60508728027344,0.49810302257538
339,3506808911,0.770259,-0.062135,0.370551,-0.515297,-5.01027584075928,-4.70695686340332,7.10675954818726,1.43967711925507,0.58681255578995,0.53603535890579
340,3506825578,0.770234,-0.062255,0.370584,-0.515297,-5.01797342300415,-4.73972606658936,7.13045644760132,0.21444231271744,0.43902724981308,0.56105893850327
341,3506842245,0.770235,-0.062228,0.370504,-0.515357,-5.01088333129883,-4.71853971481323,7.13043785095215,1.56996893882751,0.34340226650238,0.64150851964951
342,3506858912,0.770225,-0.062354,0.370510,-0.515352,-5.02253198623657,-4.69891071319580,7.13125753402710,0.26787039637566,0.24152770638466,0.61239963769913
343,3506875579,0.770226,-0.062523,0.370532,-0.515315,-5.00850343704224,-4.74873495101929,7.12723112106323,-0.09625892341137,0.12383740395308,0.73493075370789
344,3506892246,0.770236,-0.062638,0.370516,-0.515297,-5.02938795089722,-4.77711772918701,7.13149976730347,0.36645367741585,0.08840222656727,0.79504376649857
345,3506908913,0.770247,-0.062700,0.370480,-0.515300,-5.02600622177124,-4.75215196609497,7.11806631088257,0.77000737190247,0.17876382172108,0.81124377250671
346,3506925580,0.770255,-0.062811,0.370464,-0.515284,-5.03279972076416,-4.74615526199341,7.11076450347900,0.39269393682480,0.11384846270084,0.78458106517792
347,3506942247,0.770271,-0.062877,0.370417,-0.515287,-5.01543474197388,-4.74126338958740,7.10462760925293,0.78852534294128,0.09004144370556,0.82066923379898
348,3506958914,0.770317,-0.063041,0.370403,-0.515207,-5.00413513183594,-4.73632621765137,7.11358022689819,-0.03823335468769,-0.18449467420578,1.11997926235199
349,3506975581,0.770460,-0.063283,0.370500,-0.514895,-4.98372316360474,-4.74889039993286,7.10487651824951,-1.40444028377533,-0.23940829932690,2.56289625167847
350,3506992248,0.770458,-0.063233,0.370449,-0.514941,-5.00074386596680,-4.75914096832275,7.11076879501343,1.51330089569092,0.54190069437027,0.82826352119446
351,3507008915,0.770452,-0.063258,0.370399,-0.514983,-5.03854894638062,-4.71186637878418,7.12137556076050,1.15523517131805,0.34391453862190,0.56942152976990
352,3507025582,0.770413,-0.063461,0.370489,-0.514951,-4.98934125900269,-4.78220939636230,7.09779691696167,-0.54286754131317,0.44622436165810,0.53417843580246
353,3507042249,0.770373,-0.063436,0.370485,-0.515017,-5.02203559875488,-4.78159666061401,7.09783315658569,1.24892628192902,0.81263971328735,0.53755927085876
354,3507058916,0.770338,-0.063423,0.370514,-0.515049,-4.99344682693481,-4.73759937286377,7.09921693801880,1.02568614482880,0.94638931751251,0.67777597904205
355,3507075583,0.770275,-0.063471,0.370578,-0.515092,-5.03877973556519,-4.77131843566895,7.12925910949707,0.56181460618973,0.95767170190811,0.42323708534241
356,3507092250,0.770266,-0.063449,0.370565,-0.515117,-5.03085422515869,-4.76805448532104,7.12522172927856,1.17681396007538,0.66123032569885,0.84629476070404
357,3507108917,0.770237,-0.063428,0.370523,-0.515193,-5.02183246612549,-4.73533821105957,7.12125539779663,1.39411211013794,0.56907576322556,0.50894999504089
358,3507125584,0.770206,-0.063561,0.370560,-0.515197,-5.02349519729614,-4.74540853500366,7.12523460388184,0.12944658100605,0.42380052804947,0.49697598814964
359,3507142251,0.770187,-0.063601,0.370553,-0.515226,-4.98608255386353,-4.75453186035156,7.07620382308960,0.84883040189743,0.50851452350616,0.62911194562912
360,3507158918,0.770210,-0.063604,0.370536,-0.515203,-4.97317123413086,-4.75237894058228,7.10335063934326,0.96836489439011,0.45854410529137,1.13405346870422
361,3507175585,0.770247,-0.063572,0.370502,-0.515176,-4.98249244689941,-4.75301551818848,7.10023307800293,1.19216871261597,0.43989810347557,1.30907773971558
362,3507192252,0.770289,-0.063488,0.370444,-0.515165,-5.00341129302979,-4.74523973464966,7.12653732299805,1.60407233238220,0.50075393915176,1.34998130798340
363,3507208919,0.770325,-0.063479,0.370403,-0.515141,-4.99636173248291,-4.73450422286987,7.14909839630127,1.11753332614899,0.34058490395546,1.20726740360260
364,3507225586,0.770353,-0.063521,0.370379,-0.515113,-5.00575685501099,-4.76819753646851,7.12507295608521,0.77693563699722,0.26867723464966,1.07796156406403
365,3507242253,0.770368,-0.063597,0.370363,-0.515092,-5.00793552398682,-4.77633523941040,7.12436580657959,0.58760648965836,0.22877262532711,0.90072178840637
366,3507258920,0.770359,-0.063625,0.370322,-0.515132,-5.02307987213135,-4.77452421188354,7.11894178390503,1.05311727523804,0.34159654378891,0.62752389907837
367,3507275587,0.770322,-0.063714,0.370320,-0.515178,-5.01329565048218,-4.77824544906616,7.11325168609619,0.60485672950745,0.41222357749939,0.35711786150932
368,3507292254,0.770275,-0.063769,0.370336,-0.515229,-5.00906848907471,-4.76363086700439,7.12764739990234,0.73094803094864,0.65532660484314,0.37532851099968
369,3507308921,0.770239,-0.063742,0.370299,-0.515313,-4.96560668945312,-4.73387289047241,7.11068534851074,1.41627979278564,0.62980341911316,0.47019797563553
370,3507325588,0.770222,-0.063770,0.370323,-0.515317,-4.97894096374512,-4.75414276123047,7.10958147048950,0.72681158781052,0.68539589643478,0.82244938611984
371,3507342255,0.770212,-0.063718,0.370304,-0.515354,-5.00851249694824,-4.78390073776245,7.13310813903809,1.41303992271423,0.76721566915512,0.82475459575653
372,3507358922,0.770170,-0.063669,0.370272,-0.515445,-5.04627704620361,-4.74622583389282,7.13740539550781,1.56041538715363,0.77816510200500,0.42692530155182
373,3507375589,0.770089,-0.063785,0.370336,-0.515505,-5.00965833663940,-4.73945808410645,7.11248254776001,0.21604311466217,0.76099169254303,0.12203169614077
374,3507392256,0.770042,-0.063846,0.370368,-0.515544,-5.00706958770752,-4.81219816207886,7.12631177902222,0.61617743968964,0.72060042619705,0.42575988173485
375,3507408923,0.770004,-0.063762,0.370302,-0.515660,-5.00325489044189,-4.74493741989136,7.11984491348267,1.93689656257629,0.72458326816559,0.37869662046432
376,3507425590,0.769973,-0.063860,0.370339,-0.515668,-4.99910020828247,-4.76072216033936,7.11678314208984,0.32202845811844,0.55495023727417,0.56926780939102
377,3507442257,0.769967,-0.063842,0.370322,-0.515691,-4.98849058151245,-4.76261043548584,7.10463857650757,1.18107843399048,0.62338751554489,0.84626924991608
378,3507458924,0.769978,-0.063773,0.370257,-0.515729,-4.98878908157349,-4.72028017044067,7.13456678390503,1.65525877475739,0.50385296344757,0.94542860984802
379,3507475591,0.769981,-0.063863,0.370273,-0.515702,-5.00658464431763,-4.76991415023804,7.13635921478271,0.34817901253700,0.35638791322708,0.91548752784729
380,3507492258,0.769982,-0.063893,0.370242,-0.515719,-5.01075983047485,-4.78157138824463,7.11706161499023,0.94647896289825,0.34224972128868,0.80195933580399
381,3507508925,0.769980,-0.063929,0.370209,-0.515742,-5.00102281570435,-4.75780630111694,7.11824750900269,0.96299916505814,0.34183993935585,0.70171117782593
382,3507525592,0.769973,-0.063994,0.370189,-0.515759,-5.00620222091675,-4.77345037460327,7.12888574600220,0.70601403713226,0.28869354724884,0.70189040899277
383,3507542259,0.769951,-0.064006,0.370154,-0.515814,-5.01635169982910,-4.75165033340454,7.12541389465332,1.18337082862854,0.49446594715118,0.50255954265594
384,3507558926,0.769965,-0.064073,0.370150,-0.515789,-4.99300861358643,-4.74955987930298,7.10179424285889,0.56426060199738,0.31707245111465,0.96854430437088
385,3507575593,0.769983,-0.064057,0.370089,-0.515808,-4.96966361999512,-4.77749729156494,7.09113550186157,1.32617425918579,0.32533252239227,0.92703896760941
386,3507592260,0.770004,-0.064054,0.370051,-0.515803,-4.98090648651123,-4.74864149093628,7.12432336807251,1.09423863887787,0.35015124082565,1.08248233795166
387,3507608927,0.770036,-0.064043,0.370015,-0.515783,-4.98748064041138,-4.74663400650024,7.13102149963379,1.10721147060394,0.37527728080750,1.19334697723389
388,3507625594,0.770047,-0.064040,0.370016,-0.515766,-5.00586557388306,-4.76931810379028,7.12121963500977,0.94270104169846,0.60825031995773,1.09056317806244
389,3507642261,0.770054,-0.064009,0.369997,-0.515774,-4.99286556243896,-4.77718353271484,7.10916519165039,1.22141838073730,0.61667704582214,1.00440204143524
390,3507658928,0.770046,-0.063937,0.369999,-0.515793,-4.98971796035767,-4.75923681259155,7.10807132720947,1.36844789981842,0.90497338771820,1.03315210342407
391,3507675595,0.770046,-0.063843,0.369980,-0.515818,-5.00285768508911,-4.76840639114380,7.12828445434570,1.58639955520630,0.84765237569809,1.07321059703827
392,3507692262,0.770030,-0.063767,0.369981,-0.515850,-4.98130130767822,-4.74323320388794,7.13867807388306,1.42272138595581,0.94343096017838,0.94184297323227
393,3507708929,0.769992,-0.063738,0.369992,-0.515904,-5.00185251235962,-4.76936769485474,7.14422607421875,1.15769398212433,0.85997205972672,0.67132169008255
394,3507725596,0.769950,-0.063719,0.369995,-0.515965,-5.00251197814941,-4.74521541595459,7.11507701873779,1.21087872982025,0.85656547546387,0.51001292467117
395,3507742263,0.769899,-0.063791,0.370046,-0.515997,-5.00265693664551,-4.75867652893066,7.13005638122559,0.45137256383896,0.77100628614426,0.45947900414467
396,3507758930,0.769864,-0.063755,0.370038,-0.516059,-5.01221418380737,-4.77911520004272,7.10331058502197,1.32906854152679,0.81947839260101,0.59434270858765
397,3507775597,0.769822,-0.063728,0.370040,-0.516123,-4.98299074172974,-4.72033500671387,7.14253139495850,1.23467302322388,0.85609173774719,0.54831665754318
398,3507792264,0.769794,-0.063795,0.370098,-0.516116,-4.99020624160767,-4.74041080474854,7.12187147140503,0.35714343190193,0.74515020847321,0.77176177501678
399,3507808931,0.769779,-0.063779,0.370110,-0.516130,-4.96995925903320,-4.73798704147339,7.12529659271240,1.04754650592804,0.78985714912415,0.86787348985672
400,3507825598,0.769786,-0.063817,0.370154,-0.516084,-5.01285457611084,-4.76498317718506,7.11533260345459,0.47533324360847,0.66755658388138,1.17664742469788
401,3507842265,0.769793,-0.063796,0.370154,-0.516076,-5.01167154312134,-4.78507471084595,7.13944768905640,1.07753896713257,0.69153010845184,1.04480600357056
402,3507858932,0.769786,-0.063779,0.370148,-0.516093,-5.02534198760986,-4.77010583877563,7.15023326873779,1.11121976375580,0.66975921392441,0.88689100742340
403,3507875599,0.769764,-0.063783,0.370170,-0.516110,-4.99503374099731,-4.73984098434448,7.12339210510254,0.90074741840363,0.78574633598328,0.79263615608215
404,3507892266,0.769753,-0.063850,0.370221,-0.516082,-4.96759748458862,-4.76092386245728,7.11206531524658,0.37783855199814,0.69384795427322,0.87670987844467
405,3507908933,0.769764,-0.063827,0.370200,-0.516083,-4.98069667816162,-4.76899433135986,7.10514211654663,1.16720914840698,0.56570762395859,1.03818511962891
406,3507925600,0.769775,-0.063822,0.370186,-0.516077,-5.00003480911255,-4.72212266921997,7.12913894653320,1.02407252788544,0.52681481838226,1.04376876354218
407,3507942267,0.769786,-0.063901,0.370242,-0.516010,-4.98636484146118,-4.76478624343872,7.13170242309570,0.17186123132706,0.56577175855637,1.19539594650269
408,3507958934,0.769811,-0.063838,0.370214,-0.516002,-4.99538850784302,-4.78655481338501,7.10471820831299,1.36495196819305,0.60689288377762,1.27159357070923
409,3507975601,0.769821,-0.063792,0.370201,-0.516001,-4.99906349182129,-4.74823236465454,7.11911630630493,1.25244843959808,0.68927621841431,1.10686564445496
410,3507992268,0.769818,-0.063822,0.370267,-0.515954,-5.00688934326172,-4.76484203338623,7.12010955810547,0.47330990433693,0.86810410022736,1.11926221847534
411,3508008935,0.769802,-0.063786,0.370287,-0.515969,-5.01051855087280,-4.79630136489868,7.11709880828857,1.10320293903351,0.89087367057800,0.94117701053619
412,3508025602,0.769783,-0.063712,0.370291,-0.516003,-4.98244094848633,-4.75862407684326,7.11565303802490,1.42210650444031,0.96467661857605,0.90321886539459
413,3508042269,0.769761,-0.063696,0.370334,-0.516008,-5.00490427017212,-4.75766706466675,7.11280250549316,0.89570164680481,0.96242272853851,0.91240102052689
414,3508058936,0.769714,-0.063677,0.370356,-0.516064,-5.02173519134521,-4.76642179489136,7.12943887710571,1.08650362491608,0.92865240573883,0.58270168304443
415,3508075603,0.769669,-0.063696,0.370403,-0.516095,-4.99753046035767,-4.74313163757324,7.12794685363770,0.73740243911743,0.91570532321930,0.62775444984436
416,3508092270,0.769654,-0.063683,0.370456,-0.516081,-4.96418285369873,-4.77441215515137,7.09312677383423,0.81116700172424,0.98923927545547,1.02053797245026
417,3508108937,0.769665,-0.063530,0.370425,-0.516106,-4.99590969085693,-4.75794410705566,7.11212921142578,1.96017825603485,0.98485952615738,1.23588955402374
418,3508125604,0.769665,-0.063480,0.370464,-0.516085,-5.02004814147949,-4.73554372787476,7.12279033660889,1.02471280097961,0.98281043767929,1.23259830474854
419,3508142271,0.769659,-0.063479,0.370500,-0.516067,-5.00990629196167,-4.76639413833618,7.13101053237915,0.81137186288834,0.84036546945572,1.02487933635712
420,3508158938,0.769649,-0.063466,0.370514,-0.516074,-5.00593900680542,-4.77955627441406,7.13744688034058,0.97973686456680,0.75517755746841,0.94948822259903
421,3508175605,0.769655,-0.063450,0.370518,-0.516065,-5.02341985702515,-4.77114391326904,7.13480281829834,1.02521240711212,0.69014704227448,1.04799485206604
422,3508192272,0.769642,-0.063434,0.370520,-0.516084,-4.99333524703979,-4.74754381179810,7.11040878295898,1.06282448768616,0.71121340990067,0.88654512166977
423,3508208939,0.769646,-0.063413,0.370524,-0.516078,-5.00914287567139,-4.73705196380615,7.12724876403809,1.03386950492859,0.68716317415237,1.07532370090485
424,3508225606,0.769661,-0.063420,0.370551,-0.516034,-4.98853778839111,-4.74631023406982,7.11658859252930,0.72473692893982,0.67685401439667,1.23813068866730
425,3508242273,0.769682,-0.063375,0.370546,-0.516013,-4.99530029296875,-4.76095151901245,7.11124563217163,1.19172024726868,0.70807576179504,1.23418617248535
426,3508258940,0.769688,-0.063336,0.370550,-0.516005,-5.00937891006470,-4.74820089340210,7.13144731521606,1.14714169502258,0.76913654804230,1.11707234382629
427,3508275607,0.769684,-0.063346,0.370584,-0.515986,-5.01855134963989,-4.77175045013428,7.11962556838989,0.71720677614212,0.74137234687805,1.05902111530304
428,3508292274,0.769667,-0.063327,0.370600,-0.516001,-5.01762008666992,-4.77240037918091,7.11280107498169,1.02042281627655,0.80983519554138,0.90325754880905
429,3508308941,0.769652,-0.063305,0.370608,-0.516022,-5.01477527618408,-4.75779247283936,7.12158489227295,1.09884870052338,0.79208558797836,0.85305655002594
430,3508325608,0.769643,-0.063312,0.370618,-0.516027,-5.01968431472778,-4.76583909988403,7.12642478942871,0.89385765790939,0.66673696041107,0.89713609218597
431,3508342275,0.769620,-0.063284,0.370601,-0.516077,-5.01491117477417,-4.76165866851807,7.12331867218018,1.26585650444031,0.68790590763092,0.70286369323730
432,3508358942,0.769607,-0.063290,0.370605,-0.516093,-4.99553298950195,-4.72513580322266,7.11305379867554,0.94225275516510,0.64204633235931,0.83529412746429
433,3508375609,0.769607,-0.063317,0.370634,-0.516068,-4.98546504974365,-4.74945068359375,7.13216018676758,0.68622827529907,0.70002073049545,0.99247932434082
434,3508392276,0.769616,-0.063300,0.370637,-0.516055,-5.00136518478394,-4.75723552703857,7.12177658081055,1.00018870830536,0.65249633789062,1.12366747856140
435,3508408943,0.769644,-0.063260,0.370635,-0.516020,-5.01733922958374,-4.75233459472656,7.14234876632690,1.11376821994781,0.67613679170609,1.32109022140503
436,3508425610,0.769648,-0.063215,0.370634,-0.516019,-5.02127599716187,-4.76733493804932,7.12782621383667,1.18082237243652,0.74343425035477,1.13466823101044
437,3508442277,0.769667,-0.063202,0.370625,-0.515999,-5.01920557022095,-4.73718404769897,7.10536861419678,1.01959025859833,0.55124932527542,1.16331589221954
438,3508458944,0.769673,-0.063229,0.370630,-0.515984,-4.99742937088013,-4.75389719009399,7.12309265136719,0.74530392885208,0.51528912782669,1.01942384243011
439,3508475611,0.769692,-0.063204,0.370612,-0.515971,-5.00887966156006,-4.74460744857788,7.10732412338257,1.15107321739197,0.57048451900482,1.13308024406433
440,3508492278,0.769697,-0.063202,0.370612,-0.515964,-5.00835800170898,-4.73553037643433,7.11380767822266,0.95426517724991,0.60529214143753,1.02317607402802
441,3508508945,0.769687,-0.063204,0.370644,-0.515955,-5.02548360824585,-4.75643253326416,7.11524057388306,0.78026533126831,0.78139227628708,1.01961600780487
442,3508525612,0.769680,-0.063186,0.370638,-0.515972,-5.04165506362915,-4.76170158386230,7.11278200149536,1.12827777862549,0.68096476793289,0.88192194700241
443,3508542279,0.769673,-0.063200,0.370656,-0.515969,-5.00412511825562,-4.76451063156128,7.12251996994019,0.79303318262100,0.66117912530899,0.95041048526764
444,3508558946,0.769675,-0.063190,0.370661,-0.515963,-5.01356697082520,-4.76453828811646,7.11407136917114,0.98918813467026,0.67690521478653,1.01873219013214
445,3508575613,0.769668,-0.063171,0.370653,-0.515981,-5.00729703903198,-4.75156784057617,7.12711143493652,1.15467178821564,0.68895602226257,0.86090695858002
446,3508592280,0.769653,-0.063220,0.370692,-0.515970,-5.01166534423828,-4.75399398803711,7.13968133926392,0.50499284267426,0.66283106803894,0.88730078935623
447,3508608947,0.769649,-0.063199,0.370708,-0.515967,-5.01207208633423,-4.76180124282837,7.09948062896729,1.00263476371765,0.78319793939590,1.03422796726227
448,3508625614,0.769653,-0.063170,0.370689,-0.515979,-5.03060388565063,-4.75877475738525,7.10269308090210,1.22620797157288,0.62071096897125,0.96251237392426
449,3508642281,0.769642,-0.063227,0.370732,-0.515957,-5.02911710739136,-4.77678442001343,7.11981439590454,0.46092614531517,0.68038851022720,0.88625055551529
450,3508658948,0.769650,-0.063146,0.370681,-0.515991,-5.01911687850952,-4.74506473541260,7.11694097518921,1.66634929180145,0.64082968235016,0.97817456722260
451,3508675615,0.769655,-0.063181,0.370726,-0.515947,-5.01762008666992,-4.75841188430786,7.12050628662109,0.50410908460617,0.68878948688507,1.15264821052551
452,3508692282,0.769668,-0.063128,0.370721,-0.515938,-4.98235988616943,-4.77351999282837,7.09190225601196,1.23099756240845,0.73694139719009,1.20158135890961
453,3508708949,0.769678,-0.063011,0.370702,-0.515951,-4.99546194076538,-4.71887874603271,7.10988092422485,1.68254935741425,0.91133826971054,1.22558057308197
454,3508725616,0.769673,-0.063058,0.370769,-0.515905,-5.02109813690186,-4.77482318878174,7.12537240982056,0.35477429628372,0.79143238067627,1.10189688205719
455,3508742283,0.769656,-0.063034,0.370778,-0.515927,-5.03845977783203,-4.78589391708374,7.12240314483643,1.09637725353241,0.80259960889816,0.84938108921051
456,3508758950,0.769640,-0.063056,0.370781,-0.515946,-5.03676939010620,-4.73937988281250,7.10835552215576,0.89256423711777,0.62004506587982,0.73001325130463
457,3508775617,0.769626,-0.063104,0.370801,-0.515947,-5.00954914093018,-4.76094484329224,7.13574886322021,0.64091944694519,0.59617400169373,0.77852368354797
458,3508792284,0.769632,-0.063036,0.370750,-0.515981,-4.99308109283447,-4.74142599105835,7.08429193496704,1.59782242774963,0.59466284513474,0.94946271181107
459,3508808951,0.769647,-0.063060,0.370772,-0.515941,-4.98726940155029,-4.73060464859009,7.10702610015869,0.66986179351807,0.59644299745560,1.16975760459900
460,3508825618,0.769666,-0.063050,0.370759,-0.515923,-5.01493072509766,-4.75082492828369,7.13754987716675,1.02087092399597,0.52911990880966,1.13774180412292
461,3508842285,0.769679,-0.063045,0.370732,-0.515924,-5.01839160919189,-4.75488805770874,7.13807439804077,1.10239613056183,0.47056931257248,0.99495089054108
462,3508858952,0.769691,-0.063053,0.370700,-0.515928,-5.00709867477417,-4.73336791992188,7.15618324279785,1.05247700214386,0.39269387722015,0.93547821044922
463,3508875619,0.769701,-0.063114,0.370712,-0.515897,-5.00959062576294,-4.74760103225708,7.13780975341797,0.52626413106918,0.43078002333641,1.00943493843079
464,3508892286,0.769715,-0.063106,0.370684,-0.515897,-5.02346563339233,-4.77760744094849,7.11061859130859,1.10173034667969,0.45757088065147,1.02341949939728
465,3508908953,0.769729,-0.063120,0.370672,-0.515883,-5.00989532470703,-4.76104354858398,7.10863447189331,0.91949599981308,0.48552709817886,1.02238225936890
466,3508925620,0.769733,-0.063101,0.370655,-0.515892,-5.01484632492065,-4.76301288604736,7.10632801055908,1.15243053436279,0.59212720394135,0.95235699415207
467,3508942287,0.769718,-0.063137,0.370666,-0.515901,-5.01808500289917,-4.75073671340942,7.12893962860107,0.74527835845947,0.58586490154266,0.78339004516602
468,3508958954,0.769703,-0.063165,0.370662,-0.515923,-5.02168655395508,-4.77149200439453,7.12533617019653,0.88954192399979,0.56149441003799,0.70041769742966
469,3508975621,0.769700,-0.063146,0.370636,-0.515949,-4.99761676788330,-4.73177909851074,7.11575794219971,1.22615683078766,0.56714206933975,0.83814990520477
470,3508992288,0.769704,-0.063169,0.370667,-0.515918,-4.99024152755737,-4.75520849227905,7.10722351074219,0.64684867858887,0.67822426557541,1.10051357746124
471,3509008955,0.769709,-0.063105,0.370651,-0.515929,-5.03416061401367,-4.76397562026978,7.13315057754517,1.38872051239014,0.74835181236267,1.07589983940125
472,3509025622,0.769709,-0.063107,0.370662,-0.515922,-5.02307367324829,-4.74051523208618,7.11634397506714,0.91651201248169,0.68602335453033,0.97202748060226
473,3509042289,0.769706,-0.063123,0.370685,-0.515907,-5.01713705062866,-4.75183391571045,7.10948610305786,0.76797115802765,0.69838154315948,0.98202937841415
474,3509058956,0.769710,-0.063069,0.370658,-0.515928,-5.01879310607910,-4.74697971343994,7.11137676239014,1.40509974956512,0.67247414588928,0.97720116376877
475,3509075623,0.769710,-0.063042,0.370664,-0.515926,-5.01270437240601,-4.72670602798462,7.12835025787354,1.05999433994293,0.72932159900665,1.06355452537537
476,3509092290,0.769723,-0.063067,0.370701,-0.515878,-5.01108932495117,-4.77835893630981,7.10825920104980,0.57468491792679,0.66645526885986,1.22036826610565
477,3509108957,0.769739,-0.062984,0.370669,-0.515887,-5.02170419692993,-4.74910640716553,7.13496828079224,1.54401028156281,0.70171105861664,1.17922127246857
478,3509125624,0.769738,-0.062968,0.370695,-0.515871,-5.01543283462524,-4.73289871215820,7.11823225021362,0.91437345743179,0.81293427944183,1.09379029273987
479,3509142291,0.769738,-0.062959,0.370730,-0.515847,-5.00544500350952,-4.76720285415649,7.09545326232910,0.82241100072861,0.82369172573090,1.12241256237030
480,3509158958,0.769727,-0.062909,0.370733,-0.515869,-5.03155183792114,-4.75247383117676,7.10087299346924,1.26253962516785,0.84642291069031,0.93791145086288
481,3509175625,0.769714,-0.062931,0.370766,-0.515862,-5.02118587493896,-4.74018573760986,7.13658523559570,0.74677664041519,0.77984255552292,0.85532325506210
482,3509192292,0.769697,-0.062917,0.370775,-0.515882,-5.01935386657715,-4.74208068847656,7.11776065826416,1.03229415416718,0.75852006673813,0.85135328769684
483,3509208959,0.769692,-0.062937,0.370801,-0.515869,-5.00717115402222,-4.75780820846558,7.10218191146851,0.73649322986603,0.69582027196884,0.96241003274918
484,3509225626,0.769705,-0.062880,0.370786,-0.515867,-5.01837205886841,-4.76417779922485,7.09626340866089,1.33452403545380,0.73111444711685,1.13258075714111
485,3509242293,0.769698,-0.062836,0.370793,-0.515877,-5.02723503112793,-4.70692300796509,7.10491418838501,1.21159601211548,0.84821587800980,0.97179710865021
486,3509258960,0.769688,-0.062877,0.370854,-0.515843,-5.00452232360840,-4.76051712036133,7.09695434570312,0.43321317434311,0.80078101158142,1.03196132183075
487,3509275627,0.769700,-0.062807,0.370852,-0.515835,-5.01905298233032,-4.76644992828369,7.11278724670410,1.33508741855621,0.83085024356842,1.21072506904602
488,3509292294,0.769708,-0.062722,0.370839,-0.515843,-5.02799701690674,-4.75032424926758,7.11987018585205,1.46732592582703,0.82781517505646,1.17116641998291
489,3509308961,0.769712,-0.062718,0.370877,-0.515810,-5.01568937301636,-4.74886703491211,7.15157079696655,0.76036417484283,0.79804050922394,1.18808341026306
490,3509325628,0.769716,-0.062764,0.370896,-0.515785,-5.02214288711548,-4.77517890930176,7.12176227569580,0.56989538669586,0.51409816741943,1.02975857257843
491,3509342295,0.769725,-0.062727,0.370870,-0.515795,-5.00145530700684,-4.73777675628662,7.10887002944946,1.27363002300262,0.58978366851807,1.02820909023285
492,3509358962,0.769741,-0.062736,0.370905,-0.515745,-5.01863002777100,-4.73591804504395,7.09482479095459,0.65813118219376,0.70108360052109,1.29059839248657
493,3509375629,0.769750,-0.062728,0.370935,-0.515711,-5.01711082458496,-4.77311897277832,7.09897804260254,0.81938868761063,0.77164661884308,1.19344937801361
494,3509392296,0.769753,-0.062687,0.370926,-0.515717,-5.03096294403076,-4.75634670257568,7.10752868652344,1.24367582798004,0.72423750162125,1.01987206935883
495,3509408963,0.769758,-0.062659,0.370914,-0.515721,-5.02646350860596,-4.74608278274536,7.12971782684326,1.16898930072784,0.65090841054916,1.01661932468414
496,3509425630,0.769749,-0.062661,0.370940,-0.515717,-5.03180837631226,-4.71612644195557,7.12553834915161,0.83722788095474,0.76316887140274,0.97104138135910
497,3509442297,0.769742,-0.062697,0.370973,-0.515699,-5.01861619949341,-4.75495100021362,7.12217664718628,0.62811309099197,0.69252908229828,0.92642426490784
498,3509458964,0.769760,-0.062691,0.370972,-0.515673,-5.02672767639160,-4.75764846801758,7.08033847808838,0.95052576065063,0.58609539270401,1.16217625141144
499,3509475631,0.769761,-0.062655,0.370967,-0.515680,-5.02481651306152,-4.74753570556641,7.10630512237549,1.19088804721832,0.73047429323196,1.00236582756042
500,3509492298,0.769740,-0.062736,0.371041,-0.515649,-5.01715135574341,-4.76045465469360,7.11335372924805,0.17475545406342,0.75147658586502,0.88905513286591
501,3509508965,0.769745,-0.062638,0.370994,-0.515687,-5.02466773986816,-4.73721265792847,7.09571075439453,1.74248325824738,0.72134327888489,1.00985753536224
502,3509525632,0.769732,-0.062713,0.371070,-0.515642,-5.02352094650269,-4.74338340759277,7.10471725463867,0.18525665998459,0.77799862623215,0.98060780763626
503,3509542299,0.769753,-0.062678,0.371071,-0.515615,-5.01384019851685,-4.77759647369385,7.10686635971069,1.07742393016815,0.67586791515350,1.27379643917084
504,3509558966,0.769759,-0.062609,0.371064,-0.515619,-5.01168775558472,-4.72736072540283,7.11320972442627,1.34982752799988,0.79532545804977,1.16669690608978
505,3509575633,0.769775,-0.062669,0.371100,-0.515561,-5.02803468704224,-4.77335166931152,7.10677194595337,0.36510905623436,0.52462494373322,1.19396173954010
506,3509592300,0.769778,-0.062621,0.371074,-0.515582,-5.03685379028320,-4.77094554901123,7.09820652008057,1.35656368732452,0.65075463056564,0.97516524791718
507,3509608967,0.769763,-0.062639,0.371073,-0.515603,-5.02895641326904,-4.73309278488159,7.14075756072998,0.93435120582581,0.60502320528030,0.73518681526184
508,3509625634,0.769737,-0.062672,0.371102,-0.515617,-5.00548934936523,-4.74361944198608,7.11985158920288,0.72512120008469,0.74506062269211,0.69590991735458
509,3509642301,0.769744,-0.062660,0.371105,-0.515605,-5.02004289627075,-4.74943351745605,7.10283041000366,0.97421741485596,0.64627248048782,1.09421300888062
510,3509658968,0.769762,-0.062587,0.371079,-0.515606,-5.00239419937134,-4.73714256286621,7.10475063323975,1.47064256668091,0.70359367132187,1.17435503005981
511,3509675635,0.769791,-0.062563,0.371074,-0.515569,-5.02391433715820,-4.74718141555786,7.12934398651123,1.05202889442444,0.62192761898041,1.27646028995514
512,3509692302,0.769796,-0.062557,0.371089,-0.515551,-5.02848482131958,-4.75533771514893,7.11754608154297,0.90426921844482,0.69821500778198,1.08149635791779
513,3509708969,0.769806,-0.062532,0.371067,-0.515556,-5.01775407791138,-4.73076343536377,7.09910917282104,1.18883907794952,0.57127839326859,1.02649307250977
514,3509725636,0.769840,-0.062571,0.371070,-0.515497,-5.02288866043091,-4.75933551788330,7.09628343582153,0.62980347871780,0.40415561199188,1.26846897602081
515,3509742303,0.769863,-0.062545,0.371055,-0.515478,-5.03684186935425,-4.76500129699707,7.11717367172241,1.12004351615906,0.56929349899292,1.18931293487549
516,3509758970,0.769870,-0.062541,0.371052,-0.515470,-5.04087829589844,-4.74425935745239,7.12497854232788,0.99758893251419,0.61603665351868,1.00654065608978
517,3509775637,0.769862,-0.062584,0.371060,-0.515471,-5.02760648727417,-4.74300622940063,7.14279317855835,0.70881861448288,0.53469067811966,0.81167918443680
518,3509792304,0.769873,-0.062598,0.371045,-0.515464,-5.04620742797852,-4.75834512710571,7.12250041961670,0.94831031560898,0.47763845324516,0.97027307748795
519,3509808971,0.769866,-0.062593,0.371030,-0.515485,-5.01117706298828,-4.72657394409180,7.10775613784790,1.10135889053345,0.59193509817123,0.81418937444687
520,3509825638,0.769882,-0.062622,0.371048,-0.515446,-4.99479055404663,-4.74413633346558,7.07623577117920,0.63105845451355,0.53759777545929,1.18840372562408
521,3509842305,0.769900,-0.062528,0.371016,-0.515453,-5.00554990768433,-4.74712467193604,7.12749004364014,1.59792506694794,0.73422640562057,1.21233868598938
522,3509858972,0.769920,-0.062516,0.371034,-0.515412,-5.04367589950562,-4.73005723953247,7.13970327377319,0.87387967109680,0.69824057817459,1.27420616149902
523,3509875639,0.769935,-0.062470,0.371006,-0.515415,-5.05060195922852,-4.76384878158569,7.11056947708130,1.33230853080750,0.61234837770462,1.08669555187225
524,3509892306,0.769922,-0.062485,0.371018,-0.515424,-5.04216480255127,-4.74247217178345,7.12553930282593,0.85861462354660,0.66526424884796,0.83558875322342
525,3509908973,0.769926,-0.062456,0.371005,-0.515431,-5.02055692672729,-4.75091505050659,7.10468530654907,1.17224216461182,0.63335084915161,1.01865541934967
526,3509925640,0.769933,-0.062407,0.370968,-0.515452,-5.02946090698242,-4.73049402236938,7.10431575775146,1.42703735828400,0.60754609107971,0.94964206218719
527,3509942307,0.769952,-0.062401,0.370966,-0.515427,-5.00953674316406,-4.73065567016602,7.09985971450806,0.94670945405960,0.57200843095779,1.17189633846283
528,3509958974,0.769976,-0.062355,0.370962,-0.515400,-5.00712680816650,-4.73147869110107,7.10809326171875,1.15910267829895,0.68694537878036,1.30487740039825
529,3509975641,0.769991,-0.062296,0.370946,-0.515395,-5.02113199234009,-4.73261642456055,7.11197757720947,1.33534336090088,0.70653897523880,1.18089890480042
530,3509992308,0.770003,-0.062297,0.370963,-0.515365,-5.03757190704346,-4.73784303665161,7.11865282058716,0.83287370204926,0.67030996084213,1.15399289131165
531,3510008975,0.770015,-0.062314,0.370976,-0.515336,-5.03859710693359,-4.76685810089111,7.10355806350708,0.76443672180176,0.59108990430832,1.10698091983795
532,3510025642,0.770018,-0.062254,0.370932,-0.515369,-5.03965711593628,-4.74650573730469,7.12769031524658,1.53078114986420,0.61904603242874,0.91059541702271
533,3510042309,0.770007,-0.062268,0.370948,-0.515373,-5.04817008972168,-4.74131536483765,7.11639451980591,0.80569875240326,0.65750360488892,0.91908615827560
534,3510058976,0.770006,-0.062246,0.370937,-0.515384,-5.02429771423340,-4.75023317337036,7.10522031784058,1.15806543827057,0.65491676330566,0.92953604459763
535,3510075643,0.770007,-0.062249,0.370939,-0.515382,-5.02320671081543,-4.74069118499756,7.10833311080933,0.94701671600342,0.62753677368164,0.95560973882675
536,3510092310,0.770011,-0.062246,0.370929,-0.515383,-5.03659105300903,-4.73467779159546,7.11277484893799,1.03850531578064,0.58334201574326,0.94026786088943
537,3510108977,0.770005,-0.062259,0.370951,-0.515375,-5.01741218566895,-4.73305702209473,7.11627912521362,0.80373924970627,0.71226352453232,0.94442993402481
538,3510125644,0.770004,-0.062274,0.370966,-0.515364,-5.01909875869751,-4.75297880172729,7.11736392974854,0.77032750844955,0.61839300394058,1.02044844627380
539,3510142311,0.770013,-0.062217,0.370948,-0.515370,-5.04062271118164,-4.74196529388428,7.11210918426514,1.34239995479584,0.70011031627655,1.10509812831879
540,3510158978,0.770023,-0.062232,0.370968,-0.515340,-5.02896213531494,-4.72580575942993,7.10929965972900,0.76537144184113,0.65475022792816,1.09208691120148
541,3510175645,0.770034,-0.062207,0.370976,-0.515320,-5.02089595794678,-4.76989459991455,7.10920858383179,1.03781390190125,0.73749214410782,1.14465725421906
542,3510192312,0.770045,-0.062108,0.370941,-0.515341,-5.03705596923828,-4.72551536560059,7.13035297393799,1.64980363845825,0.74726337194443,1.14767944812775
543,3510208979,0.770041,-0.062126,0.370955,-0.515334,-5.02632093429565,-4.70837402343750,7.11945629119873,0.80482786893845,0.63930583000183,0.93879508972168
544,3510225646,0.770056,-0.062154,0.370979,-0.515292,-5.03071784973145,-4.75304985046387,7.10504722595215,0.63185250759125,0.59130758047104,1.16587722301483
545,3510242313,0.770068,-0.062100,0.370950,-0.515302,-5.02692079544067,-4.75145387649536,7.10949993133545,1.36776936054230,0.62071090936661,1.09649240970612
546,3510258980,0.770059,-0.062091,0.370961,-0.515308,-5.03765201568604,-4.71486949920654,7.10958909988403,0.99925392866135,0.74780118465424,0.90155416727066
547,3510275647,0.770052,-0.062110,0.370995,-0.515290,-5.04386854171753,-4.72961473464966,7.12079143524170,0.70356810092926,0.75440931320190,0.97497302293777
548,3510292314,0.770063,-0.062128,0.371030,-0.515247,-5.02687978744507,-4.76003932952881,7.11019611358643,0.66309988498688,0.72170174121857,1.15976858139038
549,3510308981,0.770065,-0.062085,0.371002,-0.515270,-5.02091121673584,-4.76891565322876,7.10716819763184,1.37390375137329,0.64490222930908,0.91489851474762
550,3510325648,0.770051,-0.062040,0.370979,-0.515313,-5.03420448303223,-4.68978834152222,7.13167715072632,1.38067829608917,0.70571953058243,0.79163742065430
551,3510342315,0.770025,-0.062188,0.371073,-0.515265,-5.02738904953003,-4.75309753417969,7.09783220291138,-0.28789317607880,0.64211034774780,0.78551584482193
552,3510358982,0.770034,-0.062151,0.371038,-0.515282,-5.04006338119507,-4.77486228942871,7.10900020599365,1.33118176460266,0.55299103260040,0.97338509559631
553,3510375649,0.770035,-0.062118,0.371029,-0.515292,-5.01317882537842,-4.72745370864868,7.12531995773315,1.18371665477753,0.68010687828064,1.00846171379089
554,3510392316,0.770053,-0.062128,0.371044,-0.515253,-5.03078222274780,-4.72479343414307,7.10996246337891,0.74316531419754,0.57477462291718,1.24519979953766
555,3510408983,0.770084,-0.062040,0.371007,-0.515243,-5.01012897491455,-4.67990779876709,7.11659955978394,1.55033671855927,0.66180658340454,1.31701791286469
556,3510425650,0.770084,-0.062193,0.371127,-0.515139,-5.03723764419556,-4.76821613311768,7.11788034439087,-0.53988373279572,0.66083329916000,1.18677723407745
557,3510442317,0.770088,-0.062193,0.371108,-0.515146,-5.07491540908813,-4.79236078262329,7.12618970870972,1.04877591133118,0.51097333431244,0.92497688531876
558,3510458984,0.770066,-0.062199,0.371075,-0.515202,-5.07602357864380,-4.74895620346069,7.11927223205566,1.19469153881073,0.51963049173355,0.53673976659775
559,3510475651,0.770037,-0.062246,0.371094,-0.515227,-5.04357767105103,-4.72673559188843,7.11804008483887,0.70192885398865,0.64116269350052,0.60919803380966
560,3510492318,0.770037,-0.062229,0.371095,-0.515227,-5.01000881195068,-4.72121334075928,7.10260581970215,1.05047929286957,0.68507575988770,1.00102126598358
561,3510508985,0.770050,-0.062190,0.371108,-0.515203,-5.00142765045166,-4.71413421630859,7.10261964797974,1.08907759189606,0.79670870304108,1.20871472358704
562,3510525652,0.770084,-0.062132,0.371124,-0.515148,-4.99369907379150,-4.71468448638916,7.08819293975830,1.05648529529572,0.77527076005936,1.56362962722778
563,3510542319,0.770102,-0.062101,0.371145,-0.515110,-5.01294326782227,-4.74552297592163,7.12044715881348,0.93736088275909,0.75616371631622,1.35228657722473
564,3510558986,0.770113,-0.062045,0.371149,-0.515098,-5.07187175750732,-4.75553655624390,7.14442110061646,1.22228920459747,0.80503273010254,1.20369446277618
565,3510575653,0.770115,-0.062031,0.371137,-0.515104,-5.06261968612671,-4.72846889495850,7.14164638519287,1.08330190181732,0.59381759166718,0.97670179605484
566,3510592320,0.770088,-0.062108,0.371184,-0.515101,-5.05077028274536,-4.73436594009399,7.11808776855469,0.37029564380646,0.66153758764267,0.70635992288589
567,3510608987,0.770065,-0.062157,0.371204,-0.515115,-5.02993202209473,-4.75299978256226,7.11051273345947,0.62870204448700,0.58947622776031,0.73119127750397
568,3510625654,0.770056,-0.062153,0.371183,-0.515145,-5.01843690872192,-4.75320577621460,7.10031747817993,1.14008533954620,0.56422215700150,0.75804620981216
569,3510642321,0.770033,-0.062146,0.371164,-0.515193,-5.00731086730957,-4.69626474380493,7.11224412918091,1.16751658916473,0.61087566614151,0.64531195163727
570,3510658988,0.770026,-0.062199,0.371211,-0.515165,-5.01702547073364,-4.71405601501465,7.11221981048584,0.48017409443855,0.72509562969208,0.91340011358261
571,3510675655,0.770028,-0.062176,0.371231,-0.515150,-5.01039600372314,-4.73898315429688,7.11235237121582,0.97228372097015,0.79345589876175,1.12222051620483
572,3510692322,0.770044,-0.062181,0.371267,-0.515099,-5.05023670196533,-4.75847768783569,7.11195325851440,0.67299926280975,0.72211170196533,1.29785943031311
573,3510708989,0.770058,-0.062096,0.371233,-0.515113,-5.06571102142334,-4.75579547882080,7.11495923995972,1.58359479904175,0.70977908372879,1.13616645336151
574,3510725656,0.770048,-0.062089,0.371214,-0.515142,-5.05086326599121,-4.71773290634155,7.13676786422729,1.14715445041656,0.59844076633453,0.76001852750778
575,3510742323,0.770023,-0.062162,0.371265,-0.515134,-5.02029895782471,-4.74606561660767,7.10579967498779,0.34269791841507,0.66709554195404,0.77588546276093
576,3510758990,0.770017,-0.062105,0.371229,-0.515176,-5.00227212905884,-4.72192621231079,7.09086036682129,1.49425756931305,0.65775978565216,0.85929322242737
577,3510775657,0.770035,-0.062088,0.371226,-0.515153,-5.03302812576294,-4.71899557113647,7.10441160202026,0.96196162700653,0.56050825119019,1.25257611274719
578,3510792324,0.770060,-0.062064,0.371215,-0.515127,-5.03798866271973,-4.74971246719360,7.13294649124146,1.06443822383881,0.56419658660889,1.25114202499390
579,3510808991,0.770093,-0.062003,0.371187,-0.515104,-5.04856872558594,-4.75512123107910,7.12438917160034,1.35503971576691,0.60805821418762,1.32657122612000
580,3510825658,0.770102,-0.061947,0.371178,-0.515104,-5.03073787689209,-4.72448635101318,7.12073087692261,1.29167389869690,0.74416404962540,1.12893068790436
581,3510842325,0.770101,-0.061948,0.371199,-0.515090,-5.04306221008301,-4.75386381149292,7.10866403579712,0.84033983945847,0.71931976079941,1.04725205898285
582,3510858992,0.770091,-0.061998,0.371214,-0.515088,-5.05168342590332,-4.76386737823486,7.11569976806641,0.63726955652237,0.55159509181976,0.80613404512405
583,3510875659,0.770086,-0.061917,0.371163,-0.515142,-5.02464342117310,-4.72567605972290,7.09580945968628,1.71099233627319,0.67425435781479,0.84004527330399
584,3510892326,0.770073,-0.061936,0.371208,-0.515127,-5.04851484298706,-4.72495841979980,7.11276388168335,0.64779633283615,0.80416190624237,0.97592061758041
585,3510908993,0.770053,-0.061949,0.371213,-0.515152,-5.04893875122070,-4.75926065444946,7.10626363754272,0.92851161956787,0.66101264953613,0.72916793823242
586,3510925660,0.770048,-0.061874,0.371173,-0.515197,-5.04808998107910,-4.71830511093140,7.12104511260986,1.60964274406433,0.69949555397034,0.88162750005722
587,3510942327,0.770031,-0.061949,0.371222,-0.515177,-5.03729391098022,-4.72159004211426,7.13514089584351,0.32753521203995,0.64455640316010,0.84014785289764
588,3510958994,0.770028,-0.061987,0.371236,-0.515169,-5.04437112808228,-4.77139425277710,7.10516071319580,0.69519275426865,0.56629681587219,0.89233368635178
589,3510975661,0.770042,-0.061921,0.371187,-0.515191,-5.04843521118164,-4.74690485000610,7.11342000961304,1.56360399723053,0.58263760805130,1.02222836017609
590,3510992328,0.770034,-0.061957,0.371213,-0.515180,-5.03846454620361,-4.72459745407104,7.10027933120728,0.63050782680511,0.62854850292206,0.93159788846970
591,3511008995,0.770051,-0.061947,0.371210,-0.515158,-5.03198051452637,-4.74273729324341,7.09575176239014,0.95129400491714,0.56280058622360,1.19497323036194
592,3511025662,0.770071,-0.061879,0.371182,-0.515157,-5.03029298782349,-4.74204349517822,7.11108207702637,1.39915764331818,0.63483631610870,1.23732388019562
593,3511042329,0.770098,-0.061857,0.371163,-0.515131,-5.04067134857178,-4.72281789779663,7.11003255844116,1.09243297576904,0.51016658544540,1.24354779720306
594,3511058996,0.770133,-0.061840,0.371139,-0.515098,-5.03593397140503,-4.72942972183228,7.11304092407227,1.06761419773102,0.45481756329536,1.29036784172058
595,3511075663,0.770147,-0.061817,0.371123,-0.515092,-5.04016351699829,-4.71468544006348,7.12574481964111,1.11212909221649,0.56209629774094,1.12127280235291
596,3511092330,0.770150,-0.061880,0.371141,-0.515067,-5.04227781295776,-4.75515604019165,7.10956811904907,0.49193030595779,0.45919725298882,0.96434372663498
597,3511108997,0.770165,-0.061830,0.371104,-0.515078,-5.05119514465332,-4.73547220230103,7.11826562881470,1.36919081211090,0.54441070556641,1.10599470138550
598,3511125664,0.770175,-0.061804,0.371096,-0.515072,-5.02186059951782,-4.69222021102905,7.13376379013062,1.10824882984161,0.63719278573990,1.09170293807983
599,3511142331,0.770184,-0.061871,0.371139,-0.515019,-5.04004144668579,-4.74752473831177,7.10642147064209,0.32982751727104,0.57022833824158,1.11329448223114
600,3511158998,0.770199,-0.061772,0.371094,-0.515040,-5.02492523193359,-4.73369312286377,7.10357570648193,1.69219267368317,0.68634355068207,1.15472304821014
601,3511175665,0.770205,-0.061804,0.371151,-0.514988,-5.04751873016357,-4.74566602706909,7.11155176162720,0.48311951756477,0.79043352603912,1.16802871227264
602,3511192332,0.770198,-0.061779,0.371140,-0.515008,-5.05730533599854,-4.75186586380005,7.10488510131836,1.18746888637543,0.68215584754944,0.88563603162766
603,3511208999,0.770171,-0.061746,0.371130,-0.515061,-5.06063175201416,-4.71052026748657,7.12224006652832,1.29026544094086,0.76642161607742,0.66850429773331
604,3511225666,0.770143,-0.061819,0.371181,-0.515056,-5.02682685852051,-4.74649190902710,7.12736654281616,0.36799043416977,0.69789481163025,0.72222679853439
605,3511242333,0.770130,-0.061803,0.371179,-0.515078,-5.02434825897217,-4.74178743362427,7.12436962127686,1.11767423152924,0.72133046388626,0.82054132223129
606,3511259000,0.770130,-0.061782,0.371172,-0.515087,-5.02824211120605,-4.71049213409424,7.11882019042969,1.13145387172699,0.67087346315384,0.95374017953873
607,3511275667,0.770138,-0.061815,0.371195,-0.515055,-5.04378366470337,-4.72513484954834,7.10894155502319,0.65677368640900,0.61606228351593,1.04038786888123
608,3511292334,0.770147,-0.061826,0.371205,-0.515033,-5.04654073715210,-4.75041770935059,7.13233375549316,0.80901563167572,0.59427875280380,1.09539127349854
609,3511309001,0.770157,-0.061813,0.371171,-0.515044,-5.03371000289917,-4.74059820175171,7.10686397552490,1.19187414646149,0.47355318069458,0.94405841827393
610,3511325668,0.770170,-0.061777,0.371138,-0.515051,-5.04340362548828,-4.71859216690063,7.10853385925293,1.29333889484406,0.54095304012299,1.04159164428711
611,3511342335,0.770192,-0.061842,0.371158,-0.514997,-5.04257917404175,-4.71865653991699,7.13053417205811,0.42148256301880,0.41920301318169,1.15951251983643
612,3511359002,0.770203,-0.061851,0.371162,-0.514977,-5.03614950180054,-4.74324893951416,7.11283302307129,0.82077175378799,0.54434669017792,1.12680506706238
613,3511375669,0.770213,-0.061845,0.371147,-0.514973,-5.03957748413086,-4.73475790023804,7.11449003219604,1.04606103897095,0.53069508075714,1.02886211872101
614,3511392336,0.770201,-0.061886,0.371157,-0.514979,-5.06191682815552,-4.73979234695435,7.10277414321899,0.72933441400528,0.57148337364197,0.77416944503784
615,3511409003,0.770191,-0.061916,0.371167,-0.514983,-5.05460023880005,-4.73694419860840,7.09521579742432,0.76961046457291,0.59304928779602,0.82862210273743
616,3511425670,0.770180,-0.061874,0.371161,-0.515009,-5.01558208465576,-4.71975564956665,7.08712768554688,1.25949168205261,0.76405251026154,0.90433329343796
617,3511442337,0.770191,-0.061865,0.371172,-0.514985,-5.01445913314819,-4.72061109542847,7.11444664001465,0.90989124774933,0.67048925161362,1.15095794200897
618,3511459004,0.770192,-0.061839,0.371175,-0.514984,-5.05436897277832,-4.72937679290771,7.13702678680420,1.10240912437439,0.73516130447388,1.02436709403992
619,3511475671,0.770185,-0.061842,0.371184,-0.514988,-5.06715965270996,-4.73001480102539,7.13406038284302,0.93486344814301,0.68597209453583,0.89413928985596
620,3511492338,0.770164,-0.061906,0.371216,-0.514989,-5.04155778884888,-4.74179601669312,7.08899021148682,0.49105945229530,0.60693132877350,0.74430501461029
621,3511509005,0.770166,-0.061909,0.371216,-0.514986,-5.04740762710571,-4.77638578414917,7.10321569442749,0.93642598390579,0.60218024253845,0.98032617568970
622,3511525672,0.770164,-0.061796,0.371156,-0.515046,-5.04583454132080,-4.70645189285278,7.11601877212524,1.88487720489502,0.69268268346786,0.95019268989563
623,3511542339,0.770167,-0.061865,0.371217,-0.514988,-5.02590036392212,-4.70844078063965,7.12234163284302,0.24268032610416,0.67335790395737,1.11626553535461
624,3511559006,0.770191,-0.061848,0.371225,-0.514949,-5.02692317962646,-4.76980686187744,7.11235952377319,0.93990939855576,0.64619565010071,1.29438912868500
625,3511575673,0.770223,-0.061715,0.371150,-0.514970,-5.02993345260620,-4.70691871643066,7.10967445373535,1.99051666259766,0.61315524578094,1.28455388545990
626,3511592340,0.770209,-0.061812,0.371246,-0.514910,-5.04725551605225,-4.72507715225220,7.11940240859985,-0.08422095328569,0.76364266872406,1.07182729244232
627,3511609007,0.770218,-0.061764,0.371239,-0.514909,-5.06007957458496,-4.77876901626587,7.11404514312744,1.25767302513123,0.74544471502304,1.09396946430206
628,3511625674,0.770204,-0.061693,0.371212,-0.514958,-5.05467605590820,-4.73134040832520,7.12406778335571,1.54430484771729,0.77616721391678,0.82549721002579
629,3511642341,0.770179,-0.061784,0.371289,-0.514928,-5.06293010711670,-4.74218750000000,7.11082601547241,0.11624322831631,0.75008064508438,0.84402805566788
630,3511659008,0.770166,-0.061716,0.371274,-0.514967,-5.02715587615967,-4.75582027435303,7.11098241806030,1.47926127910614,0.83583199977875,0.85735946893692
631,3511675675,0.770148,-0.061668,0.371248,-0.515018,-5.02781391143799,-4.69675397872925,7.11362791061401,1.43191635608673,0.71672016382217,0.73703098297119
632,3511692342,0.770132,-0.061756,0.371328,-0.514975,-5.03869581222534,-4.73116207122803,7.09681987762451,0.10311672836542,0.76337373256683,0.93080401420593
633,3511709009,0.770128,-0.061717,0.371330,-0.514984,-5.01685237884521,-4.76421546936035,7.10088586807251,1.15920519828796,0.76674181222916,1.02891337871552
634,3511725676,0.770134,-0.061659,0.371314,-0.514993,-5.06062889099121,-4.72702169418335,7.13160467147827,1.35911226272583,0.72854042053223,1.06868982315063
635,3511742343,0.770128,-0.061658,0.371341,-0.514983,-5.06291151046753,-4.71403980255127,7.12005043029785,0.83423125743866,0.76946955919266,1.02268946170807
636,3511759010,0.770129,-0.061681,0.371368,-0.514959,-5.04023790359497,-4.73230934143066,7.11195039749146,0.67442083358765,0.66003936529160,1.05050492286682
637,3511775677,0.770136,-0.061665,0.371355,-0.514960,-5.03578901290894,-4.73613357543945,7.09886932373047,1.12161850929260,0.61423093080521,0.97800809144974
638,3511792344,0.770134,-0.061686,0.371379,-0.514943,-5.04150629043579,-4.74710655212402,7.11141633987427,0.72158652544022,0.66644245386124,1.00841033458710
639,3511809011,0.770132,-0.061690,0.371374,-0.514948,-5.03188514709473,-4.74518823623657,7.09682464599609,0.95575070381165,0.57221335172653,0.93715596199036
640,3511825678,0.770126,-0.061685,0.371385,-0.514950,-5.03796291351318,-4.73372125625610,7.11101579666138,0.93657958507538,0.69453954696655,0.96534258127213
641,3511842345,0.770127,-0.061699,0.371389,-0.514944,-5.03101015090942,-4.73149347305298,7.09686231613159,0.85785889625549,0.58367502689362,0.96426701545715
642,3511859012,0.770123,-0.061731,0.371402,-0.514937,-5.04759740829468,-4.74847364425659,7.10579395294189,0.72933435440063,0.58778578042984,0.90091383457184
643,3511875679,0.770123,-0.061726,0.371394,-0.514943,-5.05438089370728,-4.74113464355469,7.12382459640503,1.02993786334991,0.59267789125443,0.93684858083725
644,3511892346,0.770108,-0.061701,0.371384,-0.514976,-5.03716659545898,-4.71003770828247,7.13498497009277,1.19376957416534,0.69633245468140,0.81576448678970
645,3511909013,0.770101,-0.061789,0.371435,-0.514940,-5.04891204833984,-4.74377727508545,7.10911798477173,0.22690288722515,0.58441770076752,0.91036498546600
646,3511925680,0.770108,-0.061682,0.371375,-0.514985,-5.02198553085327,-4.71706485748291,7.10228919982910,1.84727764129639,0.67339634895325,1.01217555999756
647,3511942347,0.770115,-0.061722,0.371424,-0.514935,-5.04015684127808,-4.72330570220947,7.09533500671387,0.45438212156296,0.70005917549133,1.16037058830261
648,3511959014,0.770107,-0.061729,0.371431,-0.514940,-5.06251001358032,-4.76772499084473,7.10756683349609,0.88156348466873,0.62286245822906,0.93604177236557
649,3511975681,0.770093,-0.061723,0.371416,-0.514973,-5.07502317428589,-4.72868442535400,7.13317298889160,1.12347555160522,0.61311686038971,0.74183338880539
650,3511992348,0.770065,-0.061821,0.371453,-0.514976,-5.07186937332153,-4.72984933853149,7.11440896987915,0.31187301874161,0.54437226057053,0.60803264379501
651,3512009015,0.770049,-0.061812,0.371453,-0.515001,-5.03022098541260,-4.74457216262817,7.10479688644409,1.06222259998322,0.69514149427414,0.79889857769012
652,3512025682,0.770047,-0.061814,0.371440,-0.515014,-5.02721500396729,-4.72282648086548,7.09318351745605,1.02482807636261,0.54564017057419,0.89025908708572
653,3512042349,0.770063,-0.061827,0.371454,-0.514978,-5.03382396697998,-4.72675514221191,7.10825634002686,0.75492149591446,0.58824682235718,1.17708277702332
654,3512059016,0.770071,-0.061811,0.371432,-0.514985,-5.04200363159180,-4.72962093353271,7.09782600402832,1.13973951339722,0.53594571352005,0.99593698978424
655,3512075683,0.770081,-0.061819,0.371420,-0.514977,-5.05167436599731,-4.72563743591309,7.11183738708496,0.91471910476685,0.47601205110550,1.05018472671509
656,3512092350,0.770082,-0.061839,0.371411,-0.514979,-5.03381824493408,-4.74172067642212,7.10682964324951,0.84511673450470,0.45229464769363,0.97054195404053
657,3512109017,0.770093,-0.061848,0.371403,-0.514968,-5.04324531555176,-4.73740148544312,7.11382818222046,0.92273581027985,0.51440542936325,1.02343225479126
658,3512125684,0.770087,-0.061893,0.371426,-0.514955,-5.05637979507446,-4.74594974517822,7.10919046401978,0.61008173227310,0.59173023700714,0.89758431911469
659,3512142351,0.770072,-0.061888,0.371426,-0.514977,-5.04075717926025,-4.77235651016235,7.10651350021362,1.03954267501831,0.68444824218750,0.80472540855408
660,3512159018,0.770060,-0.061856,0.371408,-0.515012,-5.05180978775024,-4.72551202774048,7.12267494201660,1.28283774852753,0.68731689453125,0.79814291000366
661,3512175685,0.770042,-0.061920,0.371446,-0.515005,-5.03621959686279,-4.72430801391602,7.09662008285522,0.46496015787125,0.63523340225220,0.78391510248184
662,3512192352,0.770031,-0.061886,0.371432,-0.515034,-5.02268218994141,-4.72432994842529,7.12020969390869,1.27120947837830,0.71665620803833,0.83275854587555
663,3512209019,0.770039,-0.061907,0.371462,-0.514999,-5.03206253051758,-4.72542142868042,7.08363056182861,0.69398891925812,0.69984143972397,1.08577358722687
664,3512225686,0.770057,-0.061866,0.371465,-0.514974,-5.06573867797852,-4.75421953201294,7.12376070022583,1.10360002517700,0.71971684694290,1.27439832687378
665,3512242353,0.770048,-0.061807,0.371438,-0.515015,-5.06628990173340,-4.72835922241211,7.13271713256836,1.47034823894501,0.72257268428802,0.84975248575211
666,3512259020,0.770045,-0.061850,0.371460,-0.514999,-5.05601549148560,-4.70639944076538,7.12924718856812,0.62653791904449,0.59609717130661,0.91834336519241
667,3512275687,0.770033,-0.061894,0.371472,-0.515002,-5.03822612762451,-4.75276374816895,7.11591100692749,0.67552214860916,0.54068410396576,0.81995218992233
668,3512292354,0.770042,-0.061856,0.371417,-0.515032,-5.04847145080566,-4.71757793426514,7.09920072555542,1.43409359455109,0.45704585313797,0.90169513225555
669,3512309021,0.770055,-0.061921,0.371433,-0.514995,-5.02071475982666,-4.71866130828857,7.09832668304443,0.50010079145432,0.44664704799652,1.00491416454315
670,3512325688,0.770065,-0.061923,0.371429,-0.514981,-5.01077079772949,-4.74384117126465,7.10065031051636,0.90571618080139,0.52876132726669,1.10607147216797
671,3512342355,0.770078,-0.061863,0.371400,-0.514989,-5.02721881866455,-4.72549295425415,7.13632345199585,1.40093767642975,0.64818054437637,1.11324310302734
672,3512359022,0.770083,-0.061893,0.371435,-0.514954,-5.04034805297852,-4.75642395019531,7.10817718505859,0.59392005205154,0.67121917009354,1.10002696514130
673,3512375689,0.770083,-0.061855,0.371431,-0.514961,-5.05607557296753,-4.76010608673096,7.11312294006348,1.20409142971039,0.74442023038864,1.00120043754578
674,3512392356,0.770063,-0.061847,0.371425,-0.514997,-5.05649423599243,-4.73043155670166,7.10285520553589,1.11773836612701,0.68909692764282,0.70764052867889
675,3512409023,0.770034,-0.061883,0.371438,-0.515026,-5.04495716094971,-4.74323558807373,7.11477136611938,0.78186601400375,0.64688718318939,0.62274712324142
676,3512425690,0.770003,-0.061924,0.371453,-0.515056,-5.02983570098877,-4.75112438201904,7.11654615402222,0.73710781335831,0.62046760320663,0.62264472246170
677,3512442357,0.769984,-0.061927,0.371432,-0.515100,-5.03853559494019,-4.74815130233765,7.10829734802246,1.11775100231171,0.55798548460007,0.65984719991684
678,3512459024,0.769964,-0.061950,0.371449,-0.515114,-5.03894376754761,-4.72783899307251,7.10017395019531,0.81936311721802,0.69165819883347,0.74120593070984
679,3512475691,0.769959,-0.061971,0.371447,-0.515121,-5.03186130523682,-4.74642133712769,7.10589408874512,0.86669528484344,0.54818862676620,0.85756433010101
680,3512492358,0.769962,-0.061956,0.371442,-0.515122,-5.03652620315552,-4.74182128906250,7.11907291412354,1.05389857292175,0.62858682870865,1.01451897621155
681,3512509025,0.769975,-0.061953,0.371431,-0.515111,-5.05267381668091,-4.73528289794922,7.10389518737793,0.98541027307510,0.52960664033890,1.07628417015076
682,3512525692,0.769992,-0.061889,0.371389,-0.515123,-5.04528045654297,-4.72632026672363,7.11692810058594,1.47890257835388,0.56993371248245,1.11695683002472
683,3512542359,0.770019,-0.061914,0.371393,-0.515077,-5.03907155990601,-4.72181320190430,7.09513378143311,0.71431261301041,0.47377094626427,1.23677337169647
684,3512559026,0.770035,-0.061934,0.371409,-0.515040,-5.03008508682251,-4.76548099517822,7.10951328277588,0.69634526968002,0.56560528278351,1.18070721626282
685,3512575693,0.770059,-0.061876,0.371360,-0.515047,-5.04200983047485,-4.74708414077759,7.10640716552734,1.47777593135834,0.51058912277222,1.13220930099487
686,3512592360,0.770055,-0.061915,0.371376,-0.515037,-5.05315732955933,-4.71669101715088,7.11297893524170,0.67930012941360,0.57476180791855,0.89169335365295
687,3512609027,0.770055,-0.061938,0.371389,-0.515023,-5.04862976074219,-4.75668191909790,7.10143852233887,0.71923029422760,0.56696277856827,1.03573918342590
688,3512625694,0.770066,-0.061880,0.371343,-0.515047,-5.03023338317871,-4.74109125137329,7.10325908660889,1.47796797752380,0.54186224937439,1.03094947338104
689,3512642361,0.770067,-0.061925,0.371358,-0.515029,-5.03003263473511,-4.73667716979980,7.10702371597290,0.61531955003738,0.52205091714859,0.95819681882858
690,3512659028,0.770061,-0.061907,0.371345,-0.515050,-5.04610347747803,-4.74095678329468,7.10756587982178,1.15707933902740,0.63894718885422,0.86497932672501
691,3512675695,0.770056,-0.061952,0.371365,-0.515038,-5.04425525665283,-4.75519704818726,7.09247350692749,0.62296491861343,0.57754075527191,0.90058094263077
692,3512692362,0.770077,-0.061858,0.371303,-0.515063,-5.02898550033569,-4.73034811019897,7.10630226135254,1.75788915157318,0.58203577995300,1.11041283607483
693,3512709029,0.770075,-0.061893,0.371344,-0.515031,-5.04276275634766,-4.71466398239136,7.13287782669067,0.55506557226181,0.70842170715332,1.03795456886292
694,3512725696,0.770089,-0.061873,0.371357,-0.515004,-5.04086923599243,-4.74728870391846,7.12478113174438,0.98354053497314,0.73514860868454,1.17886292934418
695,3512742363,0.770090,-0.061825,0.371373,-0.514997,-5.03636264801025,-4.73252391815186,7.11621475219727,1.14482355117798,0.87076759338379,1.12303996086121
696,3512759030,0.770090,-0.061871,0.371417,-0.514959,-5.05824422836304,-4.75963544845581,7.10293340682983,0.46179699897766,0.66691619157791,1.07239091396332
697,3512775697,0.770086,-0.061817,0.371376,-0.515001,-5.06720542907715,-4.75468730926514,7.11291027069092,1.51155900955200,0.64090651273727,0.81422764062881
698,3512792364,0.770065,-0.061840,0.371386,-0.515023,-5.05249643325806,-4.71576786041260,7.11342620849609,0.84593623876572,0.64713042974472,0.73011559247971
699,3512809031,0.770047,-0.061891,0.371421,-0.515018,-5.02689886093140,-4.74236106872559,7.09315681457520,0.53001636266708,0.65131807327271,0.83420556783676
700,3512825698,0.770046,-0.061858,0.371415,-0.515028,-5.03169298171997,-4.75498819351196,7.12029266357422,1.18424153327942,0.71176421642303,0.98145306110382
701,3512842365,0.770052,-0.061835,0.371407,-0.515027,-5.03261995315552,-4.72416067123413,7.09452438354492,1.10659670829773,0.63269764184952,1.04624032974243
702,3512859032,0.770070,-0.061858,0.371426,-0.514984,-5.03916120529175,-4.73293924331665,7.12763071060181,0.68187409639359,0.58779865503311,1.18947935104370
703,3512875699,0.770087,-0.061870,0.371399,-0.514977,-5.05149841308594,-4.74493980407715,7.11919498443604,0.98929059505463,0.39442273974419,1.00908911228180
704,3512892366,0.770106,-0.061893,0.371375,-0.514962,-5.03526830673218,-4.75501728057861,7.10746383666992,0.89226967096329,0.35232830047607,1.04092562198639
705,3512909033,0.770141,-0.061911,0.371349,-0.514927,-5.03953790664673,-4.73898077011108,7.11380338668823,0.91001921892166,0.32943055033684,1.18301224708557
706,3512925700,0.770150,-0.061972,0.371351,-0.514905,-5.05310773849487,-4.73529672622681,7.11377525329590,0.58617222309113,0.39133644104004,0.93504279851913
707,3512942367,0.770151,-0.062045,0.371355,-0.514892,-5.04773569107056,-4.75421047210693,7.11496925354004,0.52573901414871,0.37088465690613,0.85606604814529
708,3512959034,0.770156,-0.062086,0.371344,-0.514887,-5.05348825454712,-4.76973056793213,7.08703994750977,0.77589827775955,0.40297737717628,0.88486748933792
709,3512975701,0.770150,-0.062120,0.371334,-0.514899,-5.05132770538330,-4.73710727691650,7.11597537994385,0.83747124671936,0.45743000507355,0.79501819610596
710,3512992368,0.770134,-0.062121,0.371321,-0.514932,-5.02081394195557,-4.72501373291016,7.11323499679565,1.07879400253296,0.60512566566467,0.72938561439514
711,3513009035,0.770134,-0.062146,0.371345,-0.514912,-5.01650524139404,-4.73675489425659,7.07856988906860,0.72600477933884,0.67171877622604,0.96771186590195
712,3513025702,0.770147,-0.062141,0.371348,-0.514891,-5.04196977615356,-4.73745870590210,7.10199975967407,0.95587879419327,0.63484919071198,1.09293234348297
713,3513042369,0.770149,-0.062132,0.371358,-0.514882,-5.04474782943726,-4.74319219589233,7.10103988647461,0.93865412473679,0.68878954648972,1.05750989913940
714,3513059036,0.770143,-0.062118,0.371344,-0.514903,-5.05399751663208,-4.76364183425903,7.12432956695557,1.14306914806366,0.61876440048218,0.85705208778381
715,3513075703,0.770138,-0.062154,0.371360,-0.514895,-5.03326559066772,-4.75307798385620,7.10995531082153,0.72530049085617,0.62142813205719,0.84548801183701
716,3513092370,0.770148,-0.062129,0.371337,-0.514899,-5.03649902343750,-4.74461603164673,7.08583831787109,1.20088982582092,0.57284086942673,1.01253414154053
717,3513109037,0.770142,-0.062153,0.371355,-0.514892,-5.02980566024780,-4.73958826065063,7.09568500518799,0.75262916088104,0.64604192972183,0.92196756601334
718,3513125704,0.770155,-0.062135,0.371356,-0.514875,-5.02963733673096,-4.76340293884277,7.09375524520874,1.00554180145264,0.63555341959000,1.15917932987213
719,3513142371,0.770164,-0.062064,0.371331,-0.514886,-5.03652334213257,-4.74689769744873,7.10580301284790,1.46386826038361,0.71844899654388,1.09632599353790
720,3513159038,0.770151,-0.062056,0.371338,-0.514902,-5.04035854339600,-4.71307611465454,7.10366296768188,1.01837360858917,0.73452097177505,0.85282611846924
721,3513175705,0.770135,-0.062089,0.371381,-0.514891,-5.04307794570923,-4.74405765533447,7.10405969619751,0.61343693733215,0.77012270689011,0.87297046184540
722,3513192372,0.770134,-0.062081,0.371378,-0.514896,-5.04230928421021,-4.75425577163696,7.10439682006836,1.03733992576599,0.64624679088593,0.93721991777420
723,3513209039,0.770124,-0.062064,0.371379,-0.514912,-5.04467535018921,-4.75560903549194,7.11166334152222,1.08471059799194,0.71701472997665,0.88080799579620
724,3513225706,0.770115,-0.062033,0.371367,-0.514939,-5.04986906051636,-4.73643445968628,7.12789821624756,1.23691415786743,0.70473337173462,0.85675764083862
725,3513242373,0.770106,-0.062032,0.371363,-0.514954,-5.03886985778809,-4.72198104858398,7.13521432876587,1.01381456851959,0.62950885295868,0.84838223457336
726,3513259040,0.770102,-0.062065,0.371380,-0.514944,-5.03994321823120,-4.75633335113525,7.12719011306763,0.70427244901657,0.60280770063400,0.92044365406036
727,3513275707,0.770108,-0.062052,0.371361,-0.514950,-5.03432941436768,-4.74934434890747,7.11685276031494,1.10905551910400,0.54008221626282,0.98906004428864
728,3513292374,0.770113,-0.062048,0.371345,-0.514955,-5.03912782669067,-4.70567178726196,7.10387802124023,1.06196641921997,0.54619085788727,0.94660693407059
729,3513309041,0.770125,-0.062085,0.371368,-0.514916,-5.04091787338257,-4.74568653106689,7.11705350875854,0.59517508745193,0.57286649942398,1.10888910293579
730,3513325708,0.770140,-0.062057,0.371349,-0.514910,-5.04060077667236,-4.76134634017944,7.10908937454224,1.15033042430878,0.55564194917679,1.13429689407349
731,3513342375,0.770156,-0.062030,0.371326,-0.514907,-5.05067729949951,-4.72216558456421,7.11719608306885,1.18562483787537,0.55533456802368,1.09446907043457
732,3513359042,0.770172,-0.062052,0.371334,-0.514875,-5.03136873245239,-4.74505901336670,7.08540201187134,0.74303722381592,0.52974748611450,1.13559031486511
733,3513375709,0.770193,-0.062022,0.371314,-0.514861,-5.04475355148315,-4.76548767089844,7.10492992401123,1.15368568897247,0.54389846324921,1.18653392791748
734,3513392376,0.770207,-0.061972,0.371282,-0.514869,-5.03890705108643,-4.72748279571533,7.11036396026611,1.33914709091187,0.57255911827087,1.12730443477631
735,3513409043,0.770214,-0.061989,0.371294,-0.514848,-5.04456996917725,-4.74513959884644,7.11878490447998,0.79345583915710,0.60799425840378,1.03831315040588
736,3513425710,0.770220,-0.061975,0.371287,-0.514846,-5.03564023971558,-4.74111270904541,7.10747861862183,1.05109381675720,0.60873699188232,1.03039896488190
737,3513442377,0.770221,-0.061985,0.371293,-0.514839,-5.03634595870972,-4.74660444259644,7.10805463790894,0.85408109426498,0.59806942939758,0.99550169706345
738,3513459044,0.770233,-0.061966,0.371265,-0.514844,-5.04486274719238,-4.74746513366699,7.12105655670166,1.17584061622620,0.50206011533737,1.01515936851501
739,3513475711,0.770220,-0.061986,0.371265,-0.514859,-5.04786157608032,-4.74214506149292,7.12077665328979,0.89114266633987,0.59267789125443,0.78308272361755
740,3513492378,0.770206,-0.061996,0.371261,-0.514883,-5.04069662094116,-4.72903203964233,7.12231540679932,0.98158103227615,0.60963350534439,0.74959403276443
741,3513509045,0.770186,-0.062034,0.371289,-0.514888,-5.03261947631836,-4.74200963973999,7.13514852523804,0.65444284677505,0.67522758245468,0.80183118581772
742,3513525712,0.770167,-0.062096,0.371334,-0.514877,-5.04889535903931,-4.74584007263184,7.10284233093262,0.42126485705376,0.66215229034424,0.83374452590942
743,3513542379,0.770150,-0.062076,0.371320,-0.514915,-5.04077911376953,-4.71751213073730,7.12769556045532,1.19844388961792,0.66915744543076,0.75296217203140
744,3513559046,0.770148,-0.062153,0.371391,-0.514858,-5.04589939117432,-4.73376750946045,7.11454534530640,0.16241015493870,0.70953583717346,1.07744944095612
745,3513575713,0.770169,-0.062095,0.371387,-0.514836,-4.99497795104980,-4.71744728088379,7.09930801391602,1.23998761177063,0.74165409803391,1.30011343955994
746,3513592380,0.770198,-0.062083,0.371408,-0.514779,-5.03914642333984,-4.76192569732666,7.10625839233398,0.81047552824020,0.67137289047241,1.41316795349121
747,3513609047,0.770194,-0.062103,0.371408,-0.514783,-5.07082796096802,-4.75721788406372,7.11992549896240,0.86134237051010,0.55127495527267,0.87738871574402
748,3513625714,0.770157,-0.062159,0.371432,-0.514813,-5.06737470626831,-4.75326395034790,7.13122129440308,0.63501566648483,0.64659261703491,0.54503828287125
749,3513642381,0.770120,-0.062205,0.371457,-0.514845,-5.03278970718384,-4.75440788269043,7.10498142242432,0.69342541694641,0.69761306047440,0.55667918920517
750,3513659048,0.770104,-0.062237,0.371469,-0.514857,-5.02285194396973,-4.74409484863281,7.10187482833862,0.76802241802216,0.61305278539658,0.77112150192261
751,3513675715,0.770111,-0.062222,0.371461,-0.514853,-5.01100158691406,-4.74386596679688,7.08371782302856,1.06638467311859,0.61223310232162,1.03211486339569
752,3513692382,0.770128,-0.062174,0.371459,-0.514835,-5.01389455795288,-4.71812868118286,7.07718896865845,1.18054044246674,0.72478812932968,1.24476432800293
753,3513709049,0.770133,-0.062185,0.371511,-0.514788,-5.02762222290039,-4.74436378479004,7.10917377471924,0.62386131286621,0.84372067451477,1.19002997875214
754,3513725716,0.770150,-0.062188,0.371518,-0.514758,-5.03953313827515,-4.75220203399658,7.11634254455566,0.86173933744431,0.59627646207809,1.15985834598541
755,3513742383,0.770160,-0.062168,0.371500,-0.514758,-5.06447029113770,-4.74149942398071,7.12054777145386,1.11963355541229,0.55530887842178,1.06409239768982
756,3513759050,0.770150,-0.062242,0.371539,-0.514736,-5.05220174789429,-4.72949218750000,7.12289285659790,0.35095801949501,0.56093096733093,0.89937722682953
757,3513775717,0.770152,-0.062313,0.371567,-0.514704,-5.05146169662476,-4.77845811843872,7.09757328033447,0.41359382867813,0.50197046995163,0.95641654729843
758,3513792384,0.770148,-0.062295,0.371528,-0.514740,-5.04667425155640,-4.75498151779175,7.10715818405151,1.28665399551392,0.50249552726746,0.78187882900238
759,3513809051,0.770138,-0.062350,0.371540,-0.514741,-5.04388999938965,-4.72766971588135,7.08855056762695,0.65019118785858,0.53417843580246,0.75922441482544
760,3513825718,0.770136,-0.062369,0.371546,-0.514738,-5.04110527038574,-4.75304651260376,7.09859132766724,0.82110482454300,0.58111375570297,0.93438971042633
761,3513842385,0.770145,-0.062329,0.371533,-0.514738,-5.00688266754150,-4.71487569808960,7.10416650772095,1.24197268486023,0.68686860799789,1.05948221683502
762,3513859052,0.770161,-0.062355,0.371591,-0.514669,-5.03184843063354,-4.76270771026611,7.13480472564697,0.45201295614243,0.76375788450241,1.33702135086060
