sep=,
DeviceTag:,B
FirmwareVersion:,3.0.0
AppVersion:,2023.6.0
StartTime: ,2024-03-14_11:53:59_000 EDT
© Movella Technologies B. V. 2005-2024

PacketCounter,SampleTimeFine,Quat_W,Quat_X,Quat_Y,Quat_Z,Acc_X,Acc_Y,Acc_Z,Gyr_X,Gyr_Y,Gyr_Z
0,3501158798,0.101348,-0.687777,0.060346,-0.716273,0.00000000000000,0.00000000000000,0.00000000000000,0.00000000000000,0.00000000000000,0.00000000000000
1,3501175465,0.101512,-0.687842,0.060127,-0.716206,9.86013603210449,-2.22826576232910,0.47437813878059,3.91442704200745,2.77413702011108,0.99605226516724
2,3501192132,0.101502,-0.687853,0.060153,-0.716195,9.85053730010986,-2.20526504516602,0.48283788561821,2.90563297271729,3.32018733024597,1.32477855682373
3,3501208799,0.101455,-0.687810,0.060294,-0.716231,9.83789920806885,-2.22929859161377,0.51445335149765,2.22548770904541,3.90181350708008,1.67303466796875
4,3501225466,0.101418,-0.687723,0.060467,-0.716305,9.82985591888428,-2.29306769371033,0.54528200626373,2.14767622947693,4.31606006622314,1.86592364311218
5,3501242133,0.101449,-0.687617,0.060594,-0.716392,9.80457210540771,-2.31651210784912,0.52750587463379,2.51118493080139,4.46817445755005,1.97390699386597
6,3501258800,0.101510,-0.687506,0.060705,-0.716479,9.83178806304932,-2.31481575965881,0.49643537402153,3.16588354110718,4.35939693450928,2.06805896759033
7,3501275467,0.101609,-0.687419,0.060769,-0.716543,9.88865661621094,-2.31039023399353,0.47498276829720,3.55091929435730,4.08580207824707,2.03900146484375
8,3501292134,0.101714,-0.687395,0.060786,-0.716550,9.87642097473145,-2.30790758132935,0.43642136454582,3.76650190353394,3.46133923530579,1.86228692531586
9,3501308801,0.101806,-0.687414,0.060784,-0.716519,9.83072662353516,-2.28075289726257,0.42401471734047,3.49617171287537,3.12483906745911,1.70196390151978
10,3501325468,0.101839,-0.687456,0.060850,-0.716469,9.82555389404297,-2.25363636016846,0.41841802000999,2.98281717300415,2.97017717361450,1.74302136898041
11,3501342135,0.101824,-0.687502,0.060960,-0.716418,9.84397792816162,-2.27246379852295,0.43847605586052,2.41879916191101,3.01438426971436,1.71115875244141
12,3501358802,0.101740,-0.687543,0.061108,-0.716378,9.82042694091797,-2.30554604530334,0.44310978055000,1.91105341911316,3.15285968780518,1.54123163223267
13,3501375469,0.101614,-0.687614,0.061256,-0.716315,9.80031299591064,-2.31953477859497,0.47761338949203,1.66830885410309,2.91960453987122,1.34104251861572
14,3501392136,0.101431,-0.687719,0.061391,-0.716228,9.78689956665039,-2.31675314903259,0.46150559186935,1.64074957370758,2.59931778907776,1.00695049762726
15,3501408803,0.101345,-0.687854,0.061452,-0.716106,9.80063819885254,-2.35290956497192,0.48200687766075,1.67499387264252,2.37626981735229,1.11041307449341
16,3501425470,0.101197,-0.687971,0.061523,-0.716008,9.81351375579834,-2.37314152717590,0.47553652524948,2.44766473770142,2.34495782852173,0.89965885877609
17,3501442137,0.101148,-0.688071,0.061473,-0.715923,9.83640193939209,-2.31595683097839,0.44741648435593,2.98818278312683,2.49987673759460,0.78566968441010
18,3501458804,0.101080,-0.688154,0.061446,-0.715855,9.88206863403320,-2.29056930541992,0.45705324411392,3.02307963371277,2.62932276725769,0.80388021469116
19,3501475471,0.101031,-0.688234,0.061406,-0.715789,9.89522933959961,-2.26587009429932,0.44922998547554,2.60186648368835,2.77984929084778,0.80952793359756
20,3501492138,0.100912,-0.688288,0.061476,-0.715748,9.87093353271484,-2.29646277427673,0.46581780910492,2.17763066291809,3.03464436531067,0.99904912710190
21,3501508805,0.100745,-0.688336,0.061585,-0.715715,9.88167095184326,-2.29866313934326,0.47332161664963,1.91662371158600,3.10731959342957,0.95320218801498
22,3501525472,0.100611,-0.688357,0.061682,-0.715706,9.87003898620605,-2.31431865692139,0.46846970915794,2.01044368743896,3.36618804931641,1.04697048664093
23,3501542139,0.100481,-0.688343,0.061780,-0.715729,9.88780879974365,-2.32709074020386,0.45890510082245,2.34828782081604,3.62167453765869,1.07789766788483
24,3501558806,0.100469,-0.688306,0.061781,-0.715766,9.94222259521484,-2.32321763038635,0.48036631941795,3.08033704757690,3.76653981208801,1.17539238929749
25,3501575473,0.100557,-0.688174,0.061734,-0.715884,9.97728157043457,-2.30810236930847,0.48620143532753,3.85080528259277,4.54689455032349,1.43402934074402
26,3501592140,0.100703,-0.687954,0.061682,-0.716080,9.93161773681641,-2.32417154312134,0.50900679826736,4.17982673645020,5.33937883377075,1.67247140407562
27,3501608807,0.100817,-0.687680,0.061693,-0.716326,9.85125350952148,-2.30382633209229,0.54994082450867,4.19553995132446,5.79285049438477,1.81862986087799
28,3501625474,0.100946,-0.687386,0.061731,-0.716587,9.81972694396973,-2.29312396049500,0.57063889503479,3.79064226150513,6.07055711746216,2.00747299194336
29,3501642141,0.101040,-0.687083,0.061821,-0.716856,9.80580425262451,-2.30450844764709,0.52538168430328,3.55181646347046,6.15067386627197,2.08054566383362
30,3501658808,0.101170,-0.686773,0.061905,-0.717129,9.80317020416260,-2.34097194671631,0.47670507431030,3.60494947433472,6.22724294662476,2.22619247436523
31,3501675475,0.101369,-0.686465,0.061921,-0.717394,9.82310867309570,-2.32359647750854,0.46287137269974,4.08972167968750,6.14648580551147,2.24116277694702
32,3501692142,0.101539,-0.686122,0.061927,-0.717697,9.82744598388672,-2.31671380996704,0.40466204285622,4.62027549743652,6.36284828186035,2.06273198127747
33,3501708809,0.101730,-0.685815,0.061863,-0.717969,9.79651546478271,-2.28095507621765,0.42340928316116,4.72156143188477,6.05080938339233,1.83741700649261
34,3501725476,0.101872,-0.685564,0.061803,-0.718194,9.78359413146973,-2.27327084541321,0.46870756149292,4.32475614547729,5.60444307327271,1.61029613018036
35,3501742143,0.102007,-0.685375,0.061726,-0.718361,9.75971126556396,-2.29314923286438,0.45099133253098,4.38420295715332,4.99268341064453,1.51551628112793
36,3501758810,0.102085,-0.685261,0.061656,-0.718466,9.74445533752441,-2.27705812454224,0.42058250308037,3.97154450416565,4.36395645141602,1.28272271156311
37,3501775477,0.102130,-0.685196,0.061571,-0.718528,9.77293682098389,-2.27046680450439,0.43263724446297,3.78442978858948,3.93694067001343,1.04944193363190
38,3501792144,0.102153,-0.685167,0.061502,-0.718558,9.81875896453857,-2.26633501052856,0.45704334974289,3.56923270225525,3.63482689857483,1.03087294101715
39,3501808811,0.102144,-0.685165,0.061438,-0.718567,9.81953525543213,-2.27601861953735,0.47020995616913,3.36082196235657,3.41103553771973,0.89348632097244
40,3501825478,0.102100,-0.685215,0.061395,-0.718529,9.81604480743408,-2.26396322250366,0.52585363388062,3.04388999938965,2.96770501136780,0.82830196619034
41,3501842145,0.102023,-0.685288,0.061382,-0.718471,9.83429813385010,-2.27585244178772,0.53081446886063,2.70289587974548,2.79384660720825,0.81488102674484
42,3501858812,0.101961,-0.685354,0.061385,-0.718418,9.83758544921875,-2.31444549560547,0.52419006824493,2.70678877830505,2.85879993438721,0.96419018507004
43,3501875479,0.101940,-0.685408,0.061374,-0.718370,9.81149291992188,-2.32024717330933,0.54541099071503,2.98029351234436,2.91400814056396,1.10009098052979
44,3501892146,0.101936,-0.685429,0.061335,-0.718353,9.81283092498779,-2.30876207351685,0.53595721721649,3.23873925209045,3.19560718536377,1.04457569122314
45,3501908813,0.101964,-0.685447,0.061297,-0.718336,9.79620170593262,-2.31491756439209,0.56830334663391,3.38683152198792,3.19682383537292,1.20959818363190
46,3501925480,0.102029,-0.685428,0.061274,-0.718346,9.84783554077148,-2.35971689224243,0.54857105016708,3.51572751998901,3.49842619895935,1.46089732646942
47,3501942147,0.102157,-0.685386,0.061220,-0.718373,9.91761970520020,-2.35882019996643,0.50191324949265,3.99686193466187,3.65138506889343,1.61745476722717
48,3501958814,0.102248,-0.685343,0.061158,-0.718406,9.91005992889404,-2.31360650062561,0.54480117559433,3.86425256729126,3.68629550933838,1.39905536174774
49,3501975481,0.102214,-0.685332,0.061168,-0.718421,9.89187622070312,-2.25237512588501,0.53133970499039,2.88240218162537,3.55244326591492,1.12092709541321
50,3501992148,0.102144,-0.685287,0.061210,-0.718470,9.87202930450439,-2.34296679496765,0.50815099477768,2.60464525222778,3.91879463195801,1.08346843719482
51,3502008815,0.102143,-0.685242,0.061198,-0.718514,9.81878852844238,-2.36472868919373,0.52987957000732,3.18656611442566,3.82021117210388,1.17318975925446
52,3502025482,0.102247,-0.685208,0.061062,-0.718543,9.81664657592773,-2.34555602073669,0.49918180704117,4.28104782104492,3.57055187225342,1.11020815372467
53,3502042149,0.102418,-0.685170,0.060896,-0.718570,9.82838916778564,-2.30057954788208,0.52103161811829,4.75137376785278,3.53231143951416,1.30528724193573
54,3502058816,0.102511,-0.685114,0.060779,-0.718620,9.85751342773438,-2.24515795707703,0.52692574262619,4.15723609924316,3.79672408103943,1.14239060878754
55,3502075483,0.102497,-0.685070,0.060767,-0.718664,9.83430099487305,-2.20362949371338,0.55066317319870,3.12258553504944,3.82535982131958,1.10973441600800
56,3502092150,0.102416,-0.685020,0.060879,-0.718714,9.84585285186768,-2.25274682044983,0.53939670324326,2.20850658416748,3.99966669082642,1.35565471649170
57,3502108817,0.102365,-0.684964,0.061010,-0.718764,9.82470321655273,-2.31272602081299,0.55813127756119,2.25530052185059,4.02865982055664,1.60185658931732
58,3502125484,0.102370,-0.684947,0.061087,-0.718773,9.81910324096680,-2.33413171768188,0.53885293006897,2.74213433265686,3.58302497863770,1.63473081588745
59,3502142151,0.102393,-0.684941,0.061116,-0.718772,9.84035778045654,-2.31268906593323,0.51988577842712,3.05751609802246,3.44195008277893,1.49655008316040
60,3502158818,0.102397,-0.684921,0.061138,-0.718789,9.88436222076416,-2.31123638153076,0.53955382108688,3.01049113273621,3.59980082511902,1.36759006977081
61,3502175485,0.102408,-0.684908,0.061123,-0.718801,9.87162494659424,-2.33013057708740,0.53743004798889,3.22557377815247,3.51066851615906,1.22455596923828
62,3502192152,0.102452,-0.684883,0.061085,-0.718822,9.81748390197754,-2.33486032485962,0.51805549860001,3.50447058677673,3.57738995552063,1.28374695777893
63,3502208819,0.102590,-0.684815,0.061052,-0.718871,9.81368541717529,-2.32240843772888,0.52092838287354,3.96499991416931,3.89156866073608,1.75954163074493
64,3502225486,0.102721,-0.684719,0.061039,-0.718944,9.83696079254150,-2.27455735206604,0.54558360576630,3.86362457275391,4.15563583374023,1.82047426700592
65,3502242153,0.102751,-0.684617,0.061100,-0.719031,9.83901500701904,-2.26523375511169,0.54943013191223,3.03292822837830,4.35168790817261,1.66236686706543
66,3502258820,0.102714,-0.684503,0.061204,-0.719137,9.83983707427979,-2.27629733085632,0.53966933488846,2.51912450790405,4.55448913574219,1.53044867515564
67,3502275487,0.102652,-0.684432,0.061351,-0.719201,9.82989501953125,-2.30967998504639,0.52010071277618,2.14762496948242,4.18734359741211,1.61472713947296
68,3502292154,0.102612,-0.684373,0.061461,-0.719253,9.85300445556641,-2.33523559570312,0.50603514909744,2.41328001022339,4.03675365447998,1.55512642860413
69,3502308821,0.102637,-0.684315,0.061478,-0.719303,9.82998180389404,-2.36292243003845,0.49700683355331,3.17723011970520,3.92783617973328,1.43496441841125
70,3502325488,0.102730,-0.684257,0.061421,-0.719350,9.80988216400146,-2.31707024574280,0.51904654502869,3.86405992507935,3.83264636993408,1.43082797527313
71,3502342155,0.102798,-0.684200,0.061372,-0.719399,9.79900264739990,-2.28717160224915,0.52322828769684,3.70815587043762,3.85490417480469,1.34186244010925
72,3502358822,0.102808,-0.684164,0.061358,-0.719432,9.80206584930420,-2.27313542366028,0.55200427770615,3.23834204673767,3.72351050376892,1.22476089000702
73,3502375489,0.102729,-0.684155,0.061400,-0.719449,9.79057025909424,-2.27303743362427,0.54499632120132,2.56804490089417,3.57842779159546,1.04556179046631
74,3502392156,0.102602,-0.684166,0.061488,-0.719449,9.78200149536133,-2.28617334365845,0.54972219467163,2.04234385490417,3.46101832389832,1.02708196640015
75,3502408823,0.102484,-0.684177,0.061572,-0.719448,9.79460525512695,-2.31041884422302,0.57402378320694,2.10739994049072,3.45989131927490,1.05313026905060
76,3502425490,0.102382,-0.684194,0.061636,-0.719441,9.79290580749512,-2.33361434936523,0.56346577405930,2.50005555152893,3.31987953186035,1.05451333522797
77,3502442157,0.102374,-0.684203,0.061624,-0.719435,9.79930114746094,-2.30565786361694,0.56523108482361,3.10068678855896,3.31993150711060,1.14625799655914
78,3502458824,0.102411,-0.684204,0.061582,-0.719432,9.77544403076172,-2.28205895423889,0.59061038494110,3.45955872535706,3.34558176994324,1.23549270629883
79,3502475491,0.102437,-0.684220,0.061573,-0.719414,9.79599666595459,-2.29188942909241,0.60377657413483,3.23088884353638,3.22148895263672,1.33983886241913
80,3502492158,0.102447,-0.684262,0.061573,-0.719372,9.82672023773193,-2.28883504867554,0.55234813690186,3.08088779449463,2.99577665328979,1.30145812034607
81,3502508825,0.102414,-0.684321,0.061602,-0.719319,9.83969306945801,-2.30296778678894,0.55297207832336,2.72254014015198,2.89750051498413,1.23641467094421
82,3502525492,0.102376,-0.684392,0.061643,-0.719253,9.84681892395020,-2.30998992919922,0.53659260272980,2.61437821388245,2.78499698638916,1.26658654212952
83,3502542159,0.102339,-0.684461,0.061673,-0.719190,9.82570838928223,-2.34349417686462,0.52709478139877,2.69028091430664,2.81017398834229,1.21724343299866
84,3502558826,0.102324,-0.684515,0.061669,-0.719141,9.83086204528809,-2.34367752075195,0.54144942760468,2.97373700141907,2.90906500816345,1.16606938838959
85,3502575493,0.102316,-0.684560,0.061659,-0.719100,9.82399463653564,-2.33489537239075,0.51864236593246,3.13970685005188,2.95844578742981,1.17185795307159
86,3502592160,0.102331,-0.684583,0.061589,-0.719082,9.83957767486572,-2.33304905891418,0.51631635427475,3.47834587097168,3.15116930007935,0.99185180664062
87,3502608827,0.102344,-0.684565,0.061509,-0.719104,9.83142471313477,-2.33843755722046,0.54646074771881,3.56098508834839,3.53442454338074,0.92659074068069
88,3502625494,0.102341,-0.684536,0.061422,-0.719140,9.83155059814453,-2.32334280014038,0.55509752035141,3.54452896118164,3.66052889823914,0.80943822860718
89,3502642161,0.102307,-0.684478,0.061365,-0.719205,9.82164859771729,-2.31991720199585,0.53043627738953,3.40559315681458,3.93673706054688,0.79267477989197
90,3502658828,0.102301,-0.684433,0.061266,-0.719257,9.84129142761230,-2.32372951507568,0.55043631792068,3.37941670417786,3.85701680183411,0.72549259662628
91,3502675495,0.102257,-0.684403,0.061186,-0.719298,9.84985637664795,-2.30424499511719,0.52685821056366,3.28417587280273,3.71460986137390,0.62765204906464
92,3502692162,0.102206,-0.684380,0.061119,-0.719333,9.83347797393799,-2.28360223770142,0.52640712261200,3.20662021636963,3.65908145904541,0.66676259040833
93,3502708829,0.102181,-0.684366,0.061041,-0.719357,9.82558345794678,-2.28913998603821,0.54885387420654,3.14954209327698,3.59787988662720,0.73067909479141
94,3502725496,0.102115,-0.684349,0.060998,-0.719386,9.81153202056885,-2.29281115531921,0.53524982929230,3.05636405944824,3.61437559127808,0.70766627788544
95,3502742163,0.102109,-0.684329,0.060879,-0.719416,9.79719161987305,-2.30945038795471,0.55613338947296,3.27005004882812,3.66294884681702,0.62064695358276
96,3502758830,0.102082,-0.684318,0.060745,-0.719442,9.78401851654053,-2.27733254432678,0.55753928422928,3.63436555862427,3.49485301971436,0.46453762054443
97,3502775497,0.102014,-0.684289,0.060656,-0.719486,9.78263092041016,-2.27390623092651,0.57092827558517,3.83436274528503,3.57954192161560,0.51166498661041
98,3502792164,0.102074,-0.684272,0.060507,-0.719506,9.76312732696533,-2.26200127601624,0.60124182701111,4.11576938629150,3.45651102066040,0.82818675041199
99,3502808831,0.102201,-0.684267,0.060346,-0.719506,9.82136726379395,-2.25320124626160,0.56456094980240,3.94895339012146,3.39176201820374,1.09053754806519
100,3502825498,0.102225,-0.684242,0.060287,-0.719532,9.92031478881836,-2.23871731758118,0.54129302501678,3.58810877799988,3.58535552024841,1.08109939098358
101,3502842165,0.102205,-0.684230,0.060307,-0.719545,9.92778873443604,-2.21704888343811,0.56216049194336,2.92102646827698,3.53735733032227,1.23897612094879
102,3502858832,0.102063,-0.684275,0.060474,-0.719508,9.86775493621826,-2.23869276046753,0.56835985183716,1.54230725765228,3.19299459457397,1.33941626548767
103,3502875499,0.101972,-0.684311,0.060588,-0.719477,9.82270240783691,-2.31828784942627,0.54070335626602,1.61602056026459,3.30179715156555,1.30829668045044
104,3502892166,0.101925,-0.684307,0.060642,-0.719483,9.76660633087158,-2.35501527786255,0.51295870542526,2.82161045074463,3.45402646064758,1.28137791156769
105,3502908833,0.102008,-0.684321,0.060542,-0.719467,9.79628753662109,-2.32509684562683,0.53448486328125,3.87969636917114,3.17675614356995,1.18579113483429
106,3502925500,0.102151,-0.684317,0.060391,-0.719463,9.81031608581543,-2.29684877395630,0.53267484903336,4.59008979797363,3.21459865570068,1.25281965732574
107,3502942167,0.102281,-0.684314,0.060251,-0.719459,9.83914279937744,-2.24511647224426,0.54100447893143,4.35186719894409,3.25872993469238,1.23140752315521
108,3502958834,0.102339,-0.684340,0.060202,-0.719430,9.85081386566162,-2.22722721099854,0.53959017992020,3.11089348793030,3.19319987297058,1.28560400009155
109,3502975501,0.102238,-0.684380,0.060292,-0.719398,9.85790061950684,-2.23753285408020,0.55295574665070,2.15203094482422,3.15584373474121,1.17936253547668
110,3502992168,0.102084,-0.684427,0.060456,-0.719362,9.85409545898438,-2.28208565711975,0.55768501758575,1.60276591777802,3.15504932403564,1.26292395591736
111,3503008835,0.101943,-0.684487,0.060607,-0.719312,9.83985900878906,-2.31105971336365,0.56235504150391,1.45676076412201,3.07714843750000,1.26201462745667
112,3503025502,0.101866,-0.684530,0.060697,-0.719275,9.86785221099854,-2.34609770774841,0.58265441656113,2.33069157600403,3.09169602394104,1.29832053184509
113,3503042169,0.101862,-0.684574,0.060689,-0.719234,9.82800197601318,-2.32939004898071,0.58505719900131,3.10543704032898,2.97983241081238,1.20678067207336
114,3503058836,0.101971,-0.684617,0.060569,-0.719188,9.79493999481201,-2.28504419326782,0.54934942722321,3.82120990753174,2.92340803146362,1.21262049674988
115,3503075503,0.102094,-0.684637,0.060460,-0.719161,9.84408569335938,-2.28565931320190,0.54479527473450,4.28949975967407,3.02016019821167,1.35756289958954
116,3503092170,0.102215,-0.684632,0.060353,-0.719157,9.88969612121582,-2.27390432357788,0.52823764085770,4.14439105987549,3.29575276374817,1.34401369094849
117,3503108837,0.102210,-0.684621,0.060358,-0.719168,9.87149524688721,-2.25776839256287,0.54257541894913,3.04693818092346,3.51407575607300,1.24262583255768
118,3503125504,0.102117,-0.684628,0.060438,-0.719168,9.86631488800049,-2.26694321632385,0.53313648700714,2.24704074859619,3.46973967552185,1.16151034832001
119,3503142171,0.101999,-0.684666,0.060537,-0.719140,9.82669448852539,-2.29400825500488,0.53245836496353,1.91922378540039,3.21712183952332,1.12318098545074
120,3503158838,0.101910,-0.684744,0.060613,-0.719072,9.82866859436035,-2.32806372642517,0.54066288471222,1.86806213855743,2.87415432929993,1.16094684600830
121,3503175505,0.101845,-0.684818,0.060616,-0.719010,9.81705665588379,-2.34176826477051,0.53038537502289,2.60157179832458,2.79697132110596,0.94562101364136
122,3503192172,0.101875,-0.684847,0.060511,-0.718987,9.80172634124756,-2.32963800430298,0.52257698774338,3.58987569808960,3.10356783866882,0.90133655071259
123,3503208839,0.101892,-0.684851,0.060407,-0.718989,9.82475280761719,-2.27977252006531,0.53947252035141,3.67913603782654,3.31140160560608,0.83776581287384
124,3503225506,0.101897,-0.684873,0.060299,-0.718977,9.82867240905762,-2.26078081130981,0.51799863576889,3.30247640609741,3.23647260665894,0.74112921953201
125,3503242173,0.101817,-0.684914,0.060263,-0.718952,9.83050918579102,-2.23826861381531,0.54218173027039,2.86963391304016,3.09028720855713,0.68175882101059
126,3503258840,0.101675,-0.684981,0.060301,-0.718905,9.83597183227539,-2.25617265701294,0.51954114437103,2.44422006607056,2.86697053909302,0.74912029504776
127,3503275507,0.101596,-0.685070,0.060327,-0.718830,9.81479930877686,-2.24222350120544,0.53339231014252,2.29339957237244,2.71023368835449,0.97691971063614
128,3503292174,0.101528,-0.685168,0.060352,-0.718744,9.83757114410400,-2.26827001571655,0.50493353605270,2.15739607810974,2.65406513214111,1.02730000019073
129,3503308841,0.101384,-0.685250,0.060434,-0.718679,9.83582115173340,-2.27907896041870,0.49684929847717,2.38456821441650,2.69517350196838,0.95708262920380
130,3503325508,0.101327,-0.685348,0.060413,-0.718595,9.82703971862793,-2.28063964843750,0.52156043052673,2.75314760208130,2.55400919914246,0.88274174928665
131,3503342175,0.101274,-0.685466,0.060388,-0.718492,9.82116699218750,-2.26764845848083,0.52149266004562,3.00799417495728,2.29883003234863,0.89812231063843
132,3503358842,0.101276,-0.685615,0.060336,-0.718354,9.83535861968994,-2.25596213340759,0.52886515855789,3.01435899734497,2.02113699913025,1.03392076492310
133,3503375509,0.101299,-0.685782,0.060265,-0.718198,9.85135173797607,-2.26397967338562,0.51481235027313,3.16192626953125,1.83319056034088,1.05168306827545
134,3503392176,0.101314,-0.685941,0.060240,-0.718046,9.85054588317871,-2.27647590637207,0.51736146211624,3.22461342811584,1.84886562824249,1.25248670578003
135,3503408843,0.101294,-0.686106,0.060240,-0.717891,9.85122966766357,-2.26270198822021,0.51843565702438,2.80498766899109,1.86699914932251,1.18429267406464
136,3503425510,0.101156,-0.686271,0.060349,-0.717743,9.84744930267334,-2.27859878540039,0.53808730840683,2.21885371208191,1.90420186519623,1.14155805110931
137,3503442177,0.101068,-0.686425,0.060423,-0.717602,9.85494232177734,-2.29940700531006,0.52435016632080,2.13923668861389,2.06740593910217,1.19097769260406
138,3503458844,0.101004,-0.686550,0.060489,-0.717486,9.86000347137451,-2.31273198127747,0.51010847091675,2.32499289512634,2.31718087196350,1.27127361297607
139,3503475511,0.100980,-0.686645,0.060495,-0.717398,9.86901092529297,-2.32040905952454,0.51827102899551,2.88100671768188,2.52081513404846,1.17776179313660
140,3503492178,0.101006,-0.686703,0.060433,-0.717344,9.85145664215088,-2.31525087356567,0.51999324560165,3.34295701980591,2.84002590179443,1.08993566036224
141,3503508845,0.101007,-0.686737,0.060402,-0.717314,9.82597923278809,-2.30504274368286,0.52484720945358,3.32559180259705,3.03677034378052,1.11859643459320
142,3503525512,0.101028,-0.686761,0.060393,-0.717289,9.85051918029785,-2.28284335136414,0.52247941493988,3.19437789916992,3.15789246559143,1.31572461128235
143,3503542179,0.101061,-0.686770,0.060377,-0.717277,9.85751819610596,-2.29007792472839,0.48949080705643,3.29214143753052,3.28613519668579,1.33740556240082
144,3503558846,0.101091,-0.686769,0.060369,-0.717274,9.85398864746094,-2.27944755554199,0.49285995960236,3.23616433143616,3.38403916358948,1.35438668727875
145,3503575513,0.101113,-0.686773,0.060347,-0.717269,9.85447978973389,-2.25845432281494,0.47097751498222,3.24908590316772,3.34946250915527,1.25148773193359
146,3503592180,0.101117,-0.686766,0.060341,-0.717276,9.83511734008789,-2.26754403114319,0.45202487707138,3.13943815231323,3.46847200393677,1.23788738250732
147,3503608847,0.101085,-0.686750,0.060384,-0.717292,9.83778381347656,-2.27726912498474,0.47128450870514,2.97056126594543,3.54082846641541,1.29409456253052
148,3503625514,0.101065,-0.686770,0.060396,-0.717275,9.83354663848877,-2.28028130531311,0.45818156003952,2.87164473533630,3.25569438934326,1.20760035514832
149,3503642181,0.101149,-0.686787,0.060340,-0.717252,9.82144927978516,-2.27229928970337,0.46452617645264,3.02543663978577,3.31290078163147,1.36633539199829
150,3503658848,0.101137,-0.686781,0.060355,-0.717257,9.80626869201660,-2.25979113578796,0.46190464496613,3.09268283843994,3.44104123115540,1.26274478435516
151,3503675515,0.101129,-0.686804,0.060355,-0.717236,9.78266048431396,-2.23932623863220,0.48604568839073,2.79298830032349,3.25173711776733,1.19987809658051
152,3503692182,0.101074,-0.686837,0.060395,-0.717210,9.80600547790527,-2.24796843528748,0.47019532322884,2.64444732666016,3.15632987022400,1.17476487159729
153,3503708849,0.101044,-0.686866,0.060406,-0.717185,9.89258670806885,-2.29592680931091,0.45307606458664,2.85611057281494,3.16478204727173,1.15590119361877
154,3503725516,0.101011,-0.686901,0.060397,-0.717157,9.91636180877686,-2.27553439140320,0.48275417089462,3.04835987091064,3.08293676376343,1.04575371742249
155,3503742183,0.100949,-0.686980,0.060393,-0.717091,9.87533473968506,-2.26260447502136,0.49847421050072,2.46170091629028,2.79054236412048,0.92285120487213
156,3503758850,0.100833,-0.687035,0.060454,-0.717049,9.83268642425537,-2.29021048545837,0.46758875250816,2.52725648880005,2.94450020790100,0.98605060577393
157,3503775517,0.100927,-0.687098,0.060311,-0.716987,9.83105659484863,-2.28761982917786,0.47242614626884,3.33520913124084,2.86058020591736,1.01166331768036
158,3503792184,0.101005,-0.687154,0.060224,-0.716930,9.82937812805176,-2.26393580436707,0.48245224356651,3.85965418815613,2.75923037528992,1.23476254940033
159,3503808851,0.101097,-0.687183,0.060165,-0.716894,9.87012481689453,-2.26099514961243,0.49797347187996,3.77917957305908,3.01178479194641,1.43397843837738
160,3503825518,0.101092,-0.687172,0.060236,-0.716900,9.84662246704102,-2.24415588378906,0.48873212933540,3.67251539230347,3.30732989311218,1.60995054244995
161,3503842185,0.101082,-0.687186,0.060337,-0.716879,9.85624790191650,-2.21370911598206,0.49668702483177,2.64408898353577,3.28213953971863,1.68123054504395
162,3503858852,0.101032,-0.687200,0.060506,-0.716858,9.86191749572754,-2.24888825416565,0.49902886152267,1.81387841701508,3.41542792320251,1.80130279064178
163,3503875519,0.100955,-0.687198,0.060713,-0.716853,9.84324932098389,-2.31759023666382,0.48605149984360,1.72650098800659,3.56143331527710,1.84941637516022
164,3503892186,0.101023,-0.687203,0.060774,-0.716835,9.82757186889648,-2.34237003326416,0.46965733170509,2.45726990699768,3.46610283851624,1.85056889057159
165,3503908853,0.101082,-0.687206,0.060774,-0.716823,9.82275104522705,-2.36309432983398,0.46317967772484,3.29285788536072,3.32213330268860,1.54029643535614
166,3503925520,0.101204,-0.687215,0.060666,-0.716807,9.85170364379883,-2.31681346893311,0.47792372107506,4.01955509185791,3.20011544227600,1.33355104923248
167,3503942187,0.101346,-0.687253,0.060497,-0.716764,9.83818912506104,-2.30498933792114,0.47904366254807,4.26496315002441,2.90515899658203,1.14688551425934
168,3503958854,0.101507,-0.687307,0.060321,-0.716705,9.79671764373779,-2.25468254089355,0.49220466613770,4.20364618301392,2.77786397933960,1.20456540584564
169,3503975521,0.101682,-0.687343,0.060194,-0.716656,9.82498455047607,-2.23919963836670,0.45872011780739,4.01584100723267,2.95413088798523,1.50460541248322
170,3503992188,0.101834,-0.687353,0.060101,-0.716632,9.84498691558838,-2.24667787551880,0.45407029986382,3.63947534561157,3.25741028785706,1.54272973537445
171,3504008855,0.101796,-0.687367,0.060190,-0.716617,9.84634876251221,-2.23454117774963,0.44825416803360,2.69180488586426,3.28441905975342,1.49234962463379
172,3504025522,0.101728,-0.687388,0.060297,-0.716598,9.83886146545410,-2.25728631019592,0.45448115468025,2.21182274818420,3.31420612335205,1.41822636127472
173,3504042189,0.101656,-0.687434,0.060407,-0.716554,9.84323024749756,-2.29522442817688,0.46999549865723,2.23831987380981,3.05742692947388,1.42954742908478
174,3504058856,0.101601,-0.687503,0.060498,-0.716488,9.82241344451904,-2.32541203498840,0.45318767428398,2.53529906272888,2.78178286552429,1.42936801910400
175,3504075523,0.101633,-0.687560,0.060459,-0.716432,9.82473087310791,-2.32833743095398,0.45282876491547,3.37538266181946,2.81561732292175,1.23916804790497
176,3504092190,0.101718,-0.687593,0.060342,-0.716399,9.79862499237061,-2.27601122856140,0.42883154749870,4.10537004470825,2.94925165176392,1.12406468391418
177,3504108857,0.101839,-0.687622,0.060219,-0.716364,9.80787181854248,-2.25618219375610,0.47357967495918,3.85467290878296,3.05250859260559,1.25547039508820
178,3504125524,0.101810,-0.687657,0.060235,-0.716333,9.82037448883057,-2.24553775787354,0.46773862838745,3.23202848434448,3.01035070419312,1.20415556430817
179,3504142191,0.101754,-0.687703,0.060281,-0.716293,9.83642959594727,-2.25246477127075,0.45926758646965,2.56991410255432,3.04453015327454,1.19981408119202
180,3504158858,0.101654,-0.687760,0.060369,-0.716245,9.86727809906006,-2.27055454254150,0.47143217921257,2.09537553787231,3.00971031188965,1.17359972000122
181,3504175525,0.101605,-0.687833,0.060445,-0.716175,9.85220146179199,-2.29706430435181,0.45626410841942,2.03113818168640,2.87479496002197,1.36812794208527
182,3504192192,0.101537,-0.687901,0.060505,-0.716115,9.85938262939453,-2.31389284133911,0.45643058419228,2.39546656608582,2.85707163810730,1.20524406433105
183,3504208859,0.101497,-0.687976,0.060517,-0.716047,9.85225105285645,-2.31585025787354,0.46587404608727,2.74447798728943,2.73998284339905,1.11871170997620
184,3504225526,0.101514,-0.688058,0.060454,-0.715971,9.85234069824219,-2.30578660964966,0.47523468732834,2.94520425796509,2.70083332061768,1.03333151340485
185,3504242193,0.101492,-0.688132,0.060434,-0.715905,9.81951045989990,-2.30072021484375,0.48422747850418,2.99295902252197,2.72474288940430,1.05806040763855
186,3504258860,0.101512,-0.688203,0.060396,-0.715837,9.83228588104248,-2.27811002731323,0.47183355689049,3.13659548759460,2.73456549644470,1.17397105693817
187,3504275527,0.101517,-0.688266,0.060374,-0.715778,9.82758522033691,-2.28742742538452,0.44457480311394,3.14731431007385,2.79834127426147,1.18234646320343
188,3504292194,0.101496,-0.688304,0.060368,-0.715745,9.84111118316650,-2.26328873634338,0.45578533411026,3.07476592063904,3.04026603698730,1.12735581398010
189,3504308861,0.101485,-0.688335,0.060373,-0.715715,9.84588909149170,-2.26378011703491,0.45069110393524,2.83851456642151,3.15183472633362,1.21753811836243
190,3504325528,0.101457,-0.688368,0.060420,-0.715684,9.84179115295410,-2.28667116165161,0.45278143882751,2.68472337722778,3.13957929611206,1.33653485774994
191,3504342195,0.101420,-0.688414,0.060453,-0.715642,9.82817554473877,-2.27999567985535,0.44773805141449,2.69097256660461,3.01884078979492,1.23193240165710
192,3504358862,0.101434,-0.688464,0.060464,-0.715591,9.82539844512939,-2.30482339859009,0.44648987054825,3.04540133476257,2.92339539527893,1.38142108917236
193,3504375529,0.101419,-0.688515,0.060485,-0.715542,9.84194946289062,-2.28153347969055,0.44037342071533,3.21684002876282,2.85466361045837,1.30065143108368
194,3504392196,0.101394,-0.688573,0.060527,-0.715486,9.84946250915527,-2.26516056060791,0.43990975618362,3.27911663055420,2.74528408050537,1.36324870586395
195,3504408863,0.101385,-0.688660,0.060543,-0.715403,9.84557437896729,-2.26118659973145,0.41513192653656,2.87257933616638,2.60099506378174,1.29751360416412
196,3504425530,0.101344,-0.688752,0.060609,-0.715315,9.82561683654785,-2.26515579223633,0.40940621495247,2.51894521713257,2.58366870880127,1.38549363613129
197,3504442197,0.101287,-0.688844,0.060684,-0.715227,9.84354400634766,-2.28697395324707,0.43155509233475,2.34823656082153,2.61262369155884,1.34015893936157
198,3504458864,0.101257,-0.688924,0.060746,-0.715150,9.87385654449463,-2.31788682937622,0.42250356078148,2.54597949981689,2.70143580436707,1.41457676887512
199,3504475531,0.101271,-0.688995,0.060754,-0.715079,9.85704994201660,-2.30549883842468,0.43094399571419,2.79595899581909,2.77553272247314,1.35940682888031
200,3504492198,0.101265,-0.689061,0.060762,-0.715015,9.87136745452881,-2.30515003204346,0.43868237733841,2.94266891479492,2.78614950180054,1.27507710456848
201,3504508865,0.101248,-0.689126,0.060779,-0.714953,9.86723232269287,-2.29544210433960,0.43016207218170,2.84714603424072,2.81423377990723,1.25767326354980
202,3504525532,0.101254,-0.689181,0.060789,-0.714899,9.85543632507324,-2.30578660964966,0.43097123503685,2.60987019538879,2.97560620307922,1.31612133979797
203,3504542199,0.101164,-0.689217,0.060887,-0.714868,9.84104442596436,-2.30238986015320,0.43283304572105,2.63180732727051,3.06298422813416,1.29925537109375
204,3504558866,0.101104,-0.689218,0.060962,-0.714869,9.82855319976807,-2.30016279220581,0.43925657868385,2.71668839454651,3.41985964775085,1.31525075435638
205,3504575533,0.101096,-0.689214,0.060987,-0.714872,9.80168914794922,-2.28352832794189,0.44454520940781,2.92376661300659,3.45946907997131,1.32553422451019
206,3504592200,0.101119,-0.689233,0.060999,-0.714849,9.77138233184814,-2.25567126274109,0.45165044069290,3.11620783805847,3.20267629623413,1.42404055595398
207,3504608867,0.101196,-0.689251,0.061024,-0.714819,9.86317348480225,-2.24912691116333,0.43899825215340,3.18903708457947,3.17976546287537,1.75210058689117
208,3504625534,0.101300,-0.689268,0.061082,-0.714783,9.94709777832031,-2.26881217956543,0.40830758213997,3.13978409767151,3.18030333518982,2.04281783103943
209,3504642201,0.101311,-0.689324,0.061229,-0.714715,9.92084121704102,-2.24161028862000,0.42945897579193,2.56101369857788,2.85011696815491,2.03177857398987
210,3504658868,0.101218,-0.689407,0.061461,-0.714628,9.88090133666992,-2.27868032455444,0.43476799130440,1.58980596065521,2.74400377273560,1.92261743545532
211,3504675535,0.101125,-0.689459,0.061672,-0.714573,9.80746936798096,-2.35008811950684,0.38130286335945,1.61850512027740,3.05592823028564,1.80725777149200
212,3504692202,0.101090,-0.689522,0.061800,-0.714506,9.78876495361328,-2.38377833366394,0.39456993341446,2.21907162666321,2.87661385536194,1.70078611373901
213,3504708869,0.101137,-0.689556,0.061809,-0.714465,9.82223796844482,-2.38626360893250,0.38789528608322,3.21882534027100,3.03355598449707,1.52910411357880
214,3504725536,0.101276,-0.689556,0.061699,-0.714455,9.82470798492432,-2.35000157356262,0.40840592980385,4.02428102493286,3.27895092964172,1.40945422649384
215,3504742203,0.101387,-0.689533,0.061576,-0.714473,9.83427715301514,-2.30477094650269,0.39546734094620,4.04818964004517,3.51981282234192,1.19891774654388
216,3504758870,0.101414,-0.689524,0.061524,-0.714482,9.82817173004150,-2.26724171638489,0.43055915832520,3.47984385490417,3.44504928588867,1.12571656703949
217,3504775537,0.101379,-0.689537,0.061553,-0.714471,9.83017921447754,-2.29081869125366,0.42093509435654,2.76048541069031,3.32309389114380,1.21277403831482
218,3504792204,0.101323,-0.689538,0.061607,-0.714474,9.83793163299561,-2.31724762916565,0.41333284974098,2.55458521842957,3.47580957412720,1.22323691844940
219,3504808871,0.101275,-0.689530,0.061647,-0.714485,9.85422134399414,-2.31569123268127,0.39562314748764,2.77220392227173,3.51533079147339,1.20055711269379
220,3504825538,0.101252,-0.689533,0.061630,-0.714486,9.85276699066162,-2.33385562896729,0.43144613504410,3.05877161026001,3.39614176750183,1.04884016513824
221,3504842205,0.101259,-0.689547,0.061556,-0.714479,9.84974765777588,-2.34225392341614,0.40813818573952,3.31931686401367,3.28541851043701,0.91859972476959
222,3504858872,0.101267,-0.689583,0.061432,-0.714453,9.81963443756104,-2.30930209159851,0.40470165014267,3.58717441558838,3.04307079315186,0.69783085584641
223,3504875539,0.101281,-0.689593,0.061314,-0.714453,9.78999423980713,-2.30056023597717,0.40124595165253,3.72399711608887,3.26970434188843,0.75060576200485
224,3504892206,0.101318,-0.689574,0.061221,-0.714474,9.81067657470703,-2.31703233718872,0.38626715540886,3.87524056434631,3.48095822334290,0.98631954193115
225,3504908873,0.101325,-0.689557,0.061100,-0.714499,9.84301757812500,-2.28650498390198,0.42358136177063,3.72908139228821,3.52548623085022,0.69947010278702
226,3504925540,0.101309,-0.689569,0.060976,-0.714501,9.85805511474609,-2.25042605400085,0.41113266348839,3.06900382041931,3.40134167671204,0.54990470409393
227,3504942207,0.101172,-0.689587,0.060962,-0.714503,9.83217239379883,-2.28156352043152,0.38858565688133,2.69304704666138,3.32402873039246,0.50353288650513
228,3504958874,0.101014,-0.689621,0.060972,-0.714492,9.79394149780273,-2.30131244659424,0.38550746440887,2.45178866386414,3.21481633186340,0.51370108127594
229,3504975541,0.100881,-0.689645,0.060953,-0.714490,9.78285503387451,-2.31343960762024,0.36488559842110,2.48490571975708,3.33129000663757,0.49888411164284
230,3504992208,0.100763,-0.689627,0.060920,-0.714526,9.80628681182861,-2.30157208442688,0.36016318202019,3.11716842651367,3.59367966651917,0.50541543960571
231,3505008875,0.100702,-0.689601,0.060814,-0.714569,9.80905723571777,-2.26312112808228,0.35000425577164,3.29707169532776,3.69779491424561,0.42446643114090
232,3505025542,0.100616,-0.689599,0.060725,-0.714591,9.83097839355469,-2.22197651863098,0.38236406445503,2.79337286949158,3.57666039466858,0.37027004361153
233,3505042209,0.100430,-0.689622,0.060723,-0.714594,9.87120056152344,-2.22386169433594,0.39857864379883,2.16239094734192,3.39386248588562,0.31064364314079
234,3505058876,0.100244,-0.689683,0.060765,-0.714559,9.89491271972656,-2.22887849807739,0.39214822649956,1.93703734874725,3.04510664939880,0.53244972229004
235,3505075543,0.100071,-0.689791,0.060827,-0.714474,9.88549995422363,-2.24205851554871,0.39004048705101,1.79561638832092,2.59911251068115,0.70052003860474
236,3505092210,0.099899,-0.689914,0.060942,-0.714369,9.87197399139404,-2.26821637153625,0.41420090198517,1.93836903572083,2.36811184883118,0.97763657569885
237,3505108877,0.099784,-0.690027,0.060999,-0.714271,9.89908504486084,-2.26760983467102,0.44435390830040,2.10560703277588,2.48352265357971,0.97018343210220
238,3505125544,0.099686,-0.690138,0.061075,-0.714171,9.90191841125488,-2.28604602813721,0.45642364025116,1.99688112735748,2.51017236709595,1.13924002647400
239,3505142211,0.099517,-0.690233,0.061189,-0.714092,9.91043376922607,-2.29613494873047,0.43635049462318,1.78163218498230,2.67169880867004,0.98032605648041
240,3505158878,0.099333,-0.690310,0.061349,-0.714030,9.87219429016113,-2.33473825454712,0.42968210577965,1.87397873401642,2.78915882110596,1.13432240486145
241,3505175545,0.099207,-0.690368,0.061405,-0.713986,9.85899066925049,-2.34588336944580,0.44543331861496,2.06836628913879,3.03016185760498,0.89784044027328
242,3505192212,0.099092,-0.690390,0.061436,-0.713979,9.83213806152344,-2.33411383628845,0.44115090370178,2.51940584182739,3.29662346839905,0.82923680543900
243,3505208879,0.099014,-0.690387,0.061412,-0.713994,9.82448863983154,-2.32081675529480,0.41595423221588,2.83837413787842,3.50329279899597,0.73544317483902
244,3505225546,0.098922,-0.690358,0.061392,-0.714037,9.82915687561035,-2.28838872909546,0.41177675127983,3.01934051513672,3.72412490844727,0.69091534614563
245,3505242213,0.098777,-0.690311,0.061393,-0.714102,9.80157947540283,-2.26882672309875,0.37762627005577,3.11792325973511,3.84145641326904,0.54214394092560
246,3505258880,0.098664,-0.690256,0.061350,-0.714175,9.83233261108398,-2.25446105003357,0.37222838401794,3.01808547973633,3.99884700775146,0.46890455484390
247,3505275547,0.098520,-0.690218,0.061328,-0.714233,9.82411861419678,-2.22151064872742,0.35949411988258,2.52939510345459,3.91436362266541,0.41148084402084
248,3505292214,0.098355,-0.690189,0.061324,-0.714284,9.81123924255371,-2.21463680267334,0.35325846076012,2.39198255538940,3.85056233406067,0.39347511529922
249,3505308881,0.098240,-0.690184,0.061275,-0.714309,9.81064701080322,-2.22554230690002,0.35745382308960,2.50000476837158,3.63699030876160,0.42000988125801
250,3505325548,0.098086,-0.690227,0.061271,-0.714289,9.84140205383301,-2.21745991706848,0.35104304552078,2.32213735580444,3.15948057174683,0.46955770254135
251,3505342215,0.097907,-0.690327,0.061295,-0.714215,9.86810016632080,-2.21032667160034,0.34873735904694,1.96177911758423,2.67345356941223,0.48201826214790
252,3505358882,0.097689,-0.690457,0.061355,-0.714114,9.88548564910889,-2.23057961463928,0.35838899016380,1.65340220928192,2.41001439094543,0.47442403435707
253,3505375549,0.097419,-0.690603,0.061489,-0.713999,9.89095592498779,-2.21825480461121,0.37958812713623,1.38015329837799,2.25184297561646,0.58590334653854
254,3505392216,0.097176,-0.690764,0.061600,-0.713866,9.88204097747803,-2.23484849929810,0.35844099521637,1.21810150146484,2.16459321975708,0.60311502218246
255,3505408883,0.096939,-0.690911,0.061724,-0.713745,9.88707828521729,-2.25387287139893,0.38595277070999,1.22966575622559,2.28548502922058,0.68676614761353
256,3505425550,0.096758,-0.691024,0.061817,-0.713653,9.89645290374756,-2.29348349571228,0.36847209930420,1.59220075607300,2.56799340248108,0.81466317176819
257,3505442217,0.096602,-0.691121,0.061869,-0.713576,9.90052700042725,-2.29671454429626,0.37717774510384,1.97454714775085,2.66609001159668,0.73591691255569
258,3505458884,0.096451,-0.691209,0.061899,-0.713508,9.88210582733154,-2.27500653266907,0.40359672904015,2.13054132461548,2.73669147491455,0.65480154752731
259,3505475551,0.096272,-0.691283,0.061943,-0.713456,9.87207126617432,-2.25766372680664,0.40341266989708,1.98710989952087,2.88731932640076,0.58161312341690
260,3505492218,0.096119,-0.691337,0.061969,-0.713423,9.85794067382812,-2.27216672897339,0.39858955144882,2.19233202934265,3.06431627273560,0.61848270893097
261,3505508885,0.096026,-0.691351,0.061944,-0.713424,9.92403507232666,-2.31234240531921,0.37223944067955,2.76221466064453,3.36060428619385,0.66646808385849
262,3505525552,0.095992,-0.691335,0.061875,-0.713450,10.02878093719482,-2.28492951393127,0.35814407467842,3.29764771461487,3.57390642166138,0.73883676528931
263,3505542219,0.095915,-0.691321,0.061781,-0.713482,10.01657867431641,-2.23343420028687,0.38485655188560,3.20751667022705,3.59483194351196,0.40690895915031
264,3505558886,0.095717,-0.691352,0.061802,-0.713476,9.92730045318604,-2.19750809669495,0.42067366838455,1.86600065231323,3.35614776611328,0.36184343695641
265,3505575553,0.095399,-0.691381,0.061943,-0.713479,9.85847568511963,-2.27799248695374,0.38933300971985,1.28810107707977,3.40983176231384,0.35305830836296
266,3505592220,0.095221,-0.691368,0.061949,-0.713515,9.79303359985352,-2.29351806640625,0.36238157749176,2.17386531829834,3.72554683685303,0.38264095783234
267,3505608887,0.095138,-0.691333,0.061828,-0.713570,9.80243682861328,-2.27308487892151,0.35514622926712,3.29644417762756,3.80796790122986,0.24123321473598
268,3505625554,0.095150,-0.691248,0.061645,-0.713667,9.84282970428467,-2.23916840553284,0.35873067378998,4.29736328125000,4.11808729171753,0.41067409515381
269,3505642221,0.095240,-0.691154,0.061429,-0.713764,9.86120796203613,-2.17476916313171,0.38580214977264,4.44119071960449,4.20382499694824,0.62918877601624
270,3505658888,0.095282,-0.691090,0.061272,-0.713835,9.89344024658203,-2.11145114898682,0.36288806796074,3.78832387924194,4.01486778259277,0.67599606513977
271,3505675555,0.095139,-0.691051,0.061354,-0.713884,9.88871669769287,-2.11536836624146,0.35284858942032,2.57280850410461,3.82076168060303,0.93542718887329
272,3505692222,0.094985,-0.691042,0.061535,-0.713898,9.88187885284424,-2.12890172004700,0.33318346738815,1.65507984161377,3.65508580207825,1.35355436801910
273,3505708889,0.094813,-0.691061,0.061754,-0.713883,9.90622615814209,-2.15947294235229,0.31600284576416,1.17018020153046,3.45631885528564,1.44065034389496
274,3505725556,0.094647,-0.691102,0.062015,-0.713843,9.90312767028809,-2.19144868850708,0.30669963359833,1.09819555282593,3.22535586357117,1.68481612205505
275,3505742223,0.094527,-0.691158,0.062224,-0.713786,9.89140224456787,-2.20750856399536,0.32863613963127,1.42445027828217,3.04793715476990,1.66350650787354
276,3505758890,0.094440,-0.691234,0.062402,-0.713710,9.81245517730713,-2.22756576538086,0.30389541387558,1.58041894435883,2.85675096511841,1.67379009723663
277,3505775557,0.094400,-0.691289,0.062525,-0.713650,9.83235454559326,-2.23910069465637,0.31947678327560,2.25763201713562,2.93864822387695,1.65168654918671
278,3505792224,0.094409,-0.691344,0.062582,-0.713591,9.88319396972656,-2.23268532752991,0.32618531584740,2.83845067024231,2.87277173995972,1.57804965972900
279,3505808891,0.094388,-0.691423,0.062648,-0.713512,9.89352512359619,-2.20570325851440,0.36356648802757,2.58952140808105,2.69332957267761,1.47179567813873
280,3505825558,0.094314,-0.691502,0.062789,-0.713432,9.89085292816162,-2.22065925598145,0.38278937339783,2.24555563926697,2.68810439109802,1.58527278900146
281,3505842225,0.094211,-0.691590,0.062980,-0.713343,9.87654495239258,-2.20317363739014,0.36160442233086,1.71215784549713,2.68752813339233,1.67250931262970
282,3505858892,0.094092,-0.691694,0.063163,-0.713242,9.86732196807861,-2.23725175857544,0.35573282837868,1.17617356777191,2.66218376159668,1.54187166690826
283,3505875559,0.093941,-0.691781,0.063374,-0.713159,9.84285449981689,-2.27439498901367,0.35746890306473,1.01996171474457,2.84373950958252,1.51734745502472
284,3505892226,0.093775,-0.691817,0.063572,-0.713129,9.85223770141602,-2.28018450737000,0.33512684702873,1.27643465995789,3.28331780433655,1.38070392608643
285,3505908893,0.093638,-0.691830,0.063723,-0.713120,9.85308933258057,-2.27268123626709,0.33935829997063,1.70508897304535,3.44959592819214,1.28670537471771
286,3505925560,0.093548,-0.691831,0.063821,-0.713122,9.85766410827637,-2.24006295204163,0.36511108279228,2.16513109207153,3.51688003540039,1.27050518989563
287,3505942227,0.093486,-0.691829,0.063896,-0.713125,9.85820102691650,-2.23432874679565,0.34369379281998,2.59347844123840,3.45943117141724,1.30672168731689
288,3505958894,0.093498,-0.691841,0.063902,-0.713111,9.89429092407227,-2.20705580711365,0.35206955671310,2.83813071250916,3.34061360359192,1.32270407676697
289,3505975561,0.093444,-0.691856,0.063986,-0.713097,9.91485118865967,-2.21829128265381,0.34012845158577,2.62536597251892,3.28703165054321,1.39453470706940
290,3505992228,0.093367,-0.691866,0.064114,-0.713086,9.90040588378906,-2.22900629043579,0.32896450161934,2.16080284118652,3.40118741989136,1.48291134834290
291,3506008895,0.093284,-0.691883,0.064281,-0.713065,9.88160133361816,-2.22757458686829,0.35484015941620,1.73610556125641,3.38967418670654,1.63145196437836
292,3506025562,0.093202,-0.691887,0.064458,-0.713055,9.84746742248535,-2.23427176475525,0.32511591911316,1.89888715744019,3.47191691398621,1.69054079055786
293,3506042229,0.093154,-0.691866,0.064623,-0.713068,9.82201480865479,-2.24310207366943,0.34788835048676,2.26257491111755,3.64845275878906,1.80671989917755
294,3506058896,0.093207,-0.691819,0.064731,-0.713097,9.81681632995605,-2.27662515640259,0.33844000101089,3.02222204208374,3.77728462219238,2.02491474151611
295,3506075563,0.093385,-0.691752,0.064721,-0.713139,9.82945919036865,-2.24089550971985,0.31615838408470,3.86019206047058,3.89041566848755,2.06767487525940
296,3506092230,0.093558,-0.691699,0.064678,-0.713172,9.84724617004395,-2.22805261611938,0.31891763210297,4.16602134704590,3.72084712982178,1.89430284500122
297,3506108897,0.093699,-0.691654,0.064719,-0.713193,9.89200592041016,-2.21309018135071,0.29940667748451,3.47217297554016,3.71877169609070,2.13206529617310
298,3506125564,0.093735,-0.691610,0.064854,-0.713219,9.88716888427734,-2.20902323722839,0.30788889527321,2.65800905227661,3.81111884117126,2.07041573524475
299,3506142231,0.093709,-0.691576,0.065074,-0.713235,9.88174819946289,-2.23027181625366,0.31282678246498,2.01647496223450,3.77657985687256,2.17472338676453
300,3506158898,0.093654,-0.691563,0.065308,-0.713234,9.85464954376221,-2.25964784622192,0.31376403570175,1.78612756729126,3.61026430130005,2.09219932556152
301,3506175565,0.093660,-0.691560,0.065465,-0.713221,9.84247684478760,-2.25851964950562,0.33425790071487,2.08865189552307,3.51960778236389,2.02214837074280
302,3506192232,0.093652,-0.691555,0.065598,-0.713215,9.82714557647705,-2.28424358367920,0.34659487009048,2.39999985694885,3.48473620414734,1.85019755363464
303,3506208899,0.093658,-0.691549,0.065688,-0.713211,9.84426116943359,-2.30703425407410,0.32929134368896,2.67203259468079,3.47444033622742,1.70750927925110
304,3506225566,0.093655,-0.691547,0.065743,-0.713209,9.86062812805176,-2.31637740135193,0.33635288476944,2.79889202117920,3.44077229499817,1.49473178386688
305,3506242233,0.093640,-0.691537,0.065765,-0.713219,9.80154418945312,-2.27966237068176,0.34727931022644,2.90036964416504,3.52941751480103,1.27460324764252
306,3506258900,0.093630,-0.691495,0.065786,-0.713259,9.78930091857910,-2.27587294578552,0.33596211671829,2.98799037933350,3.81767487525940,1.28687155246735
307,3506275567,0.093703,-0.691429,0.065765,-0.713315,9.81800270080566,-2.29863119125366,0.35821008682251,3.49049878120422,3.97649979591370,1.49658858776093
308,3506292234,0.093798,-0.691362,0.065708,-0.713372,9.88572502136230,-2.27529668807983,0.37124255299568,4.06102180480957,3.87991428375244,1.43770480155945
309,3506308901,0.093865,-0.691332,0.065658,-0.713397,9.95755481719971,-2.23445487022400,0.37531679868698,3.75673007965088,3.58776307106018,1.34143972396851
310,3506325568,0.093935,-0.691325,0.065629,-0.713398,9.93605232238770,-2.19295239448547,0.37384453415871,3.13998889923096,3.49709391593933,1.43794810771942
311,3506342235,0.093881,-0.691368,0.065786,-0.713348,9.87231254577637,-2.19100499153137,0.38183400034904,1.78592240810394,3.13441848754883,1.72910082340240
312,3506358902,0.093778,-0.691412,0.066031,-0.713297,9.81131362915039,-2.25385999679565,0.36986464262009,1.14465749263763,3.19869399070740,1.91129672527313
313,3506375569,0.093753,-0.691404,0.066199,-0.713292,9.76243305206299,-2.32526063919067,0.37067565321922,2.10827112197876,3.54730820655823,1.92858529090881
314,3506392236,0.093854,-0.691358,0.066209,-0.713323,9.75694751739502,-2.31809115409851,0.35335761308670,3.71373915672302,3.70314884185791,1.79167234897614
315,3506408903,0.094088,-0.691305,0.066124,-0.713351,9.78350257873535,-2.24990606307983,0.35214340686798,4.62027549743652,3.64092278480530,1.99702250957489
316,3506425570,0.094324,-0.691276,0.066096,-0.713350,9.81710147857666,-2.20831942558289,0.34072166681290,4.45636653900146,3.39527082443237,2.28926324844360
317,3506442237,0.094504,-0.691271,0.066172,-0.713325,9.84650611877441,-2.16629981994629,0.34405821561813,3.50744175910950,3.29086089134216,2.50455093383789
318,3506458904,0.094585,-0.691290,0.066372,-0.713277,9.84588050842285,-2.18194150924683,0.31938832998276,2.48046231269836,3.17579579353333,2.61740040779114
319,3506475571,0.094642,-0.691338,0.066664,-0.713196,9.82872676849365,-2.22230863571167,0.33811026811600,1.85978949069977,2.94388556480408,2.93971085548401
320,3506492238,0.094685,-0.691411,0.066993,-0.713088,9.83543682098389,-2.24938035011292,0.35247042775154,1.47137272357941,2.75317287445068,3.05446791648865
321,3506508905,0.094702,-0.691524,0.067345,-0.712943,9.86008644104004,-2.29011344909668,0.33003264665604,1.50890815258026,2.33212590217590,3.05236768722534
322,3506525572,0.094793,-0.691651,0.067619,-0.712782,9.80155086517334,-2.31255245208740,0.34360516071320,1.94114792346954,2.16519498825073,3.04008650779724
323,3506542239,0.094957,-0.691784,0.067841,-0.712610,9.77299022674561,-2.30595517158508,0.34247705340385,2.69352173805237,1.98243594169617,3.15998005867004
324,3506558906,0.095215,-0.691894,0.068018,-0.712452,9.84489059448242,-2.31923866271973,0.34596729278564,3.47888350486755,2.07036447525024,3.40616917610168
325,3506575573,0.095494,-0.692000,0.068182,-0.712296,9.88069343566895,-2.32774209976196,0.33265233039856,3.46401548385620,2.11678743362427,3.44430685043335
326,3506592240,0.095704,-0.692110,0.068410,-0.712139,9.89066028594971,-2.28947973251343,0.35927912592888,2.69025540351868,2.20609879493713,3.40823054313660
327,3506608907,0.095770,-0.692226,0.068782,-0.711982,9.91563129425049,-2.31128382682800,0.33238115906715,1.47123181819916,2.28977537155151,3.39096760749817
328,3506625574,0.095778,-0.692340,0.069236,-0.711825,9.88710784912109,-2.35834240913391,0.31845325231552,0.81596952676773,2.37753748893738,3.49572396278381
329,3506642241,0.095796,-0.692465,0.069691,-0.711657,9.86117172241211,-2.39288949966431,0.32580411434174,0.78436326980591,2.28155374526978,3.55323743820190
330,3506658908,0.095865,-0.692561,0.070101,-0.711514,9.83829116821289,-2.41273927688599,0.33067661523819,1.32590544223785,2.47628712654114,3.58800649642944
331,3506675575,0.096037,-0.692620,0.070409,-0.711403,9.81075477600098,-2.38800978660583,0.34727627038956,2.30845999717712,2.70943951606750,3.59398698806763
332,3506692242,0.096255,-0.692670,0.070674,-0.711299,9.82256031036377,-2.37691545486450,0.31875291466713,2.74213433265686,2.73774170875549,3.62189221382141
333,3506708909,0.096415,-0.692715,0.070960,-0.711204,9.83418178558350,-2.36018419265747,0.29328966140747,2.37617969512939,2.84053778648376,3.42758083343506
334,3506725576,0.096485,-0.692754,0.071312,-0.711123,9.83292961120605,-2.38576340675354,0.27619704604149,1.62702155113220,3.02875351905823,3.29980015754700
335,3506742243,0.096459,-0.692791,0.071719,-0.711049,9.85064411163330,-2.40334343910217,0.24379572272301,0.91332328319550,3.15506196022034,3.08714985847473
336,3506758910,0.096382,-0.692816,0.072113,-0.710995,9.86294078826904,-2.45339226722717,0.25211530923843,0.85086667537689,3.29549622535706,2.77701830863953
337,3506775577,0.096362,-0.692857,0.072403,-0.710928,9.87579917907715,-2.46606326103210,0.27675798535347,1.52916789054871,3.08232212066650,2.55146026611328
338,3506792244,0.096438,-0.692906,0.072593,-0.710851,9.82740783691406,-2.44259595870972,0.31457829475403,2.44019889831543,2.88648724555969,2.54658126831055
339,3506808911,0.096589,-0.692979,0.072691,-0.710749,9.86697578430176,-2.41063714027405,0.33117824792862,3.29973530769348,2.53774476051331,2.48545646667480
340,3506825578,0.096806,-0.693035,0.072774,-0.710657,9.86735343933105,-2.36620974540710,0.30509489774704,3.64982271194458,2.63207650184631,2.73301601409912
341,3506842245,0.096998,-0.693077,0.072952,-0.710571,9.86019039154053,-2.35639309883118,0.32136121392250,3.08996748924255,2.80616593360901,3.06680083274841
342,3506858912,0.097111,-0.693103,0.073244,-0.710501,9.83640956878662,-2.35594654083252,0.30327254533768,2.29516673088074,3.03953599929810,3.22981262207031
343,3506875579,0.097162,-0.693109,0.073669,-0.710443,9.85524940490723,-2.37853503227234,0.30302900075912,1.27095329761505,3.34536385536194,3.55511903762817
344,3506892246,0.097138,-0.693119,0.074166,-0.710385,9.83412456512451,-2.42141199111938,0.27973783016205,0.53206539154053,3.41843748092651,3.53208088874817
345,3506908913,0.097096,-0.693122,0.074682,-0.710334,9.82892799377441,-2.48380327224731,0.26042938232422,0.46128466725349,3.47837090492249,3.54026412963867
346,3506925580,0.097104,-0.693137,0.075117,-0.710273,9.82004070281982,-2.50811386108398,0.26491361856461,1.00853836536407,3.31152987480164,3.38886737823486
347,3506942247,0.097200,-0.693138,0.075421,-0.710226,9.79983329772949,-2.49662041664124,0.24603556096554,1.88888537883759,3.37079811096191,3.19170093536377
348,3506958914,0.097327,-0.693128,0.075649,-0.710195,9.76296138763428,-2.48288989067078,0.22999498248100,2.53202080726624,3.39625740051270,2.97697734832764
349,3506975581,0.097430,-0.693120,0.075867,-0.710165,9.72245693206787,-2.44657588005066,0.21686704456806,2.55189585685730,3.37840533256531,2.81122446060181
350,3506992248,0.097450,-0.693129,0.076079,-0.710131,9.69910812377930,-2.41823863983154,0.22525036334991,2.33646750450134,3.27772164344788,2.37907433509827
351,3507008915,0.097432,-0.693142,0.076277,-0.710099,9.70671558380127,-2.42863774299622,0.24415855109692,2.12098789215088,3.29859566688538,2.12349772453308
352,3507025582,0.097525,-0.693201,0.076384,-0.710017,9.67103099822998,-2.52933907508850,0.27239447832108,2.91932249069214,2.75314736366272,2.23069953918457
353,3507042249,0.097703,-0.693316,0.076335,-0.709886,9.71439075469971,-2.54914212226868,0.28889933228493,4.01137113571167,2.09981894493103,1.90632784366608
354,3507058916,0.097929,-0.693462,0.076169,-0.709729,9.87949943542480,-2.55508661270142,0.26712760329247,4.81774997711182,1.70379555225372,1.58935797214508
355,3507075583,0.098084,-0.693590,0.075984,-0.709604,9.96126747131348,-2.49686670303345,0.23804926872253,4.65238046646118,1.95552968978882,1.13751125335693
356,3507092250,0.098034,-0.693698,0.075948,-0.709508,9.94709873199463,-2.46410655975342,0.28347456455231,2.96999788284302,2.40761995315552,0.84130048751831
357,3507108917,0.097898,-0.693747,0.076029,-0.709471,9.91899299621582,-2.50902795791626,0.25565713644028,1.98436975479126,3.11171317100525,0.96471524238586
358,3507125584,0.097787,-0.693729,0.076070,-0.709499,9.83403968811035,-2.57315373420715,0.27901729941368,2.41365170478821,3.70649147033691,0.89404982328415
359,3507142251,0.097784,-0.693699,0.075966,-0.709540,9.76316738128662,-2.55768203735352,0.30680900812149,3.61305618286133,3.67826557159424,0.71875649690628
360,3507158918,0.097878,-0.693645,0.075794,-0.709599,9.76344871520996,-2.48547267913818,0.30137932300568,4.42893552780151,3.78884863853455,0.87317538261414
361,3507175585,0.097990,-0.693554,0.075634,-0.709689,9.80963230133057,-2.42135024070740,0.26895070075989,4.46101522445679,4.11909866333008,1.01200902462006
362,3507192252,0.098061,-0.693449,0.075543,-0.709791,9.84692668914795,-2.38821864128113,0.24511511623859,3.96350193023682,4.30982446670532,1.14569461345673
363,3507208919,0.098041,-0.693338,0.075584,-0.709898,9.86045074462891,-2.36906313896179,0.23688007891178,2.95295238494873,4.49230146408081,1.33118176460266
364,3507225586,0.097959,-0.693235,0.075738,-0.709994,9.86694622039795,-2.38790845870972,0.20481750369072,2.09039354324341,4.50100994110107,1.56423175334930
365,3507242253,0.097833,-0.693150,0.075973,-0.710069,9.84196758270264,-2.41642451286316,0.22690685093403,1.51444041728973,4.37968158721924,1.75110173225403
366,3507258920,0.097720,-0.693119,0.076190,-0.710091,9.79804325103760,-2.45169520378113,0.23155270516872,1.48859715461731,3.87522697448730,1.72442615032196
367,3507275587,0.097643,-0.693128,0.076331,-0.710078,9.76627349853516,-2.47412753105164,0.23165294528008,2.00557637214661,3.43675041198730,1.55143785476685
368,3507292254,0.097643,-0.693167,0.076395,-0.710033,9.68090343475342,-2.47151327133179,0.25223287940025,2.69460988044739,3.05369997024536,1.55825114250183
369,3507308921,0.097729,-0.693177,0.076397,-0.710011,9.72598552703857,-2.46399593353271,0.22789664566517,3.51136016845703,3.19499206542969,1.67831051349640
370,3507325588,0.097871,-0.693137,0.076337,-0.710037,9.81590175628662,-2.50081038475037,0.21906378865242,4.19452762603760,3.58392119407654,1.66414678096771
371,3507342255,0.097964,-0.693109,0.076269,-0.710059,9.84078979492188,-2.45463228225708,0.26469346880913,3.94023203849792,3.53243970870972,1.37593996524811
372,3507358922,0.097933,-0.693110,0.076293,-0.710060,9.85601902008057,-2.41648745536804,0.28294536471367,2.83756709098816,3.43470191955566,1.20829212665558
373,3507375589,0.097806,-0.693141,0.076424,-0.710033,9.82084274291992,-2.44921851158142,0.27399697899818,1.78838145732880,3.28193521499634,1.25398516654968
374,3507392256,0.097662,-0.693202,0.076586,-0.709975,9.81546974182129,-2.49827218055725,0.26832750439644,1.56663930416107,3.00933861732483,1.32100081443787
375,3507408923,0.097582,-0.693246,0.076694,-0.709932,9.80063056945801,-2.51065397262573,0.28415367007256,2.00871467590332,3.13233137130737,1.37368619441986
376,3507425590,0.097615,-0.693221,0.076690,-0.709953,9.80826091766357,-2.52570629119873,0.29103821516037,3.14627671241760,3.64403414726257,1.37709224224091
377,3507442257,0.097736,-0.693172,0.076591,-0.709994,9.82095336914062,-2.50504636764526,0.28745299577713,4.08452129364014,3.74008178710938,1.35739636421204
378,3507458924,0.097836,-0.693122,0.076496,-0.710040,9.85721683502197,-2.43612003326416,0.28422421216965,4.26094150543213,3.70266175270081,1.28318345546722
379,3507475591,0.097896,-0.693078,0.076433,-0.710081,9.87082004547119,-2.43601799011230,0.26482647657394,3.81035041809082,3.72116684913635,1.23974442481995
380,3507492258,0.097961,-0.693034,0.076398,-0.710118,9.88446998596191,-2.45837855339050,0.28306013345718,3.31179928779602,3.82173514366150,1.38435363769531
381,3507508925,0.097993,-0.692983,0.076405,-0.710163,9.86830139160156,-2.48699617385864,0.29309612512589,3.17693543434143,3.87440776824951,1.42790806293488
382,3507525592,0.098016,-0.692924,0.076440,-0.710214,9.83826923370361,-2.49972271919250,0.29970273375511,3.01729202270508,3.97156977653503,1.51898705959320
383,3507542259,0.098038,-0.692862,0.076462,-0.710269,9.81169891357422,-2.48994636535645,0.29901382327080,3.05261135101318,3.99405741691589,1.45349526405334
384,3507558926,0.098045,-0.692767,0.076496,-0.710357,9.78239536285400,-2.47082233428955,0.30025771260262,3.16774034500122,4.28253316879272,1.43196773529053
385,3507575593,0.098120,-0.692648,0.076481,-0.710464,9.76527023315430,-2.48484921455383,0.32179120182991,3.35093522071838,4.52443218231201,1.51925575733185
386,3507592260,0.098173,-0.692509,0.076429,-0.710598,9.76751136779785,-2.51726150512695,0.28362554311752,3.70814228057861,4.67599487304688,1.24316346645355
387,3507608927,0.098248,-0.692373,0.076323,-0.710732,9.76901531219482,-2.50491690635681,0.28910842537880,4.16938972473145,4.57914161682129,1.08573532104492
388,3507625594,0.098305,-0.692254,0.076181,-0.710855,9.77105426788330,-2.48099231719971,0.26694896817207,4.23416376113892,4.43193244934082,0.82866054773331
389,3507642261,0.098327,-0.692150,0.076029,-0.710970,9.74074649810791,-2.47243213653564,0.28200671076775,4.04434823989868,4.35103464126587,0.60533058643341
390,3507658928,0.098320,-0.692054,0.075902,-0.711078,9.75447177886963,-2.45992565155029,0.26439338922501,3.89384746551514,4.28278923034668,0.58735036849976
391,3507675595,0.098326,-0.691981,0.075755,-0.711163,9.77041912078857,-2.45005559921265,0.27766615152359,3.99405694007874,4.04352807998657,0.55892038345337
392,3507692262,0.098305,-0.691924,0.075627,-0.711235,9.80607318878174,-2.44067907333374,0.27225282788277,3.98287749290466,3.87068104743958,0.52698135375977
393,3507708929,0.098325,-0.691898,0.075442,-0.711277,9.80182552337646,-2.42916870117188,0.28378841280937,4.00435447692871,3.63373827934265,0.44188317656517
394,3507725596,0.098250,-0.691915,0.075349,-0.711281,9.81096076965332,-2.41220164299011,0.31611424684525,3.47111058235168,3.23394918441772,0.43532633781433
395,3507742263,0.098205,-0.691970,0.075276,-0.711241,9.78828907012939,-2.41821551322937,0.32952526211739,3.13900279998779,2.92960643768311,0.67559903860092
396,3507758930,0.098193,-0.692029,0.075228,-0.711190,9.77580261230469,-2.39947748184204,0.32156878709793,2.87102961540222,2.92730093002319,0.94939863681793
397,3507775597,0.098154,-0.692065,0.075248,-0.711159,9.77595806121826,-2.42473649978638,0.32897651195526,2.82729625701904,3.10089111328125,1.15547859668732
398,3507792264,0.098129,-0.692098,0.075259,-0.711129,9.74245357513428,-2.42455673217773,0.33560940623283,2.87219524383545,3.12323856353760,1.17569983005524
399,3507808931,0.098128,-0.692124,0.075265,-0.711103,9.81937026977539,-2.43574404716492,0.32551717758179,2.88812637329102,3.18835830688477,1.27282309532166
400,3507825598,0.098111,-0.692111,0.075315,-0.711113,9.88605785369873,-2.49576711654663,0.30722939968109,2.77138400077820,3.56136941909790,1.39759540557861
401,3507842265,0.098055,-0.692114,0.075333,-0.711116,9.84858322143555,-2.47090005874634,0.33464944362640,2.58727979660034,3.47917795181274,1.05049204826355
402,3507858932,0.097943,-0.692150,0.075395,-0.711090,9.79955768585205,-2.45080375671387,0.32844221591949,2.15044260025024,3.22237277030945,0.99329906702042
403,3507875599,0.097925,-0.692157,0.075385,-0.711086,9.79287719726562,-2.48231124877930,0.31136775016785,2.91610860824585,3.38596057891846,1.10470151901245
404,3507892266,0.098027,-0.692150,0.075247,-0.711094,9.77553939819336,-2.49470353126526,0.30309569835663,4.32067108154297,3.31169676780701,1.08340442180634
405,3507908933,0.098219,-0.692147,0.075041,-0.711092,9.76713848114014,-2.43467092514038,0.32527545094490,5.13993072509766,3.13143420219421,1.21429800987244
406,3507925600,0.098438,-0.692125,0.074870,-0.711102,9.77892971038818,-2.37231254577637,0.32246220111847,5.07129001617432,3.31231164932251,1.50844752788544
407,3507942267,0.098584,-0.692099,0.074804,-0.711113,9.77948665618896,-2.37733078002930,0.27853041887283,4.15625047683716,3.45263051986694,1.64756274223328
408,3507958934,0.098592,-0.692100,0.074888,-0.711102,9.77790641784668,-2.40919375419617,0.29235672950745,2.64224481582642,3.41882228851318,1.69089949131012
409,3507975601,0.098490,-0.692117,0.075074,-0.711081,9.81483364105225,-2.44594907760620,0.28058478236198,1.68248534202576,3.39693522453308,1.63928949832916
410,3507992268,0.098325,-0.692137,0.075293,-0.711061,9.81539726257324,-2.49220585823059,0.27979704737663,1.37271285057068,3.40218687057495,1.48764991760254
411,3508008935,0.098207,-0.692161,0.075435,-0.711039,9.79259681701660,-2.52950310707092,0.27587023377419,2.07021021842957,3.26792407035828,1.35660207271576
412,3508025602,0.098193,-0.692205,0.075415,-0.711000,9.81156826019287,-2.51611065864563,0.28349399566650,3.05439138412476,3.00073289871216,1.08532536029816
413,3508042269,0.098239,-0.692251,0.075277,-0.710964,9.82786560058594,-2.51242709159851,0.31417596340179,4.06419801712036,2.85605931282043,0.81745493412018
414,3508058936,0.098299,-0.692304,0.075075,-0.710924,9.80001068115234,-2.47361159324646,0.31958660483360,4.41501522064209,2.75834727287292,0.58166444301605
415,3508075603,0.098374,-0.692357,0.074872,-0.710884,9.75784206390381,-2.42427229881287,0.32722452282906,4.34751319885254,2.78105306625366,0.64089387655258
416,3508092270,0.098432,-0.692379,0.074757,-0.710867,9.79423332214355,-2.42503809928894,0.30211153626442,3.95090031623840,3.09898352622986,0.98488533496857
417,3508108937,0.098432,-0.692374,0.074706,-0.710877,9.83876895904541,-2.43693423271179,0.31114521622658,3.36894106864929,3.43527793884277,0.99976617097855
418,3508125604,0.098330,-0.692359,0.074749,-0.710901,9.86092662811279,-2.43615055084229,0.31212311983109,2.42631673812866,3.67307901382446,0.94110029935837
419,3508142271,0.098157,-0.692353,0.074837,-0.710922,9.87744617462158,-2.44688153266907,0.30737900733948,2.03067731857300,3.62962698936462,0.81237083673477
420,3508158938,0.098038,-0.692379,0.074880,-0.710908,9.82494354248047,-2.46791720390320,0.32564541697502,2.18367528915405,3.32656502723694,0.86295604705811
421,3508175605,0.097954,-0.692405,0.074908,-0.710892,9.79702091217041,-2.49789071083069,0.32220897078514,2.63261437416077,3.23347544670105,0.96842902898788
422,3508192272,0.097993,-0.692396,0.074812,-0.710905,9.78818893432617,-2.48474192619324,0.30562630295753,3.75671768188477,3.42128109931946,0.97812354564667
423,3508208939,0.098138,-0.692360,0.074612,-0.710941,9.79961872100830,-2.46555423736572,0.28460159897804,4.73549461364746,3.56314945220947,0.99527126550674
424,3508225606,0.098287,-0.692323,0.074433,-0.710976,9.80270099639893,-2.41858005523682,0.30507043004036,4.61164426803589,3.57683968544006,1.11029791831970
425,3508242273,0.098318,-0.692296,0.074374,-0.711003,9.82256126403809,-2.39490342140198,0.29338642954826,3.56377696990967,3.60763859748840,1.11553549766541
426,3508258940,0.098224,-0.692286,0.074452,-0.711018,9.83363151550293,-2.39402151107788,0.28016975522041,2.31395363807678,3.61117267608643,1.15650308132172
427,3508275607,0.098060,-0.692293,0.074589,-0.711020,9.82568836212158,-2.44610571861267,0.28120878338814,1.69211590290070,3.54327416419983,1.08791232109070
428,3508292274,0.097910,-0.692300,0.074706,-0.711021,9.81960582733154,-2.49581861495972,0.29136741161346,2.01675629615784,3.47406792640686,1.06803655624390
429,3508308941,0.097855,-0.692307,0.074711,-0.711021,9.81763553619385,-2.51121544837952,0.29185000061989,2.93682932853699,3.36136007308960,1.00350570678711
430,3508325608,0.097887,-0.692320,0.074615,-0.711014,9.82723426818848,-2.46699357032776,0.31805399060249,3.81577992439270,3.19597864151001,0.94491666555405
431,3508342275,0.097963,-0.692331,0.074461,-0.711010,9.82668590545654,-2.43498611450195,0.32429924607277,4.08493185043335,3.22002911567688,0.87957870960236
432,3508358942,0.098076,-0.692335,0.074279,-0.711009,9.80683040618896,-2.43597006797791,0.33189961314201,4.02949285507202,3.32572007179260,0.91865086555481
433,3508375609,0.098037,-0.692329,0.074248,-0.711023,9.80874919891357,-2.43398976325989,0.34104114770889,3.55022740364075,3.37081050872803,0.91569238901138
434,3508392276,0.098001,-0.692314,0.074223,-0.711046,9.80401325225830,-2.43744540214539,0.32297515869141,3.14084649085999,3.56681132316589,0.94477558135986
435,3508408943,0.097990,-0.692283,0.074214,-0.711079,9.81976222991943,-2.44714498519897,0.31573423743248,3.06681346893311,3.72416329383850,1.13657641410828
436,3508425610,0.098023,-0.692257,0.074176,-0.711103,9.81454181671143,-2.46251678466797,0.32123664021492,3.03701329231262,3.71231746673584,1.20959818363190
437,3508442277,0.098042,-0.692221,0.074147,-0.711138,9.82777976989746,-2.44950699806213,0.32252109050751,3.31523156166077,3.72873568534851,1.19546008110046
438,3508458944,0.098071,-0.692188,0.074102,-0.711171,9.80989646911621,-2.45366525650024,0.29326155781746,3.47965192794800,3.67484641075134,1.16618478298187
439,3508475611,0.098097,-0.692160,0.074064,-0.711199,9.81227493286133,-2.43055653572083,0.29633331298828,3.53830504417419,3.60900878906250,1.19376957416534
440,3508492278,0.098099,-0.692147,0.074028,-0.711214,9.81094360351562,-2.42564105987549,0.30283924937248,3.28545618057251,3.51412606239319,1.07986974716187
441,3508508945,0.098121,-0.692157,0.073971,-0.711207,9.79437828063965,-2.41358232498169,0.28879219293594,3.08106732368469,3.37202739715576,1.06761431694031
442,3508525612,0.098108,-0.692173,0.073969,-0.711194,9.80426979064941,-2.40678477287292,0.28730010986328,3.18979310989380,3.22279500961304,1.17641711235046
443,3508542279,0.098117,-0.692185,0.073946,-0.711183,9.81675148010254,-2.43171238899231,0.32670971751213,3.22165536880493,3.27409720420837,1.18463873863220
444,3508558946,0.098134,-0.692198,0.073931,-0.711170,9.80908107757568,-2.43501114845276,0.31507888436317,3.22983908653259,3.25933170318604,1.25734043121338
445,3508575613,0.098145,-0.692210,0.073919,-0.711158,9.80469799041748,-2.44290614128113,0.31163182854652,3.17764019966125,3.27199721336365,1.24293327331543
446,3508592280,0.098142,-0.692233,0.073918,-0.711137,9.82342338562012,-2.44171142578125,0.31650584936142,3.04883384704590,3.19692635536194,1.23247039318085
447,3508608947,0.098129,-0.692255,0.073924,-0.711116,9.84425735473633,-2.45318675041199,0.31475073099136,2.96566891670227,3.20459747314453,1.21401655673981
448,3508625614,0.098119,-0.692273,0.073929,-0.711100,9.84617710113525,-2.46847009658813,0.30956098437309,2.99447059631348,3.25185298919678,1.21605265140533
449,3508642281,0.098136,-0.692291,0.073896,-0.711084,9.81721878051758,-2.46518540382385,0.30522793531418,3.31133818626404,3.20701789855957,1.17704463005066
450,3508658948,0.098138,-0.692283,0.073874,-0.711093,9.80723190307617,-2.45518851280212,0.30877882242203,3.20554447174072,3.46721673011780,1.14502847194672
451,3508675615,0.098145,-0.692275,0.073833,-0.711105,9.76551914215088,-2.44866681098938,0.33050164580345,3.33591341972351,3.47219872474670,1.08124017715454
452,3508692282,0.098086,-0.692261,0.073846,-0.711124,9.76776409149170,-2.41925597190857,0.29360130429268,3.01131081581116,3.53453993797302,1.02160096168518
453,3508708949,0.098065,-0.692233,0.073815,-0.711158,9.88415813446045,-2.46569180488586,0.26400920748711,2.95007061958313,3.75268316268921,0.97990345954895
454,3508725616,0.098043,-0.692195,0.073739,-0.711206,9.89131641387939,-2.47935605049133,0.31326425075531,3.20890021324158,3.82133817672729,0.75379455089569
455,3508742283,0.097895,-0.692190,0.073738,-0.711231,9.86516094207764,-2.42937421798706,0.33210393786430,2.75819349288940,3.53733181953430,0.51398289203644
456,3508758950,0.097774,-0.692168,0.073696,-0.711273,9.82613849639893,-2.45996522903442,0.30503019690514,2.87095355987549,3.71167731285095,0.44491824507713
457,3508775617,0.097744,-0.692133,0.073565,-0.711325,9.78429889678955,-2.45068407058716,0.31198847293854,3.66869902610779,3.73594522476196,0.45931255817413
458,3508792284,0.097830,-0.692102,0.073379,-0.711363,9.78333091735840,-2.43874835968018,0.32268327474594,4.23161506652832,3.62422275543213,0.76298952102661
459,3508808951,0.097941,-0.692056,0.073216,-0.711409,9.83678436279297,-2.41322922706604,0.31697776913643,4.58527612686157,3.65411329269409,1.01042115688324
460,3508825618,0.098054,-0.692005,0.073084,-0.711457,9.85376834869385,-2.37244868278503,0.31417238712311,4.32406377792358,3.73595762252808,1.15923082828522
461,3508842285,0.098085,-0.691979,0.073058,-0.711481,9.83271598815918,-2.32947087287903,0.32118213176727,3.13044786453247,3.67336082458496,1.26300060749054
462,3508858952,0.098019,-0.691980,0.073170,-0.711477,9.81331157684326,-2.33934855461121,0.32914927601814,1.99584400653839,3.54472088813782,1.44988381862640
463,3508875619,0.097901,-0.691975,0.073369,-0.711478,9.82612323760986,-2.40689849853516,0.31245025992393,1.55519020557404,3.62834596633911,1.61444520950317
464,3508892286,0.097824,-0.691957,0.073529,-0.711490,9.79272937774658,-2.47099494934082,0.29205417633057,1.95217418670654,3.69693684577942,1.63183617591858
465,3508908953,0.097841,-0.691938,0.073584,-0.711500,9.78920078277588,-2.48466682434082,0.28813552856445,2.91715836524963,3.57357335090637,1.59623456001282
466,3508925620,0.097924,-0.691937,0.073548,-0.711494,9.81096458435059,-2.46317696571350,0.30866530537605,3.65452265739441,3.31087684631348,1.48402547836304
467,3508942287,0.098043,-0.691952,0.073415,-0.711476,9.79527854919434,-2.45789337158203,0.31487977504730,4.13363409042358,3.13375258445740,1.19233524799347
468,3508958954,0.098190,-0.691980,0.073243,-0.711446,9.75701427459717,-2.41543221473694,0.34162032604218,4.40206861495972,2.98606991767883,1.14659106731415
469,3508975621,0.098319,-0.691984,0.073140,-0.711435,9.79880905151367,-2.41133642196655,0.31003892421722,4.17516517639160,3.19916749000549,1.39329266548157
470,3508992288,0.098426,-0.691975,0.073070,-0.711437,9.82386684417725,-2.41821241378784,0.32376787066460,3.73689293861389,3.40788507461548,1.42849719524384
471,3509008955,0.098391,-0.691985,0.073101,-0.711428,9.83003902435303,-2.40470194816589,0.33740219473839,2.79108047485352,3.34669661521912,1.22424888610840
472,3509025622,0.098321,-0.691998,0.073168,-0.711419,9.83098983764648,-2.42085814476013,0.33817079663277,2.16452932357788,3.43792891502380,1.21414446830750
473,3509042289,0.098200,-0.692011,0.073278,-0.711411,9.81793880462646,-2.46419763565063,0.32244327664375,2.15804886817932,3.38991737365723,1.17741572856903
474,3509058956,0.098158,-0.692031,0.073327,-0.711392,9.80562877655029,-2.47004580497742,0.32239231467247,2.65881586074829,3.25902414321899,1.28206944465637
475,3509075623,0.098172,-0.692022,0.073276,-0.711405,9.82000255584717,-2.47232580184937,0.31163153052330,3.57790231704712,3.42245888710022,1.07035493850708
476,3509092290,0.098217,-0.691984,0.073182,-0.711445,9.79193973541260,-2.43691229820251,0.31532832980156,4.16880035400391,3.60492396354675,1.01976978778839
477,3509108957,0.098244,-0.691966,0.073097,-0.711468,9.80579853057861,-2.40036273002625,0.29712322354317,3.93525099754333,3.45483326911926,0.97785460948944
478,3509125624,0.098233,-0.691973,0.073072,-0.711465,9.80948925018311,-2.39116358757019,0.31838119029999,3.15189933776855,3.34299540519714,1.07368445396423
479,3509142291,0.098172,-0.691988,0.073105,-0.711455,9.80809116363525,-2.39750623703003,0.29711750149727,2.61273884773254,3.33718109130859,1.09806776046753
480,3509158958,0.098084,-0.692016,0.073168,-0.711434,9.81945037841797,-2.42002224922180,0.30418506264687,2.32985877990723,3.25062274932861,1.11470305919647
481,3509175625,0.098011,-0.692041,0.073219,-0.711415,9.81727695465088,-2.40856766700745,0.32208466529846,2.46322441101074,3.26309633255005,1.13278555870056
482,3509192292,0.097970,-0.692069,0.073255,-0.711389,9.81438064575195,-2.42867541313171,0.32895964384079,2.68263578414917,3.19255924224854,1.22359549999237
483,3509208959,0.097943,-0.692095,0.073252,-0.711368,9.80904293060303,-2.43997716903687,0.34746664762497,2.94263052940369,3.18693733215332,1.09435379505157
484,3509225626,0.097911,-0.692107,0.073235,-0.711362,9.81782722473145,-2.45309472084045,0.35101911425591,2.98788833618164,3.32420873641968,1.00819265842438
485,3509242293,0.097896,-0.692118,0.073201,-0.711357,9.81239986419678,-2.46097087860107,0.32176291942596,3.16619110107422,3.31842017173767,1.00928139686584
486,3509258960,0.097863,-0.692125,0.073142,-0.711361,9.80878067016602,-2.44724917411804,0.31207707524300,3.28630232810974,3.34040904045105,0.79632461071014
487,3509275627,0.097835,-0.692134,0.073070,-0.711363,9.82188606262207,-2.42841315269470,0.32710093259811,3.30376982688904,3.33734774589539,0.75930136442184
488,3509292294,0.097821,-0.692136,0.072990,-0.711372,9.81228637695312,-2.40323185920715,0.34710863232613,3.13866996765137,3.46141576766968,0.78003489971161
489,3509308961,0.097801,-0.692120,0.072920,-0.711397,9.80131816864014,-2.42044901847839,0.31194958090782,3.16094017028809,3.61002016067505,0.80103719234467
490,3509325628,0.097771,-0.692111,0.072868,-0.711415,9.81155204772949,-2.40764713287354,0.31196916103363,3.21166586875916,3.51640582084656,0.84322130680084
491,3509342295,0.097749,-0.692087,0.072811,-0.711448,9.81853389739990,-2.40905189514160,0.30223429203033,3.29274272918701,3.64756822586060,0.85467010736465
492,3509358962,0.097717,-0.692069,0.072737,-0.711477,9.83635520935059,-2.42149162292480,0.31222808361053,3.31724119186401,3.59732913970947,0.72614556550980
493,3509375629,0.097699,-0.692058,0.072673,-0.711497,9.81586456298828,-2.41867089271545,0.31514811515808,3.33227634429932,3.52163100242615,0.84251701831818
494,3509392296,0.097669,-0.692053,0.072612,-0.711513,9.83937454223633,-2.40830898284912,0.29756143689156,3.25044345855713,3.47554063796997,0.80033278465271
495,3509408963,0.097661,-0.692044,0.072541,-0.711530,9.82846736907959,-2.41082930564880,0.30533912777901,3.37606143951416,3.49585199356079,0.86517143249512
496,3509425630,0.097639,-0.692044,0.072496,-0.711537,9.82558536529541,-2.38962030410767,0.30146557092667,3.37901926040649,3.37517738342285,0.92240285873413
497,3509442297,0.097648,-0.692040,0.072428,-0.711546,9.83038997650146,-2.39175844192505,0.32122248411179,3.46528339385986,3.41202163696289,0.95973336696625
498,3509458964,0.097574,-0.692037,0.072455,-0.711556,9.82720088958740,-2.38572597503662,0.31603288650513,3.23389816284180,3.36360120773315,1.02924644947052
499,3509475631,0.097503,-0.692050,0.072480,-0.711551,9.84187793731689,-2.42940282821655,0.31632605195045,2.75511980056763,3.33309578895569,1.01955199241638
500,3509492298,0.097431,-0.692075,0.072483,-0.711537,9.80716037750244,-2.42240762710571,0.32376492023468,2.77630162239075,3.22994089126587,0.90218174457550
501,3509508965,0.097379,-0.692080,0.072483,-0.711539,9.80215930938721,-2.42726182937622,0.31297031044960,2.77083349227905,3.43600821495056,0.98576885461807
502,3509525632,0.097377,-0.692086,0.072414,-0.711540,9.77669429779053,-2.42220497131348,0.33471351861954,3.40035510063171,3.33426141738892,0.90499919652939
503,3509542299,0.097387,-0.692089,0.072350,-0.711543,9.76879405975342,-2.38525891304016,0.33965283632278,3.42933583259583,3.36144900321960,0.98355323076248
504,3509558966,0.097384,-0.692080,0.072338,-0.711553,9.86565780639648,-2.41858410835266,0.29008093476295,3.53754949569702,3.38427019119263,1.18322992324829
505,3509575633,0.097391,-0.692056,0.072304,-0.711579,9.90265369415283,-2.43000125885010,0.30173420906067,3.40517067909241,3.59767532348633,1.11757194995880
506,3509592300,0.097307,-0.692071,0.072298,-0.711576,9.87312793731689,-2.38232707977295,0.34033575654030,2.75039458274841,3.33970427513123,0.80062741041183
507,3509608967,0.097184,-0.692107,0.072298,-0.711558,9.83640003204346,-2.41218543052673,0.33647498488426,2.34132146835327,3.23894405364990,0.63221114873886
508,3509625634,0.097138,-0.692125,0.072208,-0.711555,9.78480434417725,-2.45802855491638,0.29985955357552,2.88206887245178,3.36800575256348,0.57419824600220
509,3509642301,0.097133,-0.692140,0.072073,-0.711556,9.77813053131104,-2.45820450782776,0.30953934788704,3.71354651451111,3.24405312538147,0.56482404470444
510,3509658968,0.097242,-0.692114,0.071868,-0.711587,9.83727169036865,-2.41106796264648,0.32872185111046,4.65071535110474,3.48538923263550,0.79647821187973
511,3509675635,0.097368,-0.692064,0.071662,-0.711639,9.83577251434326,-2.38229870796204,0.33726215362549,4.72432613372803,3.70294308662415,0.87318807840347
512,3509692302,0.097386,-0.692035,0.071572,-0.711674,9.80561161041260,-2.32868599891663,0.33487579226494,3.71572422981262,3.63449406623840,0.89981263875961
513,3509708969,0.097337,-0.692024,0.071571,-0.711692,9.82065200805664,-2.32651162147522,0.32415583729744,2.73486018180847,3.60001945495605,0.98649883270264
514,3509725636,0.097226,-0.692016,0.071664,-0.711705,9.84347534179688,-2.37862014770508,0.32034993171692,2.17783498764038,3.60088992118835,1.14560496807098
515,3509742303,0.097156,-0.692007,0.071729,-0.711717,9.82530307769775,-2.41000866889954,0.33677250146866,2.35891699790955,3.60473132133484,1.20646047592163
516,3509758970,0.097116,-0.691988,0.071756,-0.711738,9.82053089141846,-2.42708086967468,0.34074795246124,3.06379103660583,3.56912946701050,1.17809462547302
517,3509775637,0.097162,-0.691997,0.071698,-0.711729,9.84136390686035,-2.42185378074646,0.31944149732590,3.56408381462097,3.25862669944763,1.19410240650177
518,3509792304,0.097217,-0.692012,0.071589,-0.711718,9.83054828643799,-2.40786933898926,0.31379759311676,3.92245697975159,3.16074800491333,1.00176405906677
519,3509808971,0.097308,-0.692025,0.071429,-0.711709,9.77082538604736,-2.38441300392151,0.30449256300926,4.09694385528564,3.19022846221924,0.91944473981857
520,3509825638,0.097432,-0.692004,0.071293,-0.711726,9.80453205108643,-2.38800835609436,0.29151600599289,4.08929824829102,3.50651979446411,1.19602346420288
521,3509842305,0.097474,-0.691960,0.071221,-0.711771,9.83876800537109,-2.39402866363525,0.31088674068451,3.99760484695435,3.69109749794006,1.10707056522369
522,3509858972,0.097438,-0.691950,0.071199,-0.711787,9.85916233062744,-2.34470582008362,0.34483563899994,3.09870147705078,3.51603531837463,0.96397244930267
523,3509875639,0.097339,-0.691948,0.071228,-0.711799,9.88138771057129,-2.36677455902100,0.32817938923836,2.47839999198914,3.53642201423645,0.88614809513092
524,3509892306,0.097236,-0.691954,0.071274,-0.711803,9.83947372436523,-2.41316890716553,0.31780469417572,2.36473107337952,3.48006176948547,0.95528972148895
525,3509908973,0.097171,-0.691977,0.071290,-0.711788,9.82341289520264,-2.42114233970642,0.32538414001465,2.67791008949280,3.26029181480408,0.99908733367920
526,3509925640,0.097163,-0.691977,0.071235,-0.711794,9.82793712615967,-2.41794729232788,0.34610545635223,3.31858634948730,3.39875435829163,0.94551849365234
527,3509942307,0.097199,-0.691959,0.071131,-0.711818,9.80911445617676,-2.38437724113464,0.33011823892593,3.79151272773743,3.51570224761963,0.91721647977829
528,3509958974,0.097228,-0.691949,0.071035,-0.711833,9.80821990966797,-2.37213468551636,0.34848105907440,3.70394253730774,3.45246458053589,0.92520761489868
529,3509975641,0.097220,-0.691939,0.071000,-0.711847,9.83281707763672,-2.34721732139587,0.33175301551819,3.23622822761536,3.49868178367615,1.03557264804840
530,3509992308,0.097176,-0.691930,0.070985,-0.711863,9.83585262298584,-2.35829353332520,0.31470298767090,2.95757555961609,3.53035283088684,0.95354819297791
531,3510008975,0.097106,-0.691936,0.071012,-0.711865,9.82550716400146,-2.37127399444580,0.30980068445206,2.61838603019714,3.43792843818665,1.02358591556549
532,3510025642,0.097035,-0.691953,0.071056,-0.711853,9.83572673797607,-2.39040827751160,0.34408932924271,2.51734423637390,3.32740974426270,1.10920917987823
533,3510042309,0.096974,-0.691979,0.071074,-0.711834,9.83404922485352,-2.39233684539795,0.33731475472450,2.67773079872131,3.23058104515076,1.03141069412231
534,3510058976,0.096956,-0.692004,0.071056,-0.711815,9.83714008331299,-2.39243125915527,0.33418962359428,3.06767201423645,3.18581056594849,1.07222461700439
535,3510075643,0.096966,-0.692017,0.070991,-0.711806,9.83494472503662,-2.39316439628601,0.34214651584625,3.42974519729614,3.24798464775085,0.98259264230728
536,3510092310,0.096914,-0.692021,0.070985,-0.711811,9.81383132934570,-2.39322257041931,0.35406777262688,3.57368898391724,3.25020051002502,0.98058229684830
537,3510108977,0.096917,-0.692025,0.070944,-0.711810,9.82097434997559,-2.37718915939331,0.32573053240776,3.43157649040222,3.31979012489319,1.06699931621552
538,3510125644,0.096906,-0.692028,0.070911,-0.711812,9.81355381011963,-2.38740754127502,0.33138197660446,3.19364786148071,3.38260579109192,1.03192305564880
539,3510142311,0.096908,-0.692029,0.070859,-0.711817,9.83372402191162,-2.38883066177368,0.31916892528534,3.11226367950439,3.44525456428528,0.99451565742493
540,3510158978,0.096887,-0.692021,0.070845,-0.711829,9.83510684967041,-2.39318704605103,0.32471826672554,2.96861481666565,3.52593445777893,1.07036769390106
541,3510175645,0.096831,-0.692010,0.070863,-0.711845,9.82140922546387,-2.39249300956726,0.31707197427750,3.03499031066895,3.50285744667053,1.06066036224365
542,3510192312,0.096773,-0.691991,0.070863,-0.711871,9.82697772979736,-2.38168931007385,0.32764059305191,3.28520035743713,3.53313112258911,0.96545791625977
543,3510208979,0.096769,-0.691987,0.070800,-0.711882,9.81541442871094,-2.35969662666321,0.33069229125977,3.38192629814148,3.43733930587769,0.92025148868561
544,3510225646,0.096773,-0.691986,0.070707,-0.711892,9.81851768493652,-2.36707377433777,0.30428725481033,3.42062759399414,3.42528867721558,0.81535476446152
545,3510242313,0.096693,-0.691970,0.070712,-0.711918,9.80396080017090,-2.36197137832642,0.32496151328087,3.31331014633179,3.49683809280396,0.88540536165237
546,3510258980,0.096677,-0.691979,0.070673,-0.711915,9.80332565307617,-2.34347200393677,0.32322537899017,3.18970346450806,3.32488751411438,0.98140192031860
547,3510275647,0.096652,-0.692007,0.070650,-0.711893,9.81570339202881,-2.36389589309692,0.32146373391151,3.05020380020142,3.15793085098267,1.01255965232849
548,3510292314,0.096631,-0.692028,0.070637,-0.711877,9.85032176971436,-2.36670994758606,0.31548732519150,3.02625632286072,3.22937774658203,1.07668113708496
549,3510308981,0.096616,-0.692050,0.070628,-0.711858,9.85438060760498,-2.35342025756836,0.31096133589745,3.03500270843506,3.20776033401489,1.13614106178284
550,3510325648,0.096579,-0.692083,0.070636,-0.711830,9.84742164611816,-2.36103725433350,0.33213666081429,2.75739932060242,3.14837694168091,1.10073137283325
551,3510342315,0.096518,-0.692116,0.070670,-0.711804,9.81325054168701,-2.36149501800537,0.31690225005150,2.74429845809937,3.13509726524353,1.11032330989838
552,3510358982,0.096429,-0.692140,0.070735,-0.711785,9.79535484313965,-2.36293029785156,0.34199810028076,2.65549921989441,3.19629859924316,1.12984025478363
553,3510375649,0.096403,-0.692149,0.070737,-0.711780,9.77453517913818,-2.38130879402161,0.34737816452980,3.10174965858459,3.31470632553101,1.13912498950958
554,3510392316,0.096469,-0.692143,0.070687,-0.711782,9.76484966278076,-2.37513971328735,0.33251777291298,3.57411170005798,3.39254331588745,1.32862055301666
555,3510408983,0.096627,-0.692124,0.070559,-0.711792,9.86698627471924,-2.37805986404419,0.30105912685394,4.33762645721436,3.41713118553162,1.40622711181641
556,3510425650,0.096752,-0.692123,0.070412,-0.711790,9.95817279815674,-2.35448527336121,0.27350518107414,4.08272886276245,3.32132697105408,1.14636051654816
557,3510442317,0.096729,-0.692166,0.070368,-0.711756,9.91285991668701,-2.31256103515625,0.31686905026436,2.93616294860840,3.06140947341919,0.91594862937927
558,3510458984,0.096508,-0.692230,0.070567,-0.711704,9.82885837554932,-2.31591582298279,0.36752843856812,1.20616590976715,3.03027677536011,1.12521708011627
559,3510475651,0.096361,-0.692262,0.070729,-0.711677,9.75707626342773,-2.42984604835510,0.31484004855156,1.39505994319916,3.33923053741455,1.29340302944183
560,3510492318,0.096272,-0.692248,0.070775,-0.711697,9.72169971466064,-2.46241617202759,0.31654843688011,2.96709060668945,3.51358914375305,1.03804445266724
561,3510508985,0.096409,-0.692211,0.070574,-0.711735,9.75630378723145,-2.39144158363342,0.31361272931099,4.65642738342285,3.59257841110229,0.94697850942612
562,3510525652,0.096592,-0.692146,0.070342,-0.711797,9.82189464569092,-2.33654642105103,0.33258539438248,5.17101287841797,3.77326345443726,1.02804267406464
563,3510542319,0.096720,-0.692117,0.070192,-0.711822,9.85078239440918,-2.29492592811584,0.29762217402458,4.35025310516357,3.53031349182129,1.15228974819183
564,3510558986,0.096691,-0.692132,0.070219,-0.711809,9.84607696533203,-2.28246450424194,0.28835222125053,3.08823895454407,3.22737979888916,1.23891198635101
565,3510575653,0.096640,-0.692168,0.070305,-0.711772,9.86028289794922,-2.30212640762329,0.27216932177544,2.17925643920898,3.18186521530151,1.40705907344818
566,3510592320,0.096558,-0.692204,0.070465,-0.711733,9.85223960876465,-2.37054204940796,0.31284424662590,1.87172520160675,3.18978047370911,1.61053967475891
567,3510608987,0.096509,-0.692254,0.070590,-0.711678,9.82982826232910,-2.38848543167114,0.30532217025757,2.17641353607178,3.00283336639404,1.61754465103149
568,3510625654,0.096486,-0.692302,0.070666,-0.711627,9.84166908264160,-2.39609980583191,0.33245298266411,2.56330609321594,2.98549270629883,1.50201833248138
569,3510642321,0.096478,-0.692338,0.070707,-0.711589,9.80079936981201,-2.38303875923157,0.33064928650856,2.92944002151489,3.04679727554321,1.41187453269958
570,3510658988,0.096492,-0.692365,0.070698,-0.711562,9.75417137145996,-2.37486004829407,0.30037915706635,3.20619821548462,3.11783409118652,1.27658843994141
571,3510675655,0.096611,-0.692350,0.070591,-0.711570,9.83896064758301,-2.42840623855591,0.29569029808044,4.07170200347900,3.41824507713318,1.32219159603119
572,3510692322,0.096745,-0.692321,0.070455,-0.711593,9.87485790252686,-2.41238117218018,0.32313883304596,4.37393188476562,3.50933670997620,1.24704396724701
573,3510708989,0.096813,-0.692310,0.070355,-0.711605,9.87052822113037,-2.32319426536560,0.35436433553696,3.82831764221191,3.43523955345154,1.09446907043457
574,3510725656,0.096811,-0.692314,0.070356,-0.711602,9.87181186676025,-2.33168983459473,0.30239394307137,3.01745820045471,3.38428306579590,1.24394488334656
575,3510742323,0.096749,-0.692326,0.070419,-0.711592,9.85389328002930,-2.36299514770508,0.31436899304390,2.31242966651917,3.40765428543091,1.23738789558411
576,3510758990,0.096658,-0.692338,0.070480,-0.711586,9.82366943359375,-2.39013051986694,0.32736808061600,2.26835036277771,3.41942334175110,1.08693897724152
577,3510775657,0.096599,-0.692304,0.070506,-0.711625,9.80927658081055,-2.39381575584412,0.32819220423698,2.88765287399292,3.75648665428162,1.07281351089478
578,3510792324,0.096641,-0.692242,0.070442,-0.711687,9.81634712219238,-2.38885331153870,0.29825049638748,3.54939579963684,3.96881628036499,1.12971234321594
579,3510808991,0.096724,-0.692188,0.070329,-0.711738,9.82055568695068,-2.37143540382385,0.28488987684250,3.79098725318909,3.87233304977417,1.09756839275360
580,3510825658,0.096746,-0.692158,0.070265,-0.711771,9.82434082031250,-2.35808372497559,0.29300880432129,3.56624889373779,3.64817094802856,1.04046487808228
581,3510842325,0.096718,-0.692138,0.070232,-0.711798,9.84150505065918,-2.34838223457336,0.31212565302849,3.13726139068604,3.62404346466064,0.94221448898315
582,3510858992,0.096649,-0.692126,0.070226,-0.711819,9.82816886901855,-2.36206865310669,0.29666239023209,2.85996556282043,3.57243394851685,0.87519890069962
583,3510875659,0.096580,-0.692113,0.070228,-0.711841,9.82343387603760,-2.35268235206604,0.29890969395638,2.72225904464722,3.62460684776306,0.90383392572403
584,3510892326,0.096504,-0.692110,0.070218,-0.711855,9.83111190795898,-2.36932086944580,0.32957011461258,2.81815290451050,3.49983477592468,0.82043892145157
585,3510908993,0.096460,-0.692111,0.070187,-0.711863,9.84173870086670,-2.38519334793091,0.33194461464882,3.08014535903931,3.42098641395569,0.88339483737946
586,3510925660,0.096442,-0.692106,0.070145,-0.711875,9.85370731353760,-2.39284849166870,0.32364574074745,3.26282739639282,3.45681786537170,0.94856631755829
587,3510942327,0.096402,-0.692089,0.070130,-0.711898,9.84222221374512,-2.37254595756531,0.34523934125900,3.26305818557739,3.53862524032593,0.97618967294693
588,3510958994,0.096350,-0.692073,0.070088,-0.711925,9.85224246978760,-2.35636854171753,0.35812309384346,3.11381316184998,3.59543418884277,0.78757780790329
589,3510975661,0.096291,-0.692051,0.070049,-0.711958,9.83773803710938,-2.38226723670959,0.34176552295685,2.89404344558716,3.69930696487427,0.75506240129471
590,3510992328,0.096200,-0.692009,0.070053,-0.712011,9.81363201141357,-2.38986563682556,0.33912429213524,2.99119210243225,3.83210849761963,0.80890035629272
591,3511008995,0.096141,-0.691970,0.070031,-0.712059,9.81581306457520,-2.37718248367310,0.33821758627892,3.21267795562744,3.77889776229858,0.85194247961044
592,3511025662,0.096153,-0.691916,0.069944,-0.712118,9.81541156768799,-2.35974383354187,0.35131517052650,3.63664555549622,3.88266801834106,0.87487870454788
593,3511042329,0.096195,-0.691850,0.069844,-0.712186,9.82714939117432,-2.35927009582520,0.36094436049461,3.84870576858521,3.96465420722961,0.95901644229889
594,3511058996,0.096239,-0.691792,0.069757,-0.712245,9.83486557006836,-2.32488560676575,0.31075358390808,3.78870773315430,3.88419198989868,1.03650772571564
595,3511075663,0.096252,-0.691740,0.069707,-0.712299,9.84001922607422,-2.32928848266602,0.32101038098335,3.45409083366394,3.87639355659485,1.06017386913300
596,3511092330,0.096242,-0.691710,0.069695,-0.712331,9.82908725738525,-2.34576940536499,0.31661754846573,3.13097357749939,3.70263624191284,1.13087749481201
597,3511108997,0.096212,-0.691689,0.069720,-0.712352,9.80137729644775,-2.34044718742371,0.32742208242416,2.83934760093689,3.63414859771729,1.21336352825165
598,3511125664,0.096175,-0.691666,0.069739,-0.712378,9.76731014251709,-2.34109807014465,0.32619675993919,2.84526419639587,3.66962170600891,1.14737224578857
599,3511142331,0.096172,-0.691660,0.069715,-0.712387,9.75590324401855,-2.34972500801086,0.32611528038979,3.19490265846252,3.46314406394958,1.11675202846527
600,3511158998,0.096196,-0.691644,0.069666,-0.712404,9.81954002380371,-2.35147500038147,0.31284621357918,3.46085214614868,3.51891636848450,1.12624168395996
601,3511175665,0.096229,-0.691624,0.069596,-0.712425,9.90401268005371,-2.36805438995361,0.29359313845634,3.63024163246155,3.53351545333862,1.06842100620270
602,3511192332,0.096224,-0.691640,0.069539,-0.712416,9.89052104949951,-2.33277630805969,0.31858569383621,3.32409334182739,3.24874067306519,0.94852799177170
603,3511208999,0.096110,-0.691684,0.069594,-0.712383,9.83895015716553,-2.32351899147034,0.36380386352539,2.22580790519714,3.11880755424500,0.94545453786850
604,3511225666,0.096020,-0.691709,0.069649,-0.712366,9.83043289184570,-2.39359116554260,0.32811850309372,2.36461544036865,3.27787470817566,1.06751167774200
605,3511242333,0.096000,-0.691704,0.069615,-0.712377,9.80457401275635,-2.41112160682678,0.32803052663803,3.16695976257324,3.46872854232788,0.98313081264496
606,3511259000,0.096057,-0.691697,0.069487,-0.712388,9.83377838134766,-2.38367557525635,0.35806360840797,3.98966503143311,3.37652230262756,0.91087734699249
607,3511275667,0.096141,-0.691678,0.069345,-0.712409,9.83140087127686,-2.32745242118835,0.36896717548370,4.20391464233398,3.46965003013611,0.97232216596603
608,3511292334,0.096221,-0.691650,0.069267,-0.712433,9.83417510986328,-2.30740213394165,0.35194802284241,3.87467718124390,3.55984568595886,1.26342344284058
609,3511309001,0.096190,-0.691641,0.069313,-0.712441,9.84796142578125,-2.30397772789001,0.33033454418182,3.15009307861328,3.42443108558655,1.32657146453857
610,3511325668,0.096147,-0.691638,0.069422,-0.712439,9.83098506927490,-2.28903555870056,0.34562155604362,2.50178456306458,3.46464252471924,1.55781567096710
611,3511342335,0.096092,-0.691633,0.069559,-0.712438,9.83875083923340,-2.32891678810120,0.34243029356003,2.15781831741333,3.53761315345764,1.63368034362793
612,3511359002,0.096050,-0.691623,0.069716,-0.712438,9.84149742126465,-2.35491871833801,0.34710156917572,2.12193560600281,3.58033585548401,1.79338848590851
613,3511375669,0.096020,-0.691627,0.069804,-0.712430,9.83761787414551,-2.39347290992737,0.33791220188141,2.50011944770813,3.41184186935425,1.51691210269928
614,3511392336,0.096024,-0.691662,0.069814,-0.712394,9.77411270141602,-2.39548873901367,0.35912784934044,3.01887965202332,3.06599402427673,1.31759405136108
615,3511409003,0.096084,-0.691703,0.069774,-0.712350,9.76624584197998,-2.37192654609680,0.33619984984398,3.47519588470459,2.94980239868164,1.35886931419373
616,3511425670,0.096194,-0.691721,0.069677,-0.712328,9.82684707641602,-2.36381912231445,0.30794262886047,4.06486368179321,3.09487223625183,1.32795453071594
617,3511442337,0.096322,-0.691713,0.069563,-0.712329,9.86256694793701,-2.37729215621948,0.31700283288956,4.25377035140991,3.30736827850342,1.33237266540527
618,3511459004,0.096357,-0.691709,0.069494,-0.712335,9.87475585937500,-2.32398605346680,0.34770491719246,3.59960913658142,3.39132666587830,1.08789944648743
619,3511475671,0.096310,-0.691710,0.069502,-0.712339,9.87318897247314,-2.31270766258240,0.34758985042572,2.82122659683228,3.44419121742249,1.04740583896637
620,3511492338,0.096193,-0.691748,0.069591,-0.712310,9.84754562377930,-2.34904217720032,0.34758728742599,2.05239748954773,3.19681143760681,1.09640300273895
621,3511509005,0.096067,-0.691801,0.069708,-0.712264,9.81497573852539,-2.39050769805908,0.35168337821960,1.85803472995758,3.05944967269897,1.19099044799805
622,3511525672,0.096032,-0.691823,0.069734,-0.712245,9.80715656280518,-2.39301514625549,0.34213009476662,2.76991105079651,3.24046754837036,1.19654846191406
623,3511542339,0.096102,-0.691808,0.069633,-0.712259,9.81046581268311,-2.40105676651001,0.33639088273048,3.78809332847595,3.47554159164429,1.10053944587708
624,3511559006,0.096216,-0.691784,0.069496,-0.712281,9.81311798095703,-2.34817504882812,0.32008704543114,4.14903974533081,3.51947975158691,1.14405536651611
625,3511575673,0.096263,-0.691765,0.069420,-0.712301,9.85480308532715,-2.30843901634216,0.33831375837326,3.70750260353088,3.52136230468750,1.10877382755280
626,3511592340,0.096221,-0.691767,0.069423,-0.712303,9.84744071960449,-2.32642769813538,0.30838778614998,2.86618971824646,3.42649269104004,1.04969823360443
627,3511609007,0.096132,-0.691787,0.069485,-0.712290,9.86510753631592,-2.32960939407349,0.30130603909492,2.34059119224548,3.32438755035400,1.10456049442291
628,3511625674,0.096045,-0.691822,0.069567,-0.712260,9.84990787506104,-2.35210561752319,0.32812505960464,2.23317170143127,3.18331313133240,1.21167290210724
629,3511642341,0.095984,-0.691860,0.069632,-0.712225,9.82262325286865,-2.34908366203308,0.32919278740883,2.43855953216553,3.12372493743896,1.25946593284607
630,3511659008,0.095966,-0.691890,0.069645,-0.712197,9.82592773437500,-2.36140298843384,0.35016253590584,2.89693737030029,3.14311361312866,1.22445344924927
631,3511675675,0.095958,-0.691916,0.069626,-0.712175,9.83397388458252,-2.34652352333069,0.34259143471718,3.11076498031616,3.15964651107788,1.11588120460510
632,3511692342,0.095974,-0.691940,0.069581,-0.712154,9.82387256622314,-2.37752342224121,0.34552294015884,3.35832476615906,3.15088748931885,1.11383235454559
633,3511709009,0.095994,-0.691948,0.069541,-0.712147,9.82463741302490,-2.35258769989014,0.35675159096718,3.36988830566406,3.28989982604980,1.15044558048248
634,3511725676,0.095986,-0.691953,0.069520,-0.712145,9.84796142578125,-2.34182310104370,0.36036717891693,3.14552164077759,3.36270427703857,1.10495758056641
635,3511742343,0.095971,-0.691949,0.069538,-0.712150,9.85108852386475,-2.34134650230408,0.35843595862389,2.93177103996277,3.46384930610657,1.25442063808441
636,3511759010,0.095951,-0.691946,0.069549,-0.712154,9.85157489776611,-2.34518551826477,0.34346047043800,2.94215703010559,3.45114541053772,1.20117175579071
637,3511775677,0.095958,-0.691943,0.069555,-0.712155,9.85200595855713,-2.33821511268616,0.31008878350258,3.08864903450012,3.42340707778931,1.30444240570068
638,3511792344,0.095971,-0.691937,0.069549,-0.712160,9.84929847717285,-2.35522937774658,0.31441062688828,3.27188181877136,3.42963027954102,1.28479707241058
639,3511809011,0.096040,-0.691942,0.069472,-0.712153,9.84422206878662,-2.33557820320129,0.33402457833290,3.30835366249084,3.37725186347961,1.20306682586670
640,3511825678,0.096044,-0.691943,0.069464,-0.712152,9.83299064636230,-2.32670712471008,0.33309990167618,3.11866664886475,3.39094233512878,1.22688686847687
641,3511842345,0.096015,-0.691940,0.069487,-0.712157,9.83031940460205,-2.34167098999023,0.33444920182228,2.79816198348999,3.48637580871582,1.20525693893433
642,3511859012,0.095901,-0.691933,0.069589,-0.712169,9.85205078125000,-2.36312961578369,0.31070151925087,2.75583720207214,3.44098997116089,1.19274520874023
643,3511875679,0.095895,-0.691944,0.069582,-0.712160,9.81690406799316,-2.34452509880066,0.33131524920464,2.99917078018188,3.32340192794800,1.17920875549316
644,3511892346,0.095865,-0.691943,0.069604,-0.712163,9.80956840515137,-2.35124897956848,0.35089108347893,3.20025610923767,3.35753107070923,1.21515631675720
645,3511909013,0.095892,-0.691968,0.069565,-0.712138,9.77577781677246,-2.32251095771790,0.35020881891251,3.37338519096375,3.12688827514648,1.19634366035461
646,3511925680,0.095904,-0.691978,0.069556,-0.712128,9.81282424926758,-2.30169725418091,0.33387714624405,3.18020129203796,3.29248738288879,1.26462709903717
647,3511942347,0.095931,-0.691956,0.069581,-0.712143,9.89546871185303,-2.36244988441467,0.30160707235336,3.10707616806030,3.58584165573120,1.49232375621796
648,3511959014,0.095904,-0.691953,0.069603,-0.712148,9.88995170593262,-2.35380983352661,0.32046008110046,2.85923552513123,3.46664071083069,1.21903657913208
649,3511975681,0.095883,-0.691998,0.069597,-0.712108,9.86394786834717,-2.32546138763428,0.35831764340401,2.08922815322876,3.21457338333130,1.08390402793884
650,3511992348,0.095790,-0.692016,0.069662,-0.712096,9.85117435455322,-2.38379454612732,0.33043062686920,2.30811405181885,3.34814357757568,1.10100030899048
651,3512009015,0.095803,-0.692016,0.069622,-0.712098,9.77197742462158,-2.39915442466736,0.35529711842537,3.35448193550110,3.37625312805176,1.11898040771484
652,3512025682,0.095936,-0.692025,0.069476,-0.712086,9.79037857055664,-2.35289287567139,0.33867442607880,4.41779375076294,3.14486813545227,1.20493674278259
653,3512042349,0.096117,-0.692009,0.069318,-0.712092,9.85445976257324,-2.31769466400146,0.35070881247520,4.81623888015747,3.29772520065308,1.38331651687622
654,3512059016,0.096238,-0.691985,0.069245,-0.712107,9.86756801605225,-2.29242396354675,0.32477110624313,4.02512598037720,3.48722100257874,1.49605083465576
655,3512075683,0.096203,-0.691995,0.069325,-0.712094,9.83851432800293,-2.27584791183472,0.32592219114304,2.51359224319458,3.35973334312439,1.45362317562103
656,3512092350,0.096116,-0.692029,0.069481,-0.712057,9.82675361633301,-2.30740761756897,0.34207507967949,1.41542208194733,3.31725502014160,1.55923736095428
657,3512109017,0.095960,-0.692046,0.069731,-0.712037,9.81757926940918,-2.38765859603882,0.30042588710785,1.26124632358551,3.42089653015137,1.67455852031708
658,3512125684,0.095884,-0.692073,0.069867,-0.712008,9.84380435943604,-2.41941118240356,0.31364074349403,2.02570843696594,3.26272487640381,1.52706742286682
659,3512142351,0.095901,-0.692097,0.069870,-0.711982,9.84723758697510,-2.39662790298462,0.34879127144814,3.12326431274414,3.15196299552917,1.34941792488098
660,3512159018,0.095980,-0.692122,0.069774,-0.711956,9.85895538330078,-2.38753652572632,0.34440183639526,3.90255594253540,3.05925774574280,1.18233346939087
661,3512175685,0.096055,-0.692164,0.069637,-0.711918,9.80003166198730,-2.35857987403870,0.34065970778465,4.06884670257568,2.88685894012451,0.96471512317657
662,3512192352,0.096109,-0.692188,0.069545,-0.711897,9.79637145996094,-2.33349776268005,0.32520386576653,3.83077621459961,3.08005499839783,1.07345390319824
663,3512209019,0.096184,-0.692175,0.069473,-0.711907,9.86644268035889,-2.36083412170410,0.30421501398087,3.54269766807556,3.50032138824463,1.26082372665405
664,3512225686,0.096171,-0.692157,0.069488,-0.711924,9.87169647216797,-2.33415675163269,0.35594487190247,3.03981757164001,3.57308673858643,1.25215363502502
665,3512242353,0.096086,-0.692144,0.069574,-0.711940,9.88836860656738,-2.32796955108643,0.33203187584877,2.27661037445068,3.63859176635742,1.23606896400452
666,3512259020,0.096002,-0.692142,0.069684,-0.711942,9.87607765197754,-2.36276173591614,0.32419723272324,2.32946228981018,3.48952555656433,1.36026489734650
667,3512275687,0.095966,-0.692160,0.069756,-0.711923,9.85853576660156,-2.36746597290039,0.32417178153992,2.54113841056824,3.29144978523254,1.41653609275818
668,3512292354,0.095997,-0.692145,0.069752,-0.711934,9.81492519378662,-2.35938858985901,0.32470634579659,3.20735025405884,3.52565240859985,1.37428796291351
669,3512309021,0.096117,-0.692110,0.069658,-0.711961,9.78403377532959,-2.35970616340637,0.30691355466843,3.89908576011658,3.64172935485840,1.37812983989716
670,3512325688,0.096200,-0.692077,0.069590,-0.711988,9.79798412322998,-2.31900572776794,0.31210446357727,3.78772211074829,3.62760400772095,1.31942570209503
671,3512342355,0.096198,-0.692043,0.069596,-0.712020,9.81385803222656,-2.31365585327148,0.29897826910019,3.24246573448181,3.68352913856506,1.26369225978851
672,3512359022,0.096176,-0.692028,0.069640,-0.712034,9.81853389739990,-2.34113693237305,0.32470190525055,2.74081540107727,3.59598541259766,1.34398818016052
673,3512375689,0.096129,-0.692031,0.069705,-0.712031,9.82955551147461,-2.33073687553406,0.31460064649582,2.57087469100952,3.42644143104553,1.32625126838684
674,3512392356,0.096095,-0.692046,0.069766,-0.712015,9.83367061614990,-2.34527444839478,0.30614265799522,2.64946722984314,3.30530571937561,1.37153422832489
675,3512409023,0.096113,-0.692065,0.069778,-0.711993,9.84694194793701,-2.35299634933472,0.32356494665146,2.94539666175842,3.23902082443237,1.39134597778320
676,3512425690,0.096134,-0.692093,0.069797,-0.711961,9.86748695373535,-2.36874675750732,0.33126965165138,3.18787217140198,3.08517789840698,1.45171511173248
677,3512442357,0.096162,-0.692103,0.069789,-0.711948,9.87585544586182,-2.37629938125610,0.33621063828468,3.24639701843262,3.27276563644409,1.34720265865326
678,3512459024,0.096111,-0.692097,0.069868,-0.711953,9.84915733337402,-2.36880230903625,0.35062849521637,2.99593067169189,3.40044522285461,1.38501965999603
679,3512475691,0.096070,-0.692094,0.069904,-0.711958,9.83017826080322,-2.37689423561096,0.36262023448944,2.84240770339966,3.45030021667480,1.21938228607178
680,3512492358,0.096016,-0.692085,0.069954,-0.711969,9.83156108856201,-2.36441802978516,0.34815105795860,2.77315115928650,3.51700854301453,1.22278881072998
681,3512509025,0.096022,-0.692057,0.069962,-0.711994,9.82990169525146,-2.37857913970947,0.36570703983307,3.04412055015564,3.67170858383179,1.30500555038452
682,3512525692,0.096044,-0.692022,0.069936,-0.712028,9.83214282989502,-2.35987615585327,0.33608484268188,3.22468996047974,3.74557590484619,1.22155928611755
683,3512542359,0.096079,-0.691977,0.069913,-0.712069,9.83159351348877,-2.36201834678650,0.35253277420998,3.41250824928284,3.78268909454346,1.29659175872803
684,3512559026,0.096086,-0.691929,0.069915,-0.712115,9.85213661193848,-2.35163974761963,0.32044282555580,3.31954693794250,3.81498646736145,1.29004788398743
685,3512575693,0.096065,-0.691889,0.069924,-0.712155,9.85039138793945,-2.34668374061584,0.33655631542206,3.05526208877563,3.78816938400269,1.17753100395203
686,3512592360,0.096030,-0.691849,0.069954,-0.712196,9.83690547943115,-2.36352467536926,0.33003669977188,2.89362025260925,3.81453776359558,1.21536111831665
687,3512609027,0.095998,-0.691828,0.069965,-0.712220,9.81921195983887,-2.35952925682068,0.32675355672836,2.96807670593262,3.62216114997864,1.13507819175720
688,3512625694,0.096018,-0.691822,0.069910,-0.712229,9.83381748199463,-2.36326217651367,0.33628222346306,3.27658128738403,3.47552824020386,1.06939435005188
689,3512642361,0.096018,-0.691818,0.069892,-0.712234,9.82455253601074,-2.35874509811401,0.31961455941200,3.43899130821228,3.37481880187988,1.16619741916656
690,3512659028,0.096061,-0.691819,0.069820,-0.712234,9.82146644592285,-2.35999894142151,0.31185123324394,3.22773814201355,3.42983484268188,1.10070574283600
691,3512675695,0.096046,-0.691823,0.069812,-0.712233,9.82065677642822,-2.34509754180908,0.32125809788704,3.09012150764465,3.37113094329834,1.13552629947662
692,3512692362,0.096038,-0.691800,0.069819,-0.712256,9.81865501403809,-2.35791611671448,0.32083866000175,2.76352071762085,3.70280265808105,1.22114956378937
693,3512709029,0.095968,-0.691777,0.069831,-0.712287,9.78681373596191,-2.36515259742737,0.36343899369240,3.05558204650879,3.61862611770630,0.96384429931641
694,3512725696,0.095957,-0.691785,0.069812,-0.712282,9.78521919250488,-2.33819794654846,0.34117892384529,3.12007570266724,3.33600354194641,1.10100042819977
695,3512742363,0.095979,-0.691767,0.069776,-0.712300,9.89455604553223,-2.36761355400085,0.33600389957428,3.48745107650757,3.51917243003845,1.18156516551971
696,3512759030,0.096028,-0.691749,0.069693,-0.712319,9.92687797546387,-2.36538147926331,0.31622365117073,3.73602271080017,3.50041127204895,1.08526158332825
697,3512775697,0.096002,-0.691764,0.069651,-0.712312,9.88152217864990,-2.33896231651306,0.37901556491852,3.06764626502991,3.30633091926575,0.91032665967941
698,3512792364,0.095883,-0.691777,0.069698,-0.712310,9.83941841125488,-2.35836863517761,0.35525730252266,2.38819217681885,3.39240193367004,0.88239586353302
699,3512809031,0.095846,-0.691765,0.069678,-0.712329,9.77999782562256,-2.41418361663818,0.34815531969070,2.92275524139404,3.58157753944397,0.95584034919739
700,3512825698,0.095886,-0.691754,0.069576,-0.712344,9.80259704589844,-2.38754773139954,0.36818516254425,3.82219600677490,3.43084692955017,0.95762062072754
701,3512842365,0.096047,-0.691724,0.069387,-0.712371,9.85845184326172,-2.35893511772156,0.34702900052071,4.57818126678467,3.53333616256714,1.12316811084747
702,3512859032,0.096165,-0.691678,0.069265,-0.712411,9.88651371002197,-2.29724931716919,0.34641179442406,4.44432878494263,3.64292025566101,1.24041044712067
703,3512875699,0.096235,-0.691655,0.069221,-0.712429,9.85240554809570,-2.27060151100159,0.34719792008400,3.54893422126770,3.56784963607788,1.37396764755249
704,3512892366,0.096156,-0.691650,0.069363,-0.712430,9.83911895751953,-2.27992868423462,0.34939223527908,2.51591014862061,3.43707108497620,1.55160474777222
705,3512909033,0.096106,-0.691649,0.069522,-0.712422,9.84566688537598,-2.32838702201843,0.31654277443886,2.06712436676025,3.50439381599426,1.76080918312073
706,3512925700,0.096083,-0.691638,0.069651,-0.712423,9.83674049377441,-2.38870167732239,0.31116068363190,2.35244989395142,3.55733561515808,1.74919390678406
707,3512942367,0.096111,-0.691631,0.069709,-0.712420,9.85018444061279,-2.41111207008362,0.30333086848259,2.93871140480042,3.44630384445190,1.66134202480316
708,3512959034,0.096146,-0.691648,0.069698,-0.712400,9.83599948883057,-2.38807892799377,0.34011960029602,3.28406095504761,3.19943642616272,1.36738526821136
709,3512975701,0.096186,-0.691680,0.069646,-0.712369,9.78278923034668,-2.38147401809692,0.34925311803818,3.49568605422974,3.04855203628540,1.20797193050385
710,3512992368,0.096255,-0.691700,0.069594,-0.712345,9.77772712707520,-2.36943936347961,0.33430644869804,3.65973448753357,3.12095832824707,1.33630406856537
711,3513009035,0.096311,-0.691687,0.069571,-0.712353,9.82986259460449,-2.38890457153320,0.31553882360458,3.99903917312622,3.32774329185486,1.42954730987549
712,3513025702,0.096411,-0.691663,0.069454,-0.712373,9.84008026123047,-2.34187316894531,0.34835213422775,4.02264118194580,3.52762460708618,1.16974472999573
713,3513042369,0.096323,-0.691650,0.069503,-0.712393,9.86293220520020,-2.29991269111633,0.35812571644783,3.01613903045654,3.49399495124817,1.05863702297211
714,3513059036,0.096271,-0.691649,0.069548,-0.712397,9.86707496643066,-2.33316063880920,0.34399455785751,2.35880136489868,3.54761528968811,1.19455063343048
715,3513075703,0.096162,-0.691671,0.069662,-0.712379,9.82346343994141,-2.36996269226074,0.33490279316902,2.03572297096252,3.32922816276550,1.25554728507996
716,3513092370,0.096097,-0.691687,0.069710,-0.712368,9.82141304016113,-2.38405466079712,0.32416465878487,2.45888352394104,3.34364843368530,1.15647745132446
717,3513109037,0.096120,-0.691664,0.069665,-0.712391,9.81036663055420,-2.39267659187317,0.32181113958359,3.41627335548401,3.59006834030151,1.13259375095367
718,3513125704,0.096161,-0.691628,0.069593,-0.712428,9.81405925750732,-2.35960865020752,0.32312616705894,3.78359818458557,3.66073417663574,1.10157692432404
719,3513142371,0.096179,-0.691609,0.069548,-0.712447,9.83825206756592,-2.31430721282959,0.32293790578842,3.60672926902771,3.50392031669617,1.12310421466827
720,3513159038,0.096183,-0.691601,0.069512,-0.712458,9.85470294952393,-2.32034969329834,0.31719276309013,3.25725626945496,3.47783279418945,1.08303296566010
721,3513175705,0.096118,-0.691605,0.069545,-0.712460,9.83389377593994,-2.33990240097046,0.33406654000282,2.87352752685547,3.37999296188354,1.08994853496552
722,3513192372,0.096075,-0.691612,0.069570,-0.712457,9.84423446655273,-2.35654711723328,0.33689931035042,2.62970685958862,3.42110085487366,1.15076565742493
723,3513209039,0.095994,-0.691622,0.069619,-0.712453,9.84719944000244,-2.35618305206299,0.35991093516350,2.57567739486694,3.37936544418335,1.07779526710510
724,3513225706,0.095952,-0.691627,0.069644,-0.712451,9.83895301818848,-2.37243866920471,0.36357754468918,2.72597241401672,3.41034412384033,1.15660572052002
725,3513242373,0.095957,-0.691631,0.069611,-0.712450,9.84189319610596,-2.36580467224121,0.35162806510925,3.06444478034973,3.40400528907776,1.10805690288544
726,3513259040,0.095960,-0.691612,0.069575,-0.712472,9.85124778747559,-2.37439227104187,0.36410313844681,3.43654561042786,3.54245448112488,1.08646523952484
727,3513275707,0.095975,-0.691592,0.069539,-0.712493,9.85148239135742,-2.35077738761902,0.37318626046181,3.53885626792908,3.52685666084290,1.14949810504913
728,3513292374,0.095992,-0.691578,0.069485,-0.712509,9.83182144165039,-2.32729530334473,0.37318447232246,3.40960073471069,3.50750589370728,1.06191527843475
729,3513309041,0.096015,-0.691568,0.069457,-0.712518,9.83318233489990,-2.34200716018677,0.35998278856277,3.16967391967773,3.51184678077698,1.21769165992737
730,3513325708,0.096008,-0.691545,0.069440,-0.712543,9.82240200042725,-2.36336803436279,0.37439566850662,3.05399394035339,3.65221691131592,1.11959517002106
731,3513342375,0.096007,-0.691511,0.069419,-0.712578,9.83492469787598,-2.36949515342712,0.34038269519806,3.07544493675232,3.75730586051941,1.13010919094086
732,3513359042,0.096012,-0.691481,0.069395,-0.712610,9.83176136016846,-2.37127661705017,0.33862969279289,3.26250743865967,3.68547534942627,1.15153431892395
733,3513375709,0.096031,-0.691443,0.069339,-0.712649,9.84404087066650,-2.35251951217651,0.32532986998558,3.37437081336975,3.75425839424133,1.05546104907990
734,3513392376,0.096038,-0.691414,0.069275,-0.712682,9.83921909332275,-2.32941842079163,0.34350314736366,3.36556005477905,3.68598794937134,0.96230769157410
735,3513409043,0.096045,-0.691386,0.069238,-0.712712,9.83086872100830,-2.32229065895081,0.32489177584648,3.30360317230225,3.66084909439087,1.09253537654877
736,3513425710,0.096017,-0.691378,0.069234,-0.712724,9.81792640686035,-2.31587600708008,0.32750010490417,3.23013257980347,3.44841670989990,1.09500682353973
737,3513442377,0.096046,-0.691368,0.069175,-0.712735,9.83381652832031,-2.32687807083130,0.34170818328857,3.34061336517334,3.49505805969238,1.10092353820801
738,3513459044,0.096035,-0.691363,0.069157,-0.712744,9.84458827972412,-2.32370233535767,0.34049865603447,3.10708975791931,3.47021412849426,1.09925889968872
739,3513475711,0.095985,-0.691366,0.069184,-0.712744,9.85424804687500,-2.31743955612183,0.33952170610428,2.85663604736328,3.39436149597168,1.12981474399567
740,3513492378,0.095938,-0.691376,0.069210,-0.712739,9.83491706848145,-2.33496856689453,0.34982660412788,2.66683244705200,3.38379621505737,1.13406622409821
741,3513509045,0.095871,-0.691367,0.069239,-0.712754,9.83364009857178,-2.36600112915039,0.35100376605988,2.62156248092651,3.56969332695007,1.05421876907349
742,3513525712,0.095784,-0.691365,0.069286,-0.712763,9.78248310089111,-2.34566116333008,0.35642534494400,2.76285481452942,3.45102977752686,1.04612517356873
743,3513542379,0.095786,-0.691348,0.069233,-0.712784,9.77335166931152,-2.33517646789551,0.37488749623299,3.18280029296875,3.59987759590149,0.99164688587189
744,3513559046,0.095819,-0.691325,0.069180,-0.712807,9.76453113555908,-2.33017992973328,0.39005637168884,3.52110624313354,3.57557177543640,1.15003597736359
745,3513575713,0.095885,-0.691280,0.069112,-0.712848,9.85107612609863,-2.33698654174805,0.32952991127968,3.95493435859680,3.70437788963318,1.24247217178345
746,3513592380,0.095903,-0.691236,0.069088,-0.712891,9.94724845886230,-2.32241010665894,0.30355447530746,3.75071144104004,3.69126391410828,1.22199475765228
747,3513609047,0.095818,-0.691232,0.069116,-0.712904,9.92708969116211,-2.28022146224976,0.33648756146431,3.05317497253418,3.42276668548584,0.97633063793182
748,3513625714,0.095618,-0.691282,0.069300,-0.712864,9.84209442138672,-2.27704119682312,0.35181155800819,1.37321186065674,3.13727378845215,1.14986932277679
749,3513642381,0.095442,-0.691324,0.069499,-0.712827,9.78537273406982,-2.37416720390320,0.34319189190865,1.22531139850616,3.23643326759338,1.33038759231567
750,3513659048,0.095398,-0.691331,0.069517,-0.712824,9.74323749542236,-2.40437865257263,0.34539434313774,2.73033952713013,3.39935612678528,1.11218035221100
751,3513675715,0.095493,-0.691326,0.069358,-0.712832,9.76416301727295,-2.37419199943542,0.36285236477852,4.32310438156128,3.31808733940125,0.95292055606842
752,3513692382,0.095702,-0.691306,0.069159,-0.712843,9.81694793701172,-2.29043173789978,0.35558632016182,5.06665277481079,3.31611466407776,1.32193541526794
753,3513709049,0.095868,-0.691300,0.069030,-0.712838,9.83891582489014,-2.26257157325745,0.35422545671463,4.51231813430786,3.24705028533936,1.45230412483215
754,3513725716,0.095928,-0.691329,0.069023,-0.712803,9.84684562683105,-2.23201131820679,0.34399998188019,3.36910796165466,3.06135821342468,1.51303207874298
755,3513742383,0.095890,-0.691367,0.069148,-0.712759,9.86041164398193,-2.26882433891296,0.35205626487732,2.24307060241699,3.10682010650635,1.66481268405914
756,3513759050,0.095802,-0.691412,0.069370,-0.712706,9.87825393676758,-2.32812523841858,0.34743607044220,1.52480113506317,3.12295699119568,1.88159894943237
757,3513775717,0.095723,-0.691458,0.069595,-0.712651,9.86474895477295,-2.39548015594482,0.33380761742592,1.55437076091766,3.10072517395020,1.93970119953156
758,3513792384,0.095687,-0.691503,0.069728,-0.712598,9.85829353332520,-2.42160367965698,0.32413396239281,2.21015810966492,3.03145480155945,1.71327185630798
759,3513809051,0.095691,-0.691556,0.069746,-0.712544,9.80567264556885,-2.40558791160583,0.33891430497169,2.95372056961060,2.90026664733887,1.36090505123138
760,3513825718,0.095746,-0.691578,0.069702,-0.712520,9.76313304901123,-2.37402296066284,0.32299047708511,3.53768992424011,3.12186789512634,1.31400823593140
761,3513842385,0.095875,-0.691571,0.069585,-0.712521,9.83431529998779,-2.37663984298706,0.30488941073418,4.27980613708496,3.30553722381592,1.32073175907135
762,3513859052,0.096006,-0.691533,0.069434,-0.712555,9.86218738555908,-2.35984849929810,0.32622700929642,4.60052776336670,3.56513428688049,1.16676104068756
763,3513875719,0.096061,-0.691505,0.069368,-0.712581,9.85262012481689,-2.29815578460693,0.35420843958855,3.70216226577759,3.58912062644958,1.19809818267822
764,3513892386,0.096012,-0.691481,0.069413,-0.712606,9.86852645874023,-2.28553891181946,0.34652480483055,2.66440033912659,3.69584965705872,1.21245419979095
765,3513909053,0.095885,-0.691493,0.069549,-0.712598,9.84707927703857,-2.33852529525757,0.34451481699944,1.80392789840698,3.45182323455811,1.27046668529510
766,3513925720,0.095732,-0.691517,0.069696,-0.712581,9.81012344360352,-2.35809421539307,0.32891422510147,1.61025786399841,3.38095402717590,1.18985092639923
767,3513942387,0.095668,-0.691517,0.069751,-0.712585,9.79712295532227,-2.38501214981079,0.36536312103271,2.51617908477783,3.48491549491882,1.18880057334900
