sep=,
DeviceTag:,C
FirmwareVersion:,3.0.0
AppVersion:,2023.6.0
StartTime: ,2024-03-14_11:53:59_000 EDT
© Movella Technologies B. V. 2005-2024

PacketCounter,SampleTimeFine,Quat_W,Quat_X,Quat_Y,Quat_Z,Acc_X,Acc_Y,Acc_Z,Gyr_X,Gyr_Y,Gyr_Z
0,3501142131,0.616550,0.392028,-0.582812,0.355683,0.00000000000000,0.00000000000000,0.00000000000000,0.00000000000000,0.00000000000000,0.00000000000000
1,3501158798,0.616405,0.392130,-0.582872,0.355723,9.84396648406982,0.67188191413879,0.11088215559721,1.86667275428772,-1.02864456176758,0.61637604236603
2,3501175465,0.616277,0.392160,-0.582983,0.355731,9.85860347747803,0.70415461063385,0.09449786692858,1.33839797973633,-1.08152198791504,0.86866104602814
3,3501192132,0.616156,0.392154,-0.583124,0.355714,9.89414882659912,0.71454274654388,0.11125859618187,0.94475644826889,-1.15852630138397,0.96910142898560
4,3501208799,0.616031,0.392155,-0.583244,0.355732,9.89843082427979,0.72876709699631,0.11721429973841,1.16446185112000,-1.01372480392456,1.04041969776154
5,3501225466,0.615915,0.392142,-0.583380,0.355726,9.90337753295898,0.71169078350067,0.16935862600803,0.96057230234146,-1.07753908634186,1.01461505889893
6,3501242133,0.615838,0.392097,-0.583472,0.355758,9.92765331268311,0.68621140718460,0.15367570519447,0.96587401628494,-0.54994302988052,1.09112024307251
7,3501258800,0.615757,0.392067,-0.583526,0.355841,9.93976688385010,0.65045827627182,0.00961888022721,1.35147333145142,-0.30381786823273,1.15695774555206
8,3501275467,0.615696,0.392017,-0.583610,0.355865,9.88771629333496,0.76396948099136,0.13959322869778,0.87639611959457,-0.46164324879646,1.01481986045837
9,3501292134,0.615642,0.391882,-0.583789,0.355814,9.91796016693115,0.70274686813354,0.16999059915543,-0.04541131854057,-0.83754813671112,1.28371489048004
10,3501308801,0.615630,0.391709,-0.583922,0.355807,9.96192073822021,0.70842128992081,0.18530842661858,0.00704989489168,-0.25172162055969,1.39169800281525
11,3501325468,0.615653,0.391616,-0.583963,0.355801,9.89776706695557,0.70482528209686,0.13412740826607,0.45733395218849,0.08445146679878,0.74037986993790
12,3501342135,0.615667,0.391567,-0.583988,0.355790,9.92203140258789,0.68956691026688,0.16832759976387,0.69942516088486,-0.01170500367880,0.52025145292282
13,3501358802,0.615707,0.391468,-0.584036,0.355752,9.88815212249756,0.71385031938553,0.17416845262051,0.24140609800816,0.04651906713843,0.60902518033981
14,3501375469,0.615781,0.391287,-0.584102,0.355714,9.88795948028564,0.69190496206284,0.13659077882767,-0.22555825114250,0.31182819604874,0.90121477842331
15,3501392136,0.615859,0.391080,-0.584167,0.355700,9.88724327087402,0.68716341257095,0.15172031521797,-0.26137760281563,0.45505446195602,1.09462916851044
16,3501408803,0.615937,0.390858,-0.584260,0.355657,9.89237213134766,0.71426022052765,0.16208355128765,-0.51315039396286,0.29725459218025,1.10931789875031
17,3501425470,0.616009,0.390655,-0.584332,0.355636,9.91619491577148,0.69604527950287,0.17347207665443,-0.25900843739510,0.37904870510101,1.08234786987305
18,3501442137,0.616119,0.390424,-0.584377,0.355626,9.90033721923828,0.66790723800659,0.14608079195023,-0.35828322172165,0.74158370494843,1.07830095291138
19,3501458804,0.616228,0.390210,-0.584430,0.355583,9.88322257995605,0.64918684959412,0.10683508962393,-0.44617319107056,0.57091343402863,0.89077764749527
20,3501475471,0.616305,0.390025,-0.584484,0.355566,9.88064384460449,0.66647195816040,0.08476860821247,-0.12746159732342,0.43743288516998,0.96829450130463
21,3501492138,0.616356,0.389901,-0.584513,0.355566,9.88440608978271,0.66063153743744,0.12403828650713,0.31241729855537,0.33781230449677,0.79380798339844
22,3501508805,0.616403,0.389802,-0.584539,0.355549,9.89636230468750,0.62569326162338,0.12020735442638,0.33632674813271,0.22404068708420,0.61504411697388
23,3501525472,0.616449,0.389696,-0.584574,0.355528,9.90292930603027,0.63190865516663,0.11849404871464,0.30965113639832,0.18827256560326,0.66075003147125
24,3501542139,0.616511,0.389609,-0.584569,0.355524,9.89791202545166,0.63624060153961,0.11378547549248,0.51792079210281,0.42688047885895,0.50726592540741
25,3501558806,0.616541,0.389602,-0.584505,0.355585,9.88525581359863,0.61411774158478,0.12559553980827,1.33531165122986,0.51904779672623,0.38132831454277
26,3501575473,0.616563,0.389621,-0.584405,0.355691,9.90545368194580,0.65037435293198,0.12107110023499,1.73480558395386,0.70368975400925,0.38942188024521
27,3501592140,0.616612,0.389627,-0.584305,0.355763,9.90121173858643,0.64702975749969,0.08077598363161,1.47027778625488,0.74655252695084,0.23365823924541
28,3501608807,0.616678,0.389616,-0.584224,0.355792,9.87937831878662,0.64190560579300,0.05367918312550,1.12518513202667,0.66378509998322,0.12663558125496
29,3501625474,0.616734,0.389597,-0.584165,0.355815,9.88202476501465,0.65711396932602,0.10453120619059,1.05167663097382,0.53784751892090,0.21711246669292
30,3501642141,0.616781,0.389604,-0.584078,0.355868,9.90901756286621,0.67924094200134,0.12067387998104,1.40321099758148,0.63657164573669,0.19027034938335
31,3501658808,0.616855,0.389610,-0.583976,0.355899,9.88426685333252,0.64111608266830,0.13934154808521,1.27536499500275,0.74733370542526,-0.00829851441085
32,3501675475,0.616932,0.389593,-0.583887,0.355932,9.89352893829346,0.65871030092239,0.13270075619221,1.11145675182343,0.76655608415604,0.12377978116274
33,3501692142,0.617008,0.389551,-0.583816,0.355962,9.87846374511719,0.65708303451538,0.12866413593292,0.95293980836868,0.74064892530441,0.25610777735710
34,3501708809,0.617085,0.389520,-0.583741,0.355985,9.85864543914795,0.64025068283081,0.15029390156269,1.01126003265381,0.71921104192734,0.17488993704319
35,3501725476,0.617132,0.389524,-0.583678,0.356004,9.85682392120361,0.67528247833252,0.13519831001759,1.16304063796997,0.44523200392723,0.11727415025234
36,3501742143,0.617168,0.389547,-0.583629,0.355997,9.87175083160400,0.62823551893234,0.12878677248955,1.13459777832031,0.22628179192543,-0.00382909853943
37,3501758810,0.617193,0.389572,-0.583586,0.355996,9.91026878356934,0.65674149990082,0.18131993710995,1.18887114524841,0.16981860995293,0.06277032941580
38,3501775477,0.617235,0.389588,-0.583518,0.356018,9.94752693176270,0.67251187562943,0.23765173554420,1.25741076469421,0.42859652638435,0.08053273707628
39,3501792144,0.617320,0.389582,-0.583404,0.356063,9.91104602813721,0.64787924289703,0.19921791553497,1.23990440368652,0.91441828012466,0.04190877825022
40,3501808811,0.617443,0.389490,-0.583337,0.356060,9.88870429992676,0.66073411703110,0.18054096400738,0.48039814829826,0.94347578287125,0.21201552450657
41,3501825478,0.617436,0.389500,-0.583279,0.356158,9.88770961761475,0.64302760362625,0.03533921763301,1.63143312931061,0.40706905722618,0.58082562685013
42,3501842145,0.617362,0.389607,-0.583272,0.356180,9.81528186798096,0.71119379997253,0.26300206780434,1.79718542098999,-0.51925897598267,0.16049557924271
43,3501858812,0.617468,0.389529,-0.583255,0.356109,9.98283576965332,0.58973443508148,0.23875832557678,0.18572407960892,0.45049533247948,0.04632696881890
44,3501875479,0.617681,0.389214,-0.583347,0.355934,9.78487014770508,0.65217250585556,0.05765459686518,-1.79817795753479,0.71342253684998,0.58950823545456
45,3501892146,0.617808,0.388975,-0.583449,0.355808,9.89391803741455,0.62930512428284,0.11095252633095,-1.06229948997498,0.27316588163376,0.72009468078613
46,3501908813,0.617807,0.388737,-0.583643,0.355750,9.85208702087402,0.65356165170670,0.14127612113953,-0.66455984115601,-0.44849115610123,1.57249796390533
47,3501925480,0.617694,0.388720,-0.583701,0.355871,9.94837570190430,0.67477804422379,0.16744400560856,1.64804279804230,-0.38206467032433,1.35043597221375
48,3501942147,0.617581,0.388892,-0.583634,0.355989,9.89074420928955,0.64705628156662,0.13722863793373,2.71073937416077,-0.32467940449715,0.24546569585800
49,3501958814,0.617471,0.389072,-0.583593,0.356048,9.96614170074463,0.67751932144165,0.17745578289032,2.44056391716003,-0.59950369596481,0.02710463665426
50,3501975481,0.617462,0.389150,-0.583524,0.356093,9.98532199859619,0.67065966129303,0.23254396021366,1.74789381027222,0.13973647356033,0.05748130008578
51,3501992148,0.617548,0.389113,-0.583429,0.356140,9.96374416351318,0.63798600435257,0.18470914661884,1.07059168815613,0.90979510545731,0.22090314328671
52,3502008815,0.617662,0.389091,-0.583296,0.356185,9.91799640655518,0.65931791067123,0.13478375971317,1.15786671638489,1.15390968322754,-0.01354911737144
53,3502025482,0.617725,0.389179,-0.583104,0.356291,9.86958503723145,0.66643148660660,0.14790123701096,2.11254191398621,1.08374381065369,-0.23399764299393
54,3502042149,0.617760,0.389284,-0.582932,0.356400,9.86025238037109,0.66241586208344,0.15738059580326,2.23871016502380,0.85070669651031,-0.16230769455433
55,3502058816,0.617816,0.389314,-0.582830,0.356436,9.85519504547119,0.68584817647934,0.17757014930248,1.40487575531006,0.63244801759720,-0.04191518574953
56,3502075483,0.617896,0.389332,-0.582741,0.356424,9.87474822998047,0.68262344598770,0.21426039934158,1.07325530052185,0.57747030258179,-0.21832263469696
57,3502092150,0.617978,0.389323,-0.582656,0.356429,9.93107318878174,0.69026130437851,0.24820151925087,1.00717461109161,0.67245501279831,-0.03388560190797
58,3502108817,0.618123,0.389296,-0.582523,0.356426,9.90382194519043,0.68484920263290,0.25274100899696,0.87114560604095,1.15300047397614,-0.27632260322571
59,3502125484,0.618299,0.389227,-0.582395,0.356405,9.94419097900391,0.68099826574326,0.22591271996498,0.50347530841827,1.31529545783997,-0.24586910009384
60,3502142151,0.618461,0.389284,-0.582135,0.356486,9.89820194244385,0.62828552722931,0.10720199346542,1.80728960037231,1.78313684463501,-0.63760250806808
61,3502158818,0.618634,0.389309,-0.581907,0.356531,9.85049343109131,0.69358676671982,0.24485805630684,1.44702148437500,1.66720104217529,-0.60419082641602
62,3502175485,0.618803,0.389292,-0.581774,0.356472,9.85129165649414,0.61767041683197,0.24907346069813,0.61985933780670,1.08115696907043,-0.61105495691299
63,3502192152,0.618995,0.389226,-0.581613,0.356474,9.92391777038574,0.59509783983231,0.23732443153858,0.63013005256653,1.56329035758972,-0.29038399457932
64,3502208819,0.619211,0.389197,-0.581399,0.356481,9.82268047332764,0.67632853984833,0.12437088787556,0.91038429737091,1.81658720970154,-0.61921262741089
65,3502225486,0.619351,0.389220,-0.581268,0.356424,9.85418319702148,0.66607677936554,0.22485607862473,0.87824016809464,0.86517775058746,-0.68604898452759
66,3502242153,0.619511,0.389189,-0.581155,0.356366,9.91489124298096,0.69687938690186,0.25634816288948,0.54496783018112,0.99220401048660,-0.47935453057289
67,3502258820,0.619736,0.389094,-0.581031,0.356280,9.92271041870117,0.66408646106720,0.23879015445709,0.00092846021289,1.37740600109100,-0.52748072147369
68,3502275487,0.619989,0.389011,-0.580862,0.356207,9.91898918151855,0.66751468181610,0.20787911117077,0.13289786875248,1.68941974639893,-0.72007536888123
69,3502292154,0.620249,0.388944,-0.580674,0.356132,9.89227676391602,0.66599947214127,0.20443576574326,0.23504132032394,1.75559043884277,-0.84679418802261
70,3502308821,0.620496,0.388832,-0.580532,0.356057,9.90818595886230,0.66339772939682,0.24145177006721,0.02200771123171,1.62112379074097,-0.52085983753204
71,3502325488,0.620713,0.388709,-0.580386,0.356050,9.90847682952881,0.67821151018143,0.23933461308479,0.24351918697357,1.71902847290039,-0.12069985270500
72,3502342155,0.620932,0.388606,-0.580260,0.355988,9.87389755249023,0.69783085584641,0.25423747301102,0.13077202439308,1.45665180683136,-0.38362702727318
73,3502358822,0.621141,0.388513,-0.580116,0.355959,9.87100982666016,0.71302688121796,0.24534854292870,0.33519974350929,1.54972815513611,-0.31196266412735
74,3502375489,0.621315,0.388490,-0.579954,0.355943,9.84946537017822,0.68739366531372,0.21356628835201,0.83277761936188,1.35181891918182,-0.49100822210312
75,3502392156,0.621456,0.388469,-0.579814,0.355947,9.85723590850830,0.69524842500687,0.21163417398930,0.92520123720169,1.16991770267487,-0.28300750255585
76,3502408823,0.621584,0.388449,-0.579679,0.355966,9.85949420928955,0.71567910909653,0.20803135633469,1.06593012809753,1.13865733146667,-0.17230941355228
77,3502425490,0.621688,0.388435,-0.579553,0.356008,9.85599136352539,0.71152901649475,0.25221723318100,1.21126937866211,1.05439174175262,-0.01491939742118
78,3502442157,0.621795,0.388376,-0.579458,0.356039,9.85226726531982,0.72116488218307,0.24876803159714,0.89210957288742,1.01181054115295,0.18937391042709
79,3502458824,0.621874,0.388301,-0.579402,0.356073,9.87427902221680,0.73672145605087,0.24876636266708,0.77293360233307,0.77686506509781,0.44685834646225
80,3502475491,0.621942,0.388206,-0.579366,0.356116,9.89266300201416,0.76725077629089,0.24318939447403,0.72872608900070,0.72748386859894,0.63421523571014
81,3502492158,0.622002,0.388159,-0.579307,0.356159,9.86799335479736,0.74772709608078,0.24012307822704,1.00429320335388,0.67255753278732,0.40416201949120
82,3502508825,0.622049,0.388111,-0.579264,0.356199,9.87563323974609,0.73835462331772,0.24302329123020,0.99931156635284,0.54398173093796,0.47649231553078
83,3502525492,0.622114,0.388068,-0.579205,0.356228,9.85882663726807,0.71914440393448,0.28180274367332,0.97057396173477,0.64560008049011,0.31926867365837
84,3502542159,0.622173,0.388034,-0.579161,0.356233,9.84959506988525,0.69686251878738,0.29598701000214,0.90929573774338,0.47322666645050,0.23569448292255
85,3502558826,0.622228,0.388000,-0.579133,0.356220,9.86829662322998,0.69591033458710,0.28737118840218,0.78102731704712,0.34018149971962,0.20994091033936
86,3502575493,0.622272,0.387987,-0.579096,0.356218,9.86620140075684,0.67505717277527,0.27413615584373,0.97527396678925,0.31216111779213,0.17522287368774
87,3502592160,0.622291,0.388022,-0.579045,0.356229,9.85841560363770,0.67754077911377,0.27402946352959,1.32717967033386,0.18919463455677,0.06273190677166
88,3502608827,0.622323,0.388041,-0.579004,0.356220,9.86306762695312,0.66493004560471,0.27418610453606,1.11897397041321,0.18838779628277,0.03659414127469
89,3502625494,0.622314,0.388028,-0.579027,0.356211,9.86954975128174,0.65861260890961,0.26437005400658,0.93479305505753,-0.18058234453201,0.43587049841881
90,3502642161,0.622282,0.388051,-0.579020,0.356253,9.89474773406982,0.66856896877289,0.26603755354881,1.44609951972961,-0.08365108072758,0.48771062493324
91,3502658828,0.622188,0.388149,-0.579000,0.356345,9.88516998291016,0.69601666927338,0.25447395443916,2.13380050659180,-0.33252969384193,0.52557897567749
92,3502675495,0.622131,0.388222,-0.578971,0.356410,9.88565444946289,0.68415427207947,0.25613933801651,1.85804116725922,-0.15485437214375,0.38698863983154
93,3502692162,0.622067,0.388261,-0.578971,0.356480,9.86100769042969,0.71740299463272,0.31302818655968,1.66476786136627,-0.21363551914692,0.63987571001053
94,3502708829,0.621908,0.388391,-0.578951,0.356648,9.91714286804199,0.72297972440720,0.20504876971245,2.79851412773132,-0.46316725015640,0.87843227386475
95,3502725496,0.621711,0.388646,-0.578933,0.356744,9.78119564056396,0.74118846654892,0.30818375945091,3.08145761489868,-1.12616479396820,0.16869163513184
96,3502742163,0.621708,0.388688,-0.578895,0.356765,9.92120838165283,0.69892531633377,0.26034617424011,1.45707440376282,0.05627750605345,0.16789767146111
97,3502758830,0.621726,0.388464,-0.579159,0.356548,9.80835723876953,0.67376112937927,0.21432925760746,-1.47896695137024,-1.13643562793732,0.96766704320908
98,3502775497,0.621618,0.388431,-0.579297,0.356548,9.84128093719482,0.74115020036697,0.20917287468910,0.79987812042236,-0.99092972278595,1.09926497936249
99,3502792164,0.621400,0.388466,-0.579518,0.356533,9.89876937866211,0.73448687791824,0.23366594314575,1.16954624652863,-1.98795521259308,1.26268672943115
100,3502808831,0.621126,0.388638,-0.579625,0.356648,9.92941379547119,0.71230107545853,0.24148654937744,2.74426627159119,-1.71049284934998,1.10725641250610
101,3502825498,0.620878,0.388941,-0.579595,0.356799,9.88871002197266,0.72828954458237,0.22936651110649,3.68288278579712,-1.25004076957703,0.29692170023918
102,3502842165,0.620675,0.389191,-0.579636,0.356811,9.92203235626221,0.69157499074936,0.27304956316948,2.61410284042358,-1.61393320560455,0.00757495686412
103,3502858832,0.620581,0.389246,-0.579737,0.356750,9.92487335205078,0.68195188045502,0.30323585867882,1.04262268543243,-1.15226411819458,0.35805913805962
104,3502875499,0.620542,0.389202,-0.579852,0.356679,9.89558982849121,0.66596341133118,0.21221166849136,0.41792884469032,-0.77528369426727,0.61882203817368
105,3502892166,0.620483,0.389131,-0.579994,0.356630,9.86627292633057,0.66373521089554,0.21805408596992,0.36557644605637,-0.84432262182236,0.93513882160187
106,3502908833,0.620366,0.389126,-0.580117,0.356638,9.84596252441406,0.66267538070679,0.22366772592068,1.06844019889832,-1.00779569149017,1.00867295265198
107,3502925500,0.620208,0.389181,-0.580227,0.356675,9.86329650878906,0.66606485843658,0.24655124545097,1.56953978538513,-1.18593204021454,0.96121263504028
108,3502942167,0.620074,0.389238,-0.580332,0.356675,9.88730430603027,0.66648584604263,0.25227323174477,1.40162301063538,-1.16942465305328,0.71544587612152
109,3502958834,0.619991,0.389232,-0.580448,0.356637,9.92411708831787,0.70131206512451,0.24866351485252,0.80434757471085,-0.96303749084473,0.71915978193283
110,3502975501,0.619931,0.389203,-0.580552,0.356601,9.91623592376709,0.71021264791489,0.24559304118156,0.68760490417480,-0.75511360168457,0.72314256429672
111,3502992168,0.619866,0.389189,-0.580633,0.356598,9.92616176605225,0.70855766534805,0.24840959906578,0.95505267381668,-0.62382292747498,0.76163840293884
112,3503008835,0.619748,0.389295,-0.580621,0.356708,9.93360042572021,0.66662657260895,0.09973892569542,2.29011487960815,-0.43241924047470,0.64165580272675
113,3503025502,0.619717,0.389328,-0.580644,0.356687,9.83825016021729,0.73525059223175,0.33866161108017,1.14997828006744,-0.40898358821869,0.25454542040825
114,3503042169,0.619690,0.389294,-0.580714,0.356659,9.89144229888916,0.68404167890549,0.20212337374687,0.68124020099640,-0.45050176978111,0.61098462343216
115,3503058836,0.619623,0.389296,-0.580764,0.356691,9.87559604644775,0.63941371440887,0.16887836158276,1.23451280593872,-0.45107808709145,0.76261168718338
116,3503075503,0.619541,0.389344,-0.580825,0.356682,9.85280132293701,0.70155185461044,0.22603292763233,1.28238296508789,-0.77630811929703,0.47432798147202
117,3503092170,0.619394,0.389460,-0.580889,0.356706,9.88276004791260,0.69792634248734,0.21560847759247,1.87205135822296,-1.12969934940338,0.50771415233612
118,3503108837,0.619247,0.389533,-0.580985,0.356724,9.91670227050781,0.74304753541946,0.25757080316544,1.59633064270020,-1.17521309852600,0.74331259727478
119,3503125504,0.619201,0.389564,-0.581016,0.356720,9.94427204132080,0.69981116056442,0.25430351495743,1.20989906787872,-0.44906750321388,0.39463409781456
120,3503142171,0.619217,0.389572,-0.581033,0.356657,9.93160343170166,0.68951064348221,0.25544849038124,0.73999571800232,-0.24716256558895,0.04481582343578
121,3503158838,0.619267,0.389557,-0.581033,0.356585,9.88460159301758,0.67552769184113,0.24223439395428,0.59377282857895,0.00010885396478,-0.03078646771610
122,3503175505,0.619293,0.389538,-0.581038,0.356553,9.89123535156250,0.66596490144730,0.25583115220070,0.76158720254898,-0.00546831125394,0.23297952115536
123,3503192172,0.619291,0.389517,-0.581054,0.356555,9.85318946838379,0.65707939863205,0.22703762352467,0.91243314743042,-0.07006353139877,0.47673556208611
124,3503208839,0.619251,0.389527,-0.581084,0.356564,9.90345764160156,0.67091143131256,0.20246323943138,1.15799498558044,-0.34041839838028,0.51465511322021
125,3503225506,0.619216,0.389555,-0.581090,0.356584,9.87177467346191,0.67203086614609,0.20014812052250,1.33958899974823,-0.22409832477570,0.41520106792450
126,3503242173,0.619179,0.389593,-0.581107,0.356580,9.84743976593018,0.66464412212372,0.19173218309879,1.25055932998657,-0.37728792428970,0.30611658096313
127,3503258840,0.619132,0.389604,-0.581154,0.356572,9.87813186645508,0.66872286796570,0.18255682289600,1.07235896587372,-0.48331165313721,0.50181043148041
128,3503275507,0.619056,0.389672,-0.581160,0.356620,9.88429069519043,0.66845440864563,0.15341985225677,1.70591473579407,-0.41829386353493,0.46978175640106
129,3503292174,0.618932,0.389797,-0.581168,0.356686,9.87798595428467,0.64975869655609,0.16769100725651,2.17966008186340,-0.70414429903030,0.44793412089348
130,3503308841,0.618792,0.389865,-0.581227,0.356760,9.90228748321533,0.67149674892426,0.17941455543041,1.89936745166779,-0.82682919502258,0.88770413398743
131,3503325508,0.618707,0.389886,-0.581276,0.356803,9.90620422363281,0.69295674562454,0.17067182064056,1.42462325096130,-0.53467798233032,0.77564865350723
132,3503342175,0.618652,0.389881,-0.581324,0.356824,9.88897609710693,0.69073647260666,0.18790540099144,1.14950442314148,-0.40356653928757,0.71088689565659
133,3503358842,0.618606,0.389903,-0.581350,0.356839,9.87575531005859,0.68925505876541,0.14845329523087,1.26436436176300,-0.35737395286560,0.49860876798630
134,3503375509,0.618533,0.389970,-0.581366,0.356865,9.88659381866455,0.70885157585144,0.17041784524918,1.59951949119568,-0.50505679845810,0.40548107028008
135,3503392176,0.618441,0.390058,-0.581391,0.356890,9.87336158752441,0.69718062877655,0.18958638608456,1.70102250576019,-0.66847860813141,0.38505494594574
136,3503408843,0.618369,0.390118,-0.581421,0.356898,9.89274120330811,0.70084697008133,0.21378928422928,1.47903740406036,-0.58978366851807,0.39042079448700
137,3503425510,0.618309,0.390186,-0.581431,0.356911,9.91577911376953,0.67997384071350,0.21541596949100,1.52663850784302,-0.46342343091965,0.29672950506210
138,3503442177,0.618274,0.390242,-0.581425,0.356921,9.90499687194824,0.67991298437119,0.20981107652187,1.43310081958771,-0.26857474446297,0.22337475419044
139,3503458844,0.618269,0.390275,-0.581410,0.356918,9.88352108001709,0.69218015670776,0.24377852678299,1.24338757991791,-0.09258990734816,0.17203409969807
140,3503475511,0.618256,0.390315,-0.581385,0.356937,9.89406585693359,0.69225615262985,0.19668516516685,1.41952610015869,-0.04192798584700,0.22632022202015
141,3503492178,0.618241,0.390364,-0.581348,0.356970,9.88232135772705,0.71328049898148,0.18995441496372,1.49279141426086,0.01570698991418,0.21629285812378
142,3503508845,0.618239,0.390396,-0.581334,0.356961,9.87279129028320,0.68599647283554,0.18320262432098,1.21029615402222,-0.09784051030874,0.14579389989376
143,3503525512,0.618212,0.390421,-0.581349,0.356956,9.88661861419678,0.67882990837097,0.21615201234818,1.17907416820526,-0.29613402485847,0.31734773516655
144,3503542179,0.618172,0.390471,-0.581359,0.356954,9.88156986236572,0.70352941751480,0.19009435176849,1.34207344055176,-0.37554615736008,0.26006492972374
145,3503558846,0.618155,0.390516,-0.581351,0.356949,9.88700866699219,0.70913147926331,0.20236346125603,1.27859234809875,-0.21202191710472,0.15710188448429
146,3503575513,0.618166,0.390517,-0.581363,0.356908,9.89036941528320,0.69215703010559,0.23346553742886,0.80333590507507,-0.16860841214657,0.16250617802143
147,3503592180,0.618016,0.390692,-0.581344,0.357008,9.89018344879150,0.64964407682419,0.06695766746998,2.64852595329285,-0.72701644897461,0.38691183924675
148,3503608847,0.617894,0.390858,-0.581391,0.356961,9.88508319854736,0.72847342491150,0.37072256207466,1.78186929225922,-1.27126073837280,-0.09668794274330
149,3503625514,0.618023,0.390782,-0.581334,0.356914,9.96455764770508,0.61109292507172,0.23303660750389,0.33890080451965,0.77306163311005,-0.03004369512200
150,3503642181,0.618152,0.390518,-0.581476,0.356749,9.82528018951416,0.64370346069336,0.10436517745256,-1.41668951511383,0.06601032614708,0.75938457250595
151,3503658848,0.618177,0.390410,-0.581552,0.356699,9.83767795562744,0.66710573434830,0.11542924493551,0.12016838788986,-0.14285483956337,0.70092350244522
152,3503675515,0.618035,0.390305,-0.581789,0.356673,9.86519432067871,0.68095105886459,0.19908291101456,0.28953236341476,-1.43556630611420,1.63225269317627
153,3503692182,0.617859,0.390307,-0.581915,0.356770,9.91305160522461,0.70635145902634,0.19858533143997,1.61112213134766,-1.03449690341949,1.51372992992401
154,3503708849,0.617701,0.390422,-0.581973,0.356822,9.86490917205811,0.69060063362122,0.15272338688374,2.03014588356018,-1.06849789619446,0.63905608654022
155,3503725516,0.617549,0.390563,-0.582035,0.356831,9.89918899536133,0.67324966192245,0.18856516480446,1.94051396846771,-1.24575042724609,0.35392269492149
156,3503742183,0.617471,0.390606,-0.582100,0.356814,9.90179061889648,0.65207862854004,0.17798855900764,1.24115931987762,-0.78268563747406,0.45986959338188
157,3503758850,0.617426,0.390555,-0.582198,0.356789,9.90485954284668,0.66616302728653,0.15932823717594,0.62759429216385,-0.58679968118668,0.81104534864426
158,3503775517,0.617381,0.390549,-0.582260,0.356771,9.89463901519775,0.67346352338791,0.14439001679420,0.92627686262131,-0.52858203649521,0.56803196668625
159,3503792184,0.617311,0.390611,-0.582286,0.356782,9.88138771057129,0.67521667480469,0.11977456510067,1.45721518993378,-0.55994480848312,0.37242782115936
160,3503808851,0.617224,0.390692,-0.582293,0.356832,9.85916233062744,0.66002893447876,0.10876770317554,1.81233525276184,-0.49173820018768,0.46351942420006
161,3503825518,0.617146,0.390781,-0.582304,0.356851,9.87902450561523,0.65816056728363,0.12728048861027,1.63610732555389,-0.57948738336563,0.28133630752563
162,3503842185,0.617107,0.390825,-0.582328,0.356830,9.91742610931396,0.64942997694016,0.16883912682533,1.21433031558990,-0.47316905856133,0.23240324854851
163,3503858852,0.617087,0.390817,-0.582356,0.356829,9.91039466857910,0.67210024595261,0.19111919403076,0.99211424589157,-0.22731269896030,0.48955473303795
164,3503875519,0.617072,0.390805,-0.582373,0.356839,9.90966224670410,0.68973296880722,0.16885960102081,1.04062473773956,-0.12819156050682,0.51479601860046
165,3503892186,0.617075,0.390789,-0.582370,0.356857,9.91448402404785,0.68092411756516,0.17991656064987,1.05878412723541,0.07090235501528,0.46614474058151
166,3503908853,0.617047,0.390869,-0.582286,0.356955,9.90042114257812,0.64982712268829,0.02023738995194,2.05938243865967,0.26116630434990,0.27082225680351
167,3503925520,0.617026,0.390945,-0.582224,0.357009,9.85135078430176,0.71836829185486,0.19572110474110,1.80352473258972,0.08402886986732,0.15406678617001
168,3503942187,0.616963,0.391037,-0.582232,0.357005,9.84296894073486,0.68714344501495,0.16880081593990,1.56222760677338,-0.56838423013687,0.12516286969185
169,3503958854,0.616911,0.391081,-0.582250,0.357016,9.91683292388916,0.65956842899323,0.21684736013412,1.38751029968262,-0.40897080302238,0.38893526792526
170,3503975521,0.616872,0.391193,-0.582186,0.357065,9.84089374542236,0.69027090072632,0.17436128854752,1.97918927669525,-0.07708141207695,0.02450495213270
171,3503992188,0.616784,0.391349,-0.582161,0.357088,9.89799118041992,0.64710110425949,0.14940418303013,2.10753464698792,-0.61893087625504,-0.04228656738997
172,3504008855,0.616746,0.391425,-0.582156,0.357078,9.88126564025879,0.68381065130234,0.18796201050282,1.44142508506775,-0.39440995454788,0.07274646311998
173,3504025522,0.616741,0.391429,-0.582195,0.357018,9.89846611022949,0.67145514488220,0.17822858691216,0.74870401620865,-0.40411716699600,0.18279141187668
174,3504042189,0.616778,0.391337,-0.582259,0.356953,9.92189407348633,0.67266315221786,0.16166959702969,0.16876845061779,-0.11875326931477,0.51497524976730
175,3504058856,0.616811,0.391303,-0.582280,0.356897,9.89268684387207,0.67874985933304,0.17819167673588,0.56758385896683,-0.07076789438725,0.21464084088802
176,3504075523,0.616841,0.391261,-0.582297,0.356865,9.89185047149658,0.66266047954559,0.18085238337517,0.63580322265625,0.01805054768920,0.34444597363472
177,3504092190,0.616866,0.391211,-0.582318,0.356842,9.87520694732666,0.65678137540817,0.18932403624058,0.62669789791107,0.02176439017057,0.43891841173172
178,3504108857,0.616881,0.391163,-0.582358,0.356802,9.88291358947754,0.65045130252838,0.13853868842125,0.55954140424728,-0.14941166341305,0.42969781160355
179,3504125524,0.616870,0.391127,-0.582401,0.356790,9.87823009490967,0.67556470632553,0.12769491970539,0.77046209573746,-0.21829704940319,0.57291132211685
180,3504142191,0.616870,0.391068,-0.582467,0.356748,9.89143562316895,0.69462484121323,0.17197228968143,0.48477795720100,-0.29873368144035,0.57748311758041
181,3504158858,0.616898,0.390971,-0.582529,0.356704,9.90149497985840,0.67032068967819,0.17848135530949,0.23374788463116,-0.07371333986521,0.63855659961700
182,3504175525,0.616907,0.390910,-0.582577,0.356677,9.91229534149170,0.65970653295517,0.15297226607800,0.54373842477798,-0.14222732186317,0.57367962598801
183,3504192192,0.616875,0.390909,-0.582608,0.356682,9.88792037963867,0.68251407146454,0.13772238790989,1.07184660434723,-0.29286840558052,0.52983069419861
184,3504208859,0.616829,0.390929,-0.582638,0.356692,9.90191459655762,0.68341124057770,0.17903237044811,1.22533082962036,-0.38191097974777,0.49412661790848
185,3504225526,0.616825,0.390920,-0.582644,0.356697,9.89725494384766,0.68053519725800,0.14770130813122,1.03802525997162,-0.05481118336320,0.42086151242256
186,3504242193,0.616837,0.390900,-0.582651,0.356688,9.89494132995605,0.68146139383316,0.15042777359486,0.87083822488785,-0.00882357545197,0.36973854899406
187,3504258860,0.616857,0.390891,-0.582650,0.356665,9.88321208953857,0.67432039976120,0.15775434672832,0.86944240331650,-0.00161360006314,0.22396385669708
188,3504275527,0.616879,0.390876,-0.582644,0.356654,9.87831497192383,0.67435586452484,0.13735228776932,0.91749173402786,0.06973697245121,0.28029894828796
189,3504292194,0.616874,0.390875,-0.582642,0.356667,9.86032295227051,0.66596186161041,0.15559019148350,1.10924112796783,-0.01858201436698,0.40473824739456
190,3504308861,0.616851,0.390874,-0.582657,0.356682,9.87916278839111,0.66908377408981,0.13379946351051,1.18504202365875,-0.16134719550610,0.50360327959061
191,3504325528,0.616829,0.390883,-0.582678,0.356676,9.87561035156250,0.67462933063507,0.13204260170460,1.06878590583801,-0.26623120903969,0.39149647951126
192,3504342195,0.616823,0.390893,-0.582679,0.356674,9.91210079193115,0.66934412717819,0.16992025077343,1.11688649654388,-0.10321918129921,0.31027865409851
193,3504358862,0.616829,0.390875,-0.582690,0.356665,9.89479732513428,0.65541648864746,0.17672489583492,0.91245877742767,-0.05095646530390,0.38761618733406
194,3504375529,0.616844,0.390854,-0.582690,0.356662,9.89999961853027,0.67777836322784,0.14236645400524,0.92870998382568,0.05544508993626,0.37206926941872
195,3504392196,0.616861,0.390854,-0.582658,0.356685,9.87540531158447,0.68084859848022,0.14288033545017,1.19638848304749,0.22174836695194,0.30720514059067
196,3504408863,0.616859,0.390877,-0.582636,0.356699,9.87598228454590,0.66189140081406,0.13267746567726,1.26357054710388,0.01140405517071,0.25500646233559
197,3504425530,0.616864,0.390888,-0.582633,0.356684,9.90439033508301,0.64252054691315,0.15700908005238,1.03103280067444,-0.07467381656170,0.20978720486164
198,3504442197,0.616871,0.390872,-0.582637,0.356684,9.88696193695068,0.67017644643784,0.17625728249550,0.96304386854172,-0.00160079356283,0.39713129401207
199,3504458864,0.616875,0.390844,-0.582645,0.356694,9.91099643707275,0.67932516336441,0.17188741266727,0.94024854898453,0.02878227084875,0.50042724609375
200,3504475531,0.616923,0.390803,-0.582623,0.356691,9.91119670867920,0.67805230617523,0.19415836036205,0.78056627511978,0.32807946205139,0.31788563728333
201,3504492198,0.617001,0.390725,-0.582608,0.356666,9.89399909973145,0.66943413019180,0.20354717969894,0.43597295880318,0.45180159807205,0.31217399239540
202,3504508865,0.616896,0.390867,-0.582541,0.356801,9.87016391754150,0.64802914857864,0.00465825479478,2.62643480300903,-0.17531892657280,0.41920945048332
203,3504525532,0.616907,0.390829,-0.582641,0.356660,9.93919181823730,0.68033409118652,0.40618920326233,0.03464758023620,-0.71323680877686,0.13379435241222
204,3504542199,0.617085,0.390614,-0.582637,0.356596,9.86720275878906,0.61302161216736,0.06355366855860,-0.58686381578445,1.03662919998169,0.47795221209526
205,3504558866,0.617230,0.390327,-0.582788,0.356412,9.86067771911621,0.68184626102448,0.13304466009140,-1.64761388301849,0.10133025050163,0.75779658555984
206,3504575533,0.617319,0.390127,-0.582904,0.356287,9.80106925964355,0.65189212560654,0.13920390605927,-0.83012032508850,-0.02982598543167,0.70526480674744
207,3504592200,0.617245,0.389991,-0.583095,0.356253,9.90327548980713,0.66852796077728,0.18537580966949,0.09974226355553,-0.91474491357803,1.43705821037292
208,3504608867,0.617198,0.389998,-0.583117,0.356290,9.90313148498535,0.67934578657150,0.15318422019482,1.30026054382324,-0.24586910009384,0.64236009120941
209,3504625534,0.617166,0.390030,-0.583156,0.356248,9.90472507476807,0.69122147560120,0.15790030360222,0.99421453475952,-0.53561276197433,0.21301440894604
210,3504642201,0.617204,0.389987,-0.583202,0.356152,9.92054939270020,0.73326945304871,0.17826664447784,0.25783663988113,-0.24508792161942,0.13416571915150
211,3504658868,0.617298,0.389891,-0.583223,0.356060,9.94485569000244,0.69223922491074,0.18566951155663,-0.01759592257440,0.22456572949886,0.16203233599663
212,3504675535,0.617403,0.389834,-0.583191,0.355993,9.91571807861328,0.66770648956299,0.13927538692951,0.36067166924477,0.47371333837509,-0.06158574298024
213,3504692202,0.617471,0.389916,-0.583084,0.355960,9.87830924987793,0.65817779302597,0.11584819853306,1.31035196781158,0.38579764962196,-0.58435368537903
214,3504708869,0.617461,0.390086,-0.582969,0.355979,9.87535285949707,0.62930876016617,0.16802527010441,2.16612362861633,0.03466038405895,-0.54774039983749
215,3504725536,0.617481,0.390162,-0.582869,0.356025,9.85467529296875,0.64127951860428,0.15244664251804,1.75121080875397,0.39126601815224,-0.08516223728657
216,3504742203,0.617543,0.390143,-0.582837,0.355992,9.85888481140137,0.67279517650604,0.15154175460339,0.76601809263229,0.29642212390900,0.03833580389619
217,3504758870,0.617616,0.390066,-0.582845,0.355936,9.89529800415039,0.68597346544266,0.18444252014160,0.25942468643188,0.24670793116093,0.24962778389454
218,3504775537,0.617683,0.389994,-0.582839,0.355909,9.90113735198975,0.70552158355713,0.17116823792458,0.47133129835129,0.34731462597847,0.32896310091019
219,3504792204,0.617753,0.389952,-0.582794,0.355906,9.91268348693848,0.71021372079849,0.18152529001236,0.78795540332794,0.51360505819321,0.20516411960125
220,3504808871,0.617837,0.389941,-0.582708,0.355914,9.92060184478760,0.67152488231659,0.18313421308994,1.01347506046295,0.70363849401474,-0.02070786431432
221,3504825538,0.617866,0.390037,-0.582555,0.356008,9.87427043914795,0.67506396770477,0.15583863854408,2.14303374290466,0.73439937829971,-0.12172436714172
222,3504842205,0.617916,0.390128,-0.582391,0.356088,9.85414600372314,0.70568639039993,0.13769569993019,2.02807116508484,0.84051275253296,-0.24896827340126
223,3504858872,0.617959,0.390131,-0.582386,0.356021,9.86704921722412,0.64644950628281,0.21580623090267,0.69385439157486,-0.03993019834161,-0.07987319678068
224,3504875539,0.617977,0.390161,-0.582307,0.356086,9.90484237670898,0.65691727399826,0.20105211436749,1.58613669872284,0.45688572525978,0.24285319447517
225,3504892206,0.617944,0.390266,-0.582220,0.356171,9.87004756927490,0.69446694850922,0.14459162950516,2.14437842369080,0.15789589285851,0.12184602767229
226,3504908873,0.617910,0.390378,-0.582126,0.356260,9.91132736206055,0.68397301435471,0.22472254931927,2.19401597976685,0.18057593703270,0.10240597277880
227,3504925540,0.617897,0.390448,-0.582015,0.356386,9.88683605194092,0.68034148216248,0.22431699931622,2.15563511848450,0.53746324777603,0.32687565684319
228,3504942207,0.617904,0.390492,-0.581904,0.356507,9.92375659942627,0.61257582902908,0.19018200039864,1.96966159343719,0.66730690002441,0.36418056488037
229,3504958874,0.617901,0.390572,-0.581721,0.356724,9.92516994476318,0.60605829954147,0.18422774970531,2.69311761856079,1.09961068630219,0.46025380492210
230,3504975541,0.617905,0.390652,-0.581535,0.356934,9.92176342010498,0.64610850811005,0.24085827171803,2.68863558769226,1.12772071361542,0.39842477440834
231,3504992208,0.617966,0.390610,-0.581361,0.357157,9.93880939483643,0.62055695056915,0.27960598468781,2.03813695907593,1.63403260707855,0.83764415979385
232,3505008875,0.618078,0.390418,-0.581232,0.357383,9.92882442474365,0.66063702106476,0.23454204201698,1.18257045745850,2.03047871589661,1.43968343734741
233,3505025542,0.618199,0.390165,-0.581106,0.357654,9.89766788482666,0.71103543043137,0.17164498567581,1.03627073764801,2.31622719764709,1.87074530124664
234,3505042209,0.618297,0.389995,-0.580955,0.357916,9.88105392456055,0.72687232494354,0.13550357520580,1.48364770412445,2.10266828536987,1.48015153408051
235,3505058876,0.618363,0.389902,-0.580809,0.358140,9.85946655273438,0.73133242130280,0.16663509607315,1.73038768768311,1.66826415061951,1.11020171642303
236,3505075543,0.618387,0.389848,-0.580695,0.358342,9.89127254486084,0.69930285215378,0.19245247542858,1.84435129165649,1.20222818851471,1.04736101627350
237,3505092210,0.618460,0.389797,-0.580550,0.358506,9.91559505462646,0.70323997735977,0.22854416072369,1.65771174430847,1.42536592483521,0.67303133010864
238,3505108877,0.618565,0.389726,-0.580400,0.358645,9.92919826507568,0.71062946319580,0.21103510260582,1.39557850360870,1.55427467823029,0.55038493871689
239,3505125544,0.618697,0.389646,-0.580236,0.358769,9.90014266967773,0.69944238662720,0.22370845079422,1.26836013793945,1.70421147346497,0.42206528782845
240,3505142211,0.618842,0.389572,-0.580052,0.358899,9.88329219818115,0.68562686443329,0.23926526308060,1.32510507106781,1.84686124324799,0.33755618333817
241,3505158878,0.618968,0.389528,-0.579867,0.359025,9.87676239013672,0.67338663339615,0.25063997507095,1.48309695720673,1.68372118473053,0.24140609800816
242,3505175545,0.619073,0.389535,-0.579657,0.359177,9.89032649993896,0.66510742902756,0.25931185483932,1.93047380447388,1.65444576740265,0.13899371027946
243,3505192212,0.619181,0.389560,-0.579397,0.359385,9.90673923492432,0.64331817626953,0.27732449769974,2.35739922523499,1.98294162750244,0.16035471856594
244,3505208879,0.619280,0.389655,-0.579049,0.359669,9.90508937835693,0.60511416196823,0.29407498240471,3.19210481643677,2.35522270202637,-0.00790151953697
245,3505225546,0.619336,0.389811,-0.578638,0.360065,9.88312053680420,0.60114204883575,0.26966866850853,4.15888118743896,2.60104012489319,0.16551567614079
246,3505242213,0.619408,0.389966,-0.578222,0.360441,9.87300872802734,0.61290508508682,0.23493003845215,4.10354471206665,2.63530993461609,0.03218875825405
247,3505258880,0.619475,0.390069,-0.577857,0.360801,9.89167308807373,0.63562101125717,0.27734601497650,3.67389225959778,2.48399043083191,0.32140734791756
248,3505275547,0.619552,0.390082,-0.577543,0.361157,9.89976215362549,0.66628718376160,0.31077086925507,3.12051677703857,2.51414895057678,0.77240860462189
249,3505292214,0.619651,0.390005,-0.577249,0.361541,9.88689899444580,0.69635808467865,0.27857443690300,2.72611927986145,2.82436966896057,1.24128746986389
250,3505308881,0.619737,0.389897,-0.576989,0.361926,9.89139080047607,0.69554412364960,0.28386741876602,2.55637192726135,2.69944453239441,1.49779891967773
251,3505325548,0.619862,0.389778,-0.576722,0.362264,9.87199687957764,0.68398445844650,0.27184307575226,2.24702143669128,2.79033088684082,1.22543323040009
252,3505342215,0.619925,0.389705,-0.576492,0.362601,9.87659645080566,0.66481190919876,0.28183919191360,2.51557040214539,2.26806211471558,1.29593217372894
253,3505358882,0.619985,0.389651,-0.576271,0.362907,9.88956737518311,0.70038139820099,0.29350277781487,2.44978427886963,2.09096288681030,1.11638700962067
254,3505375549,0.620082,0.389573,-0.576077,0.363133,9.88945770263672,0.67529278993607,0.33173125982285,1.86520004272461,1.96297657489777,0.85041213035583
255,3505392216,0.620210,0.389408,-0.575905,0.363363,9.89308261871338,0.69903928041458,0.37051293253899,1.34344375133514,2.21724677085876,1.19366073608398
256,3505408883,0.620240,0.389317,-0.575769,0.363627,9.92579269409180,0.67367523908615,0.29570114612579,1.99391663074493,1.58442091941833,1.38807380199432
257,3505425550,0.620322,0.389275,-0.575589,0.363816,9.82304382324219,0.66776645183563,0.40069451928139,1.86991262435913,1.65663588047028,0.62038445472717
258,3505442217,0.620474,0.389147,-0.575381,0.364023,9.94957065582275,0.58282017707825,0.28038620948792,1.48246943950653,2.31530451774597,0.79718881845474
259,3505458884,0.620755,0.388725,-0.575415,0.363942,9.78153324127197,0.65604943037033,0.31146353483200,-1.80919158458710,1.76141738891602,1.05644059181213
260,3505475551,0.620837,0.388534,-0.575383,0.364056,9.88310813903809,0.60909003019333,0.32175177335739,0.52723097801208,1.19473636150360,1.28202450275421
261,3505492218,0.620816,0.388370,-0.575475,0.364121,9.92425060272217,0.68004894256592,0.38515526056290,0.44583383202553,0.06443514674902,1.57041060924530
262,3505508885,0.620796,0.388410,-0.575311,0.364373,10.00414752960205,0.65591788291931,0.37609785795212,2.70908737182617,1.14130842685699,0.86569023132324
263,3505525552,0.620789,0.388582,-0.575019,0.364661,9.91720581054688,0.65002423524857,0.35414278507233,3.68443250656128,1.50972163677216,0.12714788317680
264,3505542219,0.620804,0.388762,-0.574719,0.364916,9.92317390441895,0.64268743991852,0.40037068724632,3.55403757095337,1.51857066154480,-0.11789526790380
265,3505558886,0.620912,0.388832,-0.574423,0.365124,9.91759490966797,0.64467668533325,0.38204157352448,2.66527676582336,2.02670049667358,-0.11608953773975
266,3505575553,0.621047,0.388882,-0.574136,0.365294,9.86393928527832,0.62624615430832,0.35204780101776,2.28796362876892,2.03534555435181,-0.23746815323830
267,3505592220,0.621156,0.388991,-0.573836,0.365463,9.85126113891602,0.63077718019485,0.33768969774246,2.66797852516174,1.84209716320038,-0.44384241104126
268,3505608887,0.621207,0.389154,-0.573530,0.365683,9.85597133636475,0.61015421152115,0.33948701620102,3.27508926391602,1.64257442951202,-0.31365308165550
269,3505625554,0.621218,0.389321,-0.573236,0.365948,9.84875106811523,0.59465306997299,0.36066600680351,3.56333541870117,1.53931713104248,0.00293905776925
270,3505642221,0.621273,0.389401,-0.572976,0.366176,9.90039157867432,0.62083834409714,0.39754194021225,2.80485320091248,1.69401741027832,0.16584862768650
271,3505658888,0.621407,0.389390,-0.572708,0.366380,9.89363765716553,0.63520550727844,0.40303173661232,2.15928530693054,2.19698715209961,0.20083558559418
272,3505675555,0.621581,0.389343,-0.572431,0.366567,9.92954730987549,0.66671252250671,0.41501319408417,1.82866358757019,2.43829703330994,0.14597317576408
273,3505692222,0.621789,0.389303,-0.572113,0.366754,9.92333793640137,0.64958912134171,0.40166032314301,1.90283775329590,2.73003840446472,-0.07922008633614
274,3505708889,0.621970,0.389350,-0.571739,0.366981,9.92571258544922,0.64501595497131,0.41633194684982,2.63816618919373,2.75298786163330,-0.33318287134171
275,3505725556,0.622168,0.389472,-0.571295,0.367206,9.85934638977051,0.63637202978134,0.40157327055931,3.10494446754456,2.92495131492615,-0.86508178710938
276,3505742223,0.622469,0.389483,-0.570877,0.367334,9.89183807373047,0.57550078630447,0.45808792114258,1.87553501129150,3.24384260177612,-1.03558576107025
277,3505758890,0.622752,0.389424,-0.570495,0.367510,9.90544795989990,0.56121951341629,0.34372353553772,1.73551023006439,3.31685137748718,-0.41144242882729
278,3505775557,0.622999,0.389453,-0.570097,0.367678,9.89073085784912,0.64663195610046,0.43727108836174,2.19944572448730,3.00177669525146,-0.74731457233429
279,3505792224,0.623245,0.389456,-0.569731,0.367825,9.87003993988037,0.67532014846802,0.50661325454712,1.91732180118561,2.87046003341675,-0.64076566696167
280,3505808891,0.623492,0.389386,-0.569411,0.367977,9.91623783111572,0.69759285449982,0.47792625427246,1.51279497146606,2.87787508964539,-0.21466003358364
281,3505825558,0.623824,0.389278,-0.569039,0.368104,9.86100292205811,0.70322000980377,0.50647640228271,1.18392777442932,3.45518541336060,-0.52369010448456
282,3505842225,0.624155,0.389167,-0.568671,0.368228,9.90836048126221,0.66493135690689,0.55875647068024,1.12600469589233,3.44254565238953,-0.51940000057220
283,3505858892,0.624525,0.389003,-0.568293,0.368359,9.91531658172607,0.71057242155075,0.58170944452286,0.85411322116852,3.78748512268066,-0.40729320049286
284,3505875559,0.624930,0.388828,-0.567886,0.368484,9.88936805725098,0.69366693496704,0.54023641347885,0.74757701158524,4.05694246292114,-0.55099314451218
285,3505892226,0.625325,0.388631,-0.567505,0.368607,9.84967517852783,0.68021845817566,0.53579312562943,0.62058937549591,3.95911574363708,-0.38202628493309
286,3505908893,0.625720,0.388410,-0.567142,0.368729,9.84827423095703,0.67088955640793,0.54053819179535,0.47309866547585,3.94071364402771,-0.23923546075821
287,3505925560,0.626096,0.388174,-0.566815,0.368842,9.85366249084473,0.67710441350937,0.54914551973343,0.32191962003708,3.72867798805237,-0.08613551408052
288,3505942227,0.626461,0.387942,-0.566499,0.368953,9.85798740386963,0.71116828918457,0.53442513942719,0.34169262647629,3.62034916877747,-0.04416910186410
289,3505958894,0.626812,0.387744,-0.566209,0.369009,9.84395313262939,0.69778347015381,0.53985130786896,0.24008701741695,3.22116160392761,-0.31037467718124
290,3505975561,0.627146,0.387617,-0.565894,0.369060,9.81582164764404,0.71487659215927,0.53604531288147,0.62842679023743,3.06315684318542,-0.63276171684265
291,3505992228,0.627461,0.387565,-0.565548,0.369109,9.80661582946777,0.71001142263412,0.53102207183838,1.08114409446716,2.93579792976379,-0.96922296285629
292,3506008895,0.627754,0.387567,-0.565206,0.369132,9.80766487121582,0.69003868103027,0.55793511867523,1.26063776016235,2.62725448608398,-1.22221243381500
293,3506025562,0.628021,0.387548,-0.564948,0.369092,9.78691196441650,0.67387163639069,0.50595027208328,0.78581684827805,2.04233741760254,-1.12093985080719
294,3506042229,0.628231,0.387472,-0.564831,0.368994,9.79836368560791,0.65237843990326,0.56205523014069,0.11691556125879,1.20645415782928,-0.63180124759674
295,3506058896,0.628416,0.387361,-0.564768,0.368891,9.81729030609131,0.69167882204056,0.59584099054337,-0.13590098917484,0.95241469144821,-0.31031069159508
296,3506075563,0.628599,0.387265,-0.564710,0.368771,9.85664081573486,0.69081354141235,0.60429304838181,-0.14527523517609,0.83405834436417,-0.42364683747292
297,3506092230,0.628839,0.387162,-0.564605,0.368630,9.86901760101318,0.68793416023254,0.59974598884583,-0.28818127512932,1.22648334503174,-0.75716263055801
298,3506108897,0.629067,0.387079,-0.564509,0.368473,9.89648914337158,0.67391794919968,0.63619387149811,-0.25045379996300,1.04454362392426,-0.84860002994537
299,3506125564,0.629267,0.387036,-0.564379,0.368378,9.88914299011230,0.72352629899979,0.64435368776321,0.31748858094215,1.14836454391479,-0.75291091203690
300,3506142231,0.629445,0.386985,-0.564267,0.368299,9.91072559356689,0.73291838169098,0.67328745126724,0.36236202716827,1.04503011703491,-0.55473262071609
301,3506158898,0.629683,0.386899,-0.564116,0.368213,9.87628936767578,0.72299450635910,0.65655416250229,0.11440553516150,1.52219486236572,-0.69999516010284
302,3506175565,0.629963,0.386746,-0.563964,0.368127,9.87645053863525,0.75763761997223,0.73377209901810,-0.27314659953117,1.85280346870422,-0.55520641803741
303,3506192232,0.630180,0.386670,-0.563778,0.368122,9.93948841094971,0.73932337760925,0.69096225500107,0.62667232751846,1.78275275230408,-0.42417189478874
304,3506208899,0.630293,0.386875,-0.563448,0.368218,9.75973129272461,0.75172543525696,0.57640278339386,2.87060093879700,1.55312192440033,-1.20320773124695
305,3506225566,0.630601,0.386792,-0.563270,0.368048,9.86200141906738,0.66687345504761,0.65165084600449,-0.30940142273903,1.67788159847260,-1.32681477069855
306,3506242233,0.630864,0.386425,-0.563419,0.367757,9.79232215881348,0.68489253520966,0.63326925039291,-2.71230816841125,0.47846445441246,0.22862537205219
307,3506258900,0.630985,0.386256,-0.563435,0.367702,9.86015510559082,0.74901700019836,0.58725434541702,-0.23161563277245,0.63649475574493,0.49982541799545
308,3506275567,0.630998,0.386203,-0.563482,0.367664,9.87778186798096,0.76752901077271,0.64942175149918,0.54468601942062,-0.16506102681160,0.46865472197533
309,3506292234,0.631007,0.386267,-0.563376,0.367743,9.91831398010254,0.75562268495560,0.66520828008652,1.89998197555542,0.49314051866531,0.13266736268997
310,3506308901,0.631045,0.386434,-0.563163,0.367828,9.88105010986328,0.78270250558853,0.61476117372513,2.57405710220337,0.82715576887131,-0.59783881902695
311,3506325568,0.631157,0.386526,-0.562972,0.367833,9.86214447021484,0.74289649724960,0.64762324094772,1.68126249313354,0.99797964096069,-0.78184044361115
312,3506342235,0.631335,0.386524,-0.562801,0.367791,9.85932159423828,0.75009602308273,0.67959469556808,0.86575424671173,1.27510917186737,-0.74065530300140
313,3506358902,0.631515,0.386474,-0.562637,0.367784,9.86342525482178,0.75981974601746,0.66866886615753,0.77091026306152,1.47076439857483,-0.39125958085060
314,3506375569,0.631732,0.386382,-0.562469,0.367765,9.85528850555420,0.74306249618530,0.67997980117798,0.45419642329216,1.70293080806732,-0.37887588143349
315,3506392236,0.631966,0.386254,-0.562303,0.367753,9.81762123107910,0.73113059997559,0.65533083677292,0.26947760581970,1.87326800823212,-0.24755954742432
316,3506408903,0.632169,0.386091,-0.562186,0.367755,9.83482933044434,0.72909438610077,0.64897012710571,0.12954263389111,1.66314148902893,0.15637192130089
317,3506425570,0.632391,0.385871,-0.562087,0.367755,9.81919956207275,0.74504560232162,0.64671456813812,-0.21787442266941,1.79972112178802,0.36880365014076
318,3506442237,0.632613,0.385596,-0.562043,0.367728,9.81124210357666,0.74202501773834,0.65563994646072,-0.69548714160919,1.62173843383789,0.60554176568985
319,3506458904,0.632833,0.385268,-0.562049,0.367683,9.84441280364990,0.77312785387039,0.67006403207779,-1.11798143386841,1.48851406574249,0.87610155344009
320,3506475571,0.633053,0.384903,-0.562079,0.367641,9.88970565795898,0.79279237985611,0.71757441759109,-1.33301305770874,1.48792505264282,1.09229850769043
321,3506492238,0.633276,0.384617,-0.562013,0.367658,9.86560153961182,0.72757375240326,0.56398212909698,-0.52640503644943,1.87105238437653,0.78538149595261
322,3506508905,0.633605,0.384294,-0.561956,0.367515,9.77065181732178,0.75319290161133,0.78133749961853,-1.60960447788239,1.90884411334991,-0.01742944307625
323,3506525572,0.633860,0.383943,-0.561958,0.367439,9.83428192138672,0.71016222238541,0.72607392072678,-1.42503941059113,1.62034273147583,0.72292482852936
324,3506542239,0.634090,0.383631,-0.561928,0.367416,9.86085510253906,0.71859437227249,0.70764553546906,-0.90257865190506,1.69668126106262,0.78985077142715
325,3506558906,0.634322,0.383259,-0.562020,0.367262,9.80140399932861,0.77276921272278,0.82059943675995,-1.98714852333069,0.98303467035294,0.76364904642105
326,3506575573,0.634596,0.382807,-0.562081,0.367167,9.92271137237549,0.77416461706161,0.79697364568710,-2.13177061080933,1.63273906707764,1.14479160308838
327,3506592240,0.634887,0.382324,-0.562176,0.367021,9.86345386505127,0.80843001604080,0.79492950439453,-2.60351777076721,1.50183260440826,1.08347475528717
328,3506608907,0.635261,0.381825,-0.562202,0.366854,9.89944362640381,0.77764040231705,0.79469883441925,-2.79544687271118,2.10456347465515,0.66512978076935
329,3506625574,0.635691,0.381306,-0.562220,0.366622,9.85522174835205,0.81332463026047,0.80578505992889,-3.26887249946594,2.24043941497803,0.29644784331322
330,3506642241,0.636127,0.380810,-0.562180,0.366441,9.87790203094482,0.78232008218765,0.82266461849213,-2.83002400398254,2.58896374702454,0.26169136166573
331,3506658908,0.636568,0.380372,-0.562077,0.366288,9.84697246551514,0.73694622516632,0.78236931562424,-2.34045028686523,2.80709433555603,-0.01467607729137
332,3506675575,0.636980,0.379951,-0.561992,0.366138,9.81972217559814,0.72007203102112,0.80358475446701,-2.20691823959351,2.58413553237915,0.04878578707576
333,3506692242,0.637356,0.379583,-0.561909,0.365994,9.80383396148682,0.71105128526688,0.79512703418732,-1.87231385707855,2.32097792625427,-0.02805871143937
334,3506708909,0.637664,0.379281,-0.561824,0.365901,9.81053352355957,0.70172953605652,0.75843411684036,-1.19771397113800,2.03378295898438,0.10451903194189
335,3506725576,0.637925,0.379088,-0.561724,0.365800,9.84399509429932,0.69316107034683,0.77636307477951,-0.58532702922821,1.61698746681213,-0.27116167545319
336,3506742243,0.638106,0.379010,-0.561625,0.365716,9.83200454711914,0.67987304925919,0.73036342859268,0.18099853396416,1.06320238113403,-0.44267708063126
337,3506758910,0.638214,0.378974,-0.561572,0.365645,9.84797000885010,0.71364647150040,0.80482900142670,0.49545845389366,0.51074922084808,-0.23862069845200
338,3506775577,0.638321,0.378934,-0.561524,0.365577,9.85108947753906,0.73681348562241,0.82131516933441,0.46599105000496,0.49835270643234,-0.19770441949368
339,3506792244,0.638443,0.378886,-0.561453,0.365521,9.84816360473633,0.72810965776443,0.85217493772507,0.50622862577438,0.71194976568222,-0.21143282949924
340,3506808911,0.638572,0.378887,-0.561294,0.365539,9.88571548461914,0.73266923427582,0.84038913249969,1.20736336708069,1.18887102603912,-0.32356521487236
341,3506825578,0.638771,0.378856,-0.561115,0.365500,9.84880447387695,0.75114142894745,0.84194827079773,0.71855795383453,1.48409581184387,-0.67766082286835
342,3506842245,0.639036,0.378738,-0.561008,0.365323,9.83644580841064,0.75790780782700,0.82004654407501,-0.54861122369766,1.28020596504211,-0.92500269412994
343,3506858912,0.639273,0.378613,-0.560909,0.365189,9.85272026062012,0.76736688613892,0.79114025831223,-0.36270144581795,1.27200984954834,-0.61419254541397
344,3506875579,0.639426,0.378581,-0.560813,0.365101,9.83508968353271,0.79673802852631,0.79724216461182,0.43087604641914,0.81408041715622,-0.55566745996475
345,3506892246,0.639570,0.378593,-0.560700,0.365010,9.88180351257324,0.81033247709274,0.87700110673904,0.68647795915604,0.73858702182770,-0.76488488912582
346,3506908913,0.639779,0.378594,-0.560546,0.364879,9.87733840942383,0.76151382923126,0.87176156044006,0.39942365884781,1.09082567691803,-1.16299569606781
347,3506925580,0.640004,0.378591,-0.560372,0.364756,9.83216571807861,0.74222129583359,0.84947657585144,0.42976185679436,1.27432799339294,-1.20663988590240
348,3506942247,0.640051,0.378745,-0.560202,0.364774,9.87418460845947,0.73674190044403,0.75268495082855,2.12264609336853,0.54125398397446,-0.73796588182449
349,3506958914,0.640015,0.379104,-0.560057,0.364686,9.74378585815430,0.71184659004211,0.80212074518204,2.76649808883667,-0.67714858055115,-1.71251630783081
350,3506975581,0.640232,0.378943,-0.560110,0.364392,9.81579685211182,0.69751459360123,0.75730639696121,-1.46631419658661,0.18791396915913,-0.73665958642960
351,3506992248,0.640403,0.378427,-0.560650,0.363797,9.68624019622803,0.77377027273178,0.61671388149261,-5.28689670562744,-2.01865220069885,0.68263614177704
352,3507008915,0.640369,0.378116,-0.561146,0.363416,9.72420406341553,0.78083884716034,0.74519979953766,-2.93105292320251,-2.57607388496399,1.24305462837219
353,3507025582,0.640102,0.377990,-0.561555,0.363383,9.87791061401367,0.84773522615433,0.86188656091690,0.06316731870174,-2.64950537681580,2.40879106521606
354,3507042249,0.639794,0.378270,-0.561589,0.363583,9.93081665039062,0.79293185472488,0.83271098136902,3.78028702735901,-1.56510233879089,1.00057923793793
355,3507058916,0.639571,0.378782,-0.561431,0.363686,9.90854930877686,0.75713509321213,0.89811664819717,4.68887233734131,-1.22383880615234,-1.03913295269012
356,3507075583,0.639457,0.379187,-0.561339,0.363606,9.91076946258545,0.74231928586960,0.94371759891510,3.06743454933167,-1.30427551269531,-1.53097355365753
357,3507092250,0.639441,0.379345,-0.561340,0.363468,9.91862487792969,0.74342650175095,0.92033731937408,1.26563251018524,-0.86868035793304,-0.83368062973022
358,3507108917,0.639438,0.379346,-0.561418,0.363353,9.87874317169189,0.77342993021011,0.86938673257828,0.44139009714127,-0.70388823747635,0.04865772649646
359,3507125584,0.639374,0.379323,-0.561514,0.363340,9.85170555114746,0.76255166530609,0.88524836301804,0.84854239225388,-0.69138920307159,0.77942645549774
360,3507142251,0.639278,0.379410,-0.561530,0.363394,9.80543708801270,0.76364767551422,0.83964532613754,1.87141120433807,-0.57021552324295,0.52139127254486
361,3507158918,0.639140,0.379653,-0.561470,0.363475,9.84613418579102,0.75133925676346,0.82625144720078,2.96203851699829,-0.70852416753769,-0.05172485485673
362,3507175585,0.639070,0.379891,-0.561373,0.363501,9.83190822601318,0.75656384229660,0.82935297489166,2.64567017555237,-0.41833221912384,-0.54248982667923
363,3507192252,0.639070,0.380041,-0.561312,0.363437,9.84697246551514,0.72838956117630,0.82281506061554,1.63507008552551,-0.32236146926880,-0.67616248130798
364,3507208919,0.639095,0.380069,-0.561320,0.363351,9.86408519744873,0.75577098131180,0.82054269313812,0.77580219507217,-0.27911436557770,-0.18437300622463
365,3507225586,0.639120,0.380009,-0.561354,0.363317,9.87332630157471,0.77391624450684,0.80316644906998,0.51496243476868,-0.04140292480588,0.44532158970833
366,3507242253,0.639139,0.380017,-0.561339,0.363300,9.85622310638428,0.76245152950287,0.69422882795334,1.03732085227966,0.02830843627453,0.15068592131138
367,3507258920,0.639126,0.380130,-0.561324,0.363226,9.80335712432861,0.78493142127991,0.77807772159576,1.34437859058380,-0.50514650344849,-0.42958903312683
368,3507275587,0.639095,0.380279,-0.561265,0.363216,9.83149242401123,0.74456506967545,0.73568111658096,1.91768026351929,-0.30552104115486,-0.35089394450188
369,3507292254,0.639039,0.380501,-0.561177,0.363218,9.81854724884033,0.68413454294205,0.74110692739487,2.42205834388733,-0.42710450291634,-0.59999030828476
370,3507308921,0.638920,0.380787,-0.561085,0.363270,9.87085056304932,0.72234219312668,0.83846372365952,3.06948328018188,-0.68237352371216,-0.47903424501419
371,3507325588,0.638780,0.381034,-0.561024,0.363352,9.85154533386230,0.76540350914001,0.80637639760971,2.98642182350159,-0.71978098154068,-0.06257183104753
372,3507342255,0.638691,0.381117,-0.561021,0.363426,9.84687709808350,0.83135837316513,0.82094109058380,1.96138846874237,-0.38932579755783,0.56321680545807
373,3507358922,0.638681,0.381156,-0.560992,0.363447,9.83804798126221,0.83027058839798,0.76297485828400,1.42047381401062,-0.00691542867571,0.23096890747547
374,3507375589,0.638706,0.381193,-0.560960,0.363416,9.85360717773438,0.84170031547546,0.76713132858276,1.12973141670227,0.01854999922216,-0.08288270235062
375,3507392256,0.638743,0.381279,-0.560886,0.363373,9.83042621612549,0.83260673284531,0.79638916254044,1.37937843799591,0.09036800265312,-0.46734207868576
376,3507408923,0.638733,0.381453,-0.560777,0.363376,9.83425998687744,0.78815627098083,0.84130442142487,2.14695262908936,-0.03110662661493,-0.57707971334457
377,3507425590,0.638721,0.381588,-0.560684,0.363399,9.85039138793945,0.79192739725113,0.85652375221252,2.01619958877563,0.03489089384675,-0.29398256540298
378,3507442257,0.638789,0.381642,-0.560604,0.363346,9.82864093780518,0.81944078207016,0.80387485027313,1.12847638130188,0.30114772915840,-0.47868859767914
379,3507458924,0.638913,0.381602,-0.560581,0.363206,9.83220291137695,0.84975332021713,0.83648920059204,0.09032958000898,0.25649195909500,-0.48989409208298
380,3507475591,0.639024,0.381595,-0.560564,0.363044,9.84517955780029,0.84461778402328,0.79513734579086,0.17002350091934,0.05426691100001,-0.66023141145706
381,3507492258,0.639048,0.381767,-0.560491,0.362934,9.80477714538574,0.85208642482758,0.72232693433762,1.52565240859985,-0.35189285874367,-1.05827832221985
382,3507508925,0.638952,0.382176,-0.560371,0.362857,9.81657981872559,0.81583195924759,0.74866932630539,3.12581896781921,-1.11748218536377,-1.64851021766663
383,3507525592,0.638843,0.382604,-0.560276,0.362744,9.83891391754150,0.79930818080902,0.80108368396759,3.04735398292542,-1.40942835807800,-1.78197789192200
384,3507542259,0.638802,0.382898,-0.560223,0.362590,9.84328556060791,0.80530601739883,0.82534003257751,2.01338243484497,-1.11059224605560,-1.50771725177765
385,3507558926,0.638817,0.383069,-0.560199,0.362419,9.84048652648926,0.82378870248795,0.80658239126205,1.18570756912231,-0.75802052021027,-1.16957807540894
386,3507575593,0.638820,0.383210,-0.560188,0.362281,9.84978199005127,0.79976201057434,0.78401666879654,1.18736004829407,-0.69979012012482,-0.84127479791641
387,3507592260,0.638808,0.383352,-0.560141,0.362225,9.84200286865234,0.83127266168594,0.77414876222610,1.63022923469543,-0.38835254311562,-0.54406493902206
388,3507608927,0.638757,0.383551,-0.560069,0.362215,9.81449985504150,0.82700896263123,0.71943956613541,2.22738909721375,-0.45266604423523,-0.53483158349991
389,3507625594,0.638620,0.383827,-0.560035,0.362217,9.78727245330811,0.81314194202423,0.74218708276749,2.74444556236267,-1.10914516448975,-0.45970952510834
390,3507642261,0.638440,0.384134,-0.560010,0.362248,9.84871864318848,0.84080845117569,0.78953605890274,3.07756423950195,-1.30815577507019,-0.31963366270065
391,3507658928,0.638323,0.384391,-0.559957,0.362263,9.85523796081543,0.86648368835449,0.80341893434525,2.70784544944763,-0.86629843711853,-0.43384072184563
392,3507675595,0.638216,0.384605,-0.559924,0.362277,9.87413597106934,0.85969454050064,0.79423475265503,2.43071556091309,-0.80724823474884,-0.24125880002975
393,3507692262,0.638152,0.384733,-0.559889,0.362307,9.85941600799561,0.87195980548859,0.81429135799408,2.01060295104980,-0.38123217225075,0.04877297580242
394,3507708929,0.637915,0.385028,-0.559834,0.362496,9.81217002868652,0.87365925312042,0.63884025812149,3.86328577995300,-0.94797742366791,0.47872066497803
395,3507725596,0.637660,0.385363,-0.559851,0.362563,9.80519485473633,0.96502268314362,0.95291548967361,3.43689823150635,-1.76284563541412,0.02485072426498
396,3507742263,0.637674,0.385482,-0.559765,0.362543,9.89213371276855,0.86008417606354,0.77328449487686,1.69741129875183,0.03363588079810,-0.46535718441010
397,3507758930,0.637745,0.385362,-0.559904,0.362332,9.74418067932129,0.84499061107635,0.66564649343491,-0.79212397336960,-0.64526081085205,0.06753429025412
398,3507775597,0.637707,0.385322,-0.560053,0.362213,9.80186271667480,0.85798609256744,0.68682777881622,0.17084312438965,-1.05957186222076,0.46129113435745
399,3507792264,0.637524,0.385326,-0.560283,0.362172,9.85363292694092,0.84814459085464,0.72695893049240,0.83994936943054,-1.87965202331543,1.21153831481934
400,3507808931,0.637284,0.385478,-0.560392,0.362264,9.84504604339600,0.86187028884888,0.70963752269745,2.46421718597412,-1.58182764053345,1.04715621471405
401,3507825598,0.637029,0.385691,-0.560510,0.362304,9.82313728332520,0.86693292856216,0.72604542970657,2.54969930648804,-1.97062826156616,0.63987571001053
402,3507842265,0.636858,0.385820,-0.560648,0.362253,9.86341094970703,0.87110340595245,0.75346785783768,1.56248366832733,-1.76349854469299,0.41590544581413
403,3507858932,0.636747,0.385866,-0.560796,0.362170,9.87604522705078,0.85016483068466,0.71199053525925,0.87989234924316,-1.45767009258270,0.47106242179871
404,3507875599,0.636654,0.385882,-0.560939,0.362097,9.85641670227051,0.84386080503464,0.69483858346939,0.75733548402786,-1.26650953292847,0.56899249553680
405,3507892266,0.636541,0.385929,-0.561062,0.362055,9.80905437469482,0.85625153779984,0.67014575004578,1.10652625560760,-1.25002765655518,0.57848203182220
406,3507908933,0.636382,0.386026,-0.561183,0.362043,9.78847980499268,0.83837395906448,0.67320227622986,1.57292079925537,-1.45847678184509,0.63479155302048
407,3507925600,0.636191,0.386158,-0.561297,0.362061,9.81631278991699,0.84139764308929,0.71998792886734,1.94855654239655,-1.56580674648285,0.68914163112640
408,3507942267,0.636015,0.386325,-0.561387,0.362053,9.84098339080811,0.83971875905991,0.70088613033295,2.02084851264954,-1.55608665943146,0.33908012509346
409,3507958934,0.635867,0.386468,-0.561476,0.362023,9.84141445159912,0.85315215587616,0.71728384494781,1.76108443737030,-1.44079113006592,0.26490578055382
410,3507975601,0.635686,0.386613,-0.561585,0.362016,9.84367084503174,0.85718327760696,0.69212049245834,1.89003157615662,-1.60574984550476,0.48997738957405
411,3507992268,0.635484,0.386741,-0.561697,0.362061,9.87655067443848,0.86952406167984,0.74857884645462,2.06605482101440,-1.51116192340851,0.84713357686996
412,3508008935,0.635331,0.386813,-0.561773,0.362133,9.89994335174561,0.82899445295334,0.74629133939743,1.89517986774445,-0.95915728807449,0.95532172918320
413,3508025602,0.635160,0.386952,-0.561793,0.362254,9.86462688446045,0.81622284650803,0.65182304382324,2.55415606498718,-0.81682747602463,0.81018739938736
414,3508042269,0.635052,0.387051,-0.561796,0.362333,9.80775547027588,0.88310831785202,0.70271486043930,2.11519289016724,-0.51445668935776,0.58585852384567
415,3508058936,0.634890,0.387124,-0.561959,0.362286,9.81304645538330,0.86166524887085,0.72047472000122,1.23699736595154,-1.68470108509064,0.68865513801575
416,3508075603,0.634713,0.387210,-0.562042,0.362375,9.87682342529297,0.82789427042007,0.72987133264542,2.06328845024109,-1.07050836086273,1.05974459648132
417,3508092270,0.634510,0.387389,-0.562066,0.362502,9.83294200897217,0.88402897119522,0.70185565948486,2.83411598205566,-1.04405057430267,0.77367645502090
418,3508108937,0.634341,0.387599,-0.562057,0.362588,9.86192417144775,0.85248297452927,0.70487976074219,2.78572034835815,-0.96129590272903,0.30218505859375
419,3508125604,0.634235,0.387690,-0.562119,0.362581,9.85704994201660,0.87074398994446,0.66036951541901,1.58265340328217,-0.96792948246002,0.38682219386101
420,3508142271,0.634166,0.387703,-0.562204,0.362555,9.83835887908936,0.87607139348984,0.65335863828659,0.98394393920898,-0.78428649902344,0.57343631982803
421,3508158938,0.634104,0.387694,-0.562302,0.362522,9.84232711791992,0.87020820379257,0.66413301229477,0.83476275205612,-0.77867734432220,0.65164470672607
422,3508175605,0.634049,0.387683,-0.562386,0.362499,9.86710071563721,0.86837518215179,0.67532610893250,0.87675458192825,-0.66280537843704,0.64613789319992
423,3508192272,0.634018,0.387685,-0.562441,0.362465,9.84875774383545,0.85433471202850,0.71133685112000,0.89680939912796,-0.49930673837662,0.40883630514145
424,3508208939,0.633957,0.387701,-0.562511,0.362447,9.84519767761230,0.80709499120712,0.66272521018982,1.06600689888000,-0.67641848325729,0.53651553392410
425,3508225606,0.633891,0.387734,-0.562570,0.362435,9.86565780639648,0.82559001445770,0.65530347824097,1.19067680835724,-0.67011785507202,0.48243442177773
426,3508242273,0.633886,0.387704,-0.562641,0.362366,9.83348369598389,0.83711117506027,0.64519447088242,0.51938068866730,-0.48807555437088,0.35593327879906
427,3508258940,0.633868,0.387664,-0.562737,0.362290,9.85337448120117,0.82924723625183,0.62554365396500,0.41899171471596,-0.63687252998352,0.46687459945679
428,3508275607,0.633778,0.387693,-0.562842,0.362254,9.85483741760254,0.84720546007156,0.62211698293686,1.04552960395813,-1.02094793319702,0.57352596521378
429,3508292274,0.633661,0.387799,-0.562918,0.362227,9.85132026672363,0.84824484586716,0.63295257091522,1.55136752128601,-1.16943728923798,0.30967670679092
430,3508308941,0.633559,0.387895,-0.562997,0.362180,9.87936973571777,0.84659779071808,0.64792662858963,1.39719200134277,-1.14595067501068,0.22754964232445
431,3508325608,0.633482,0.387964,-0.563057,0.362148,9.85906124114990,0.85891771316528,0.67777955532074,1.29095053672791,-0.86706668138504,0.28925061225891
432,3508342275,0.633427,0.388023,-0.563113,0.362094,9.85466766357422,0.84241849184036,0.63042873144150,1.14048862457275,-0.79047185182571,0.16267265379429
433,3508358942,0.633384,0.388051,-0.563182,0.362030,9.85851669311523,0.83082324266434,0.64973092079163,0.89485013484955,-0.75136142969131,0.24673354625702
434,3508375609,0.633323,0.388086,-0.563258,0.361982,9.84435653686523,0.84958374500275,0.61173516511917,1.00664961338043,-0.83310431241989,0.34552171826363
435,3508392276,0.633256,0.388099,-0.563360,0.361927,9.85941696166992,0.85986775159836,0.62830030918121,0.84928506612778,-0.92930549383163,0.49355027079582
436,3508408943,0.633189,0.388156,-0.563412,0.361902,9.86004734039307,0.84112191200256,0.62726384401321,1.27544188499451,-0.73920810222626,0.31346741318703
437,3508425610,0.633125,0.388208,-0.563464,0.361878,9.85238170623779,0.82970780134201,0.63342678546906,1.24174869060516,-0.71479928493500,0.33352217078209
438,3508442277,0.633075,0.388243,-0.563504,0.361866,9.87077522277832,0.82960748672485,0.65872758626938,1.21879959106445,-0.53462666273117,0.38442736864090
439,3508458944,0.633046,0.388279,-0.563526,0.361843,9.87193489074707,0.84334927797318,0.60659116506577,1.16252839565277,-0.40748524665833,0.23153239488602
440,3508475611,0.633030,0.388291,-0.563565,0.361797,9.85301685333252,0.85061103105545,0.64001011848450,0.87807369232178,-0.43583843111992,0.23954917490482
441,3508492278,0.633022,0.388286,-0.563609,0.361747,9.83398342132568,0.85327291488647,0.61521619558334,0.77447038888931,-0.38419049978256,0.28150278329849
442,3508508945,0.633016,0.388277,-0.563665,0.361681,9.83217430114746,0.84170126914978,0.57884705066681,0.66982966661453,-0.46814891695976,0.25327757000923
443,3508525612,0.632962,0.388314,-0.563733,0.361629,9.83995437622070,0.80731046199799,0.63325309753418,1.00299978256226,-0.78030371665955,0.28129786252975
444,3508542279,0.632923,0.388328,-0.563798,0.361582,9.85354709625244,0.84206455945969,0.64169222116470,0.89721918106079,-0.64669495820999,0.35753405094147
445,3508558946,0.632883,0.388340,-0.563865,0.361534,9.85154628753662,0.84591317176819,0.63691383600235,0.88297867774963,-0.64990949630737,0.36117112636566
446,3508575613,0.632850,0.388316,-0.563960,0.361469,9.85863685607910,0.85922509431839,0.61393278837204,0.57948100566864,-0.70177513360977,0.48508530855179
447,3508592280,0.632834,0.388268,-0.564054,0.361401,9.86495399475098,0.85385698080063,0.60399508476257,0.42982590198517,-0.57572227716446,0.52363240718842
448,3508608947,0.632617,0.388490,-0.564101,0.361469,9.81328964233398,0.85616654157639,0.49713134765625,2.76936650276184,-1.46202409267426,0.44482213258743
449,3508625614,0.632566,0.388533,-0.564216,0.361333,9.95497989654541,0.83984518051147,0.84266030788422,0.58323323726654,-1.21281254291534,0.01628327369690
450,3508642281,0.632652,0.388426,-0.564307,0.361156,9.79018592834473,0.79164713621140,0.54683429002762,-0.52713495492935,-0.31465202569962,0.01177543681115
451,3508658948,0.632710,0.388233,-0.564458,0.361026,9.85975265502930,0.84617847204208,0.56297653913498,-0.80503273010254,-0.34911388158798,0.78429287672043
452,3508675615,0.632634,0.388147,-0.564677,0.360911,9.83356285095215,0.80826437473297,0.59203237295151,-0.09043844789267,-1.38714551925659,0.94720256328583
453,3508692282,0.632450,0.388149,-0.564840,0.360975,9.91173744201660,0.85319024324417,0.67450141906738,1.45023596286774,-1.30581223964691,1.50581538677216
454,3508708949,0.632272,0.388285,-0.564922,0.361012,9.86306667327881,0.82466620206833,0.60058408975601,2.08285689353943,-1.33136093616486,0.63399755954742
455,3508725616,0.632120,0.388413,-0.565012,0.360999,9.87941646575928,0.82641571760178,0.64983510971069,1.74911057949066,-1.38134419918060,0.40261247754097
456,3508742283,0.632055,0.388466,-0.565063,0.360976,9.88163471221924,0.83868753910065,0.60420596599579,1.26948702335358,-0.71497851610184,0.33044865727425
457,3508758950,0.632023,0.388494,-0.565104,0.360937,9.86245441436768,0.81281846761703,0.56460255384445,1.03758978843689,-0.52074462175369,0.25426369905472
458,3508775617,0.631958,0.388546,-0.565151,0.360922,9.86146354675293,0.84247237443924,0.55219399929047,1.30296277999878,-0.67103993892670,0.35898116230965
459,3508792284,0.631861,0.388649,-0.565187,0.360925,9.85676860809326,0.84838253259659,0.56921017169952,1.68258142471313,-0.82927513122559,0.28932744264603
460,3508808951,0.631759,0.388770,-0.565199,0.360953,9.83361911773682,0.81253314018250,0.53525704145432,1.94407415390015,-0.72395569086075,0.27922323346138
461,3508825618,0.631692,0.388832,-0.565251,0.360923,9.82470035552979,0.81752681732178,0.54100328683853,1.29928743839264,-0.76401400566101,0.27264076471329
462,3508842285,0.631658,0.388888,-0.565294,0.360855,9.84853363037109,0.84524238109589,0.56797200441360,1.02295196056366,-0.69188868999481,0.02710463665426
463,3508858952,0.631635,0.388924,-0.565341,0.360782,9.87286758422852,0.85690605640411,0.57633256912231,0.89118748903275,-0.62004500627518,0.06440953165293
464,3508875619,0.631609,0.388968,-0.565374,0.360729,9.85693931579590,0.83392792940140,0.57133322954178,1.03470814228058,-0.53989011049271,0.09447884559631
465,3508892286,0.631600,0.388990,-0.565402,0.360676,9.87892150878906,0.82467424869537,0.57647991180420,0.94584500789642,-0.40268284082413,0.12292174249887
466,3508908953,0.631593,0.389036,-0.565375,0.360683,9.86437416076660,0.79531276226044,0.47236588597298,1.37764954566956,-0.04939408600330,0.13390961289406
467,3508925620,0.631547,0.389128,-0.565349,0.360705,9.81356811523438,0.83853453397751,0.55233168601990,1.75217127799988,-0.28332769870758,0.12698137760162
468,3508942287,0.631471,0.389205,-0.565405,0.360666,9.81734848022461,0.85510700941086,0.58997422456741,1.31506490707397,-0.88539266586304,0.20857062935829
469,3508958954,0.631410,0.389240,-0.565464,0.360643,9.88349056243896,0.80997872352600,0.58404749631882,1.15411472320557,-0.68817478418350,0.41393321752548
470,3508975621,0.631359,0.389295,-0.565467,0.360667,9.85014438629150,0.84783571958542,0.54201549291611,1.52741980552673,-0.32791942358017,0.36497461795807
471,3508992288,0.631252,0.389427,-0.565468,0.360712,9.88648223876953,0.85026943683624,0.57148748636246,2.10204076766968,-0.67535567283630,0.28727844357491
472,3509008955,0.631174,0.389506,-0.565493,0.360724,9.86167621612549,0.87329179048538,0.58180356025696,1.61203122138977,-0.62005782127380,0.34794211387634
473,3509025622,0.631137,0.389507,-0.565544,0.360708,9.85938930511475,0.87077283859253,0.57895219326019,0.98449462652206,-0.45988887548447,0.49885216355324
474,3509042289,0.631110,0.389494,-0.565586,0.360702,9.87581062316895,0.85513305664062,0.60939502716064,0.97939771413803,-0.31914705038071,0.54422503709793
475,3509058956,0.631115,0.389491,-0.565584,0.360701,9.87893962860107,0.83881580829620,0.61758422851562,1.02751100063324,-0.00819606333971,0.32586395740509
476,3509075623,0.631139,0.389449,-0.565600,0.360679,9.85329151153564,0.81826484203339,0.62274640798569,0.70429158210754,0.02076549455523,0.39113792777061
477,3509092290,0.631177,0.389347,-0.565639,0.360662,9.85959529876709,0.83162909746170,0.57183587551117,0.39396810531616,0.13777710497379,0.67450404167175
478,3509108957,0.631188,0.389260,-0.565697,0.360645,9.85702705383301,0.84507358074188,0.54200583696365,0.45009836554527,-0.07850292325020,0.73505240678787
479,3509125624,0.631173,0.389214,-0.565751,0.360636,9.83942985534668,0.86362510919571,0.56076103448868,0.75907713174820,-0.25386026501656,0.66115981340408
480,3509142291,0.631164,0.389221,-0.565778,0.360603,9.84779357910156,0.84375321865082,0.56761664152145,0.94236165285110,-0.30518811941147,0.26860681176186
481,3509158958,0.631174,0.389209,-0.565820,0.360533,9.84881019592285,0.82464122772217,0.54706317186356,0.62790167331696,-0.34514391422272,0.17083029448986
482,3509175625,0.631152,0.389190,-0.565884,0.360489,9.84319877624512,0.82413035631180,0.56401509046555,0.73315709829330,-0.47744622826576,0.45063620805740
483,3509192292,0.631110,0.389192,-0.565942,0.360471,9.84277343750000,0.81970143318176,0.55507707595825,0.98354685306549,-0.51445668935776,0.51191461086273
484,3509208959,0.631042,0.389186,-0.566026,0.360464,9.85534477233887,0.82471293210983,0.55133074522018,1.00066900253296,-0.68327003717422,0.72885417938232
485,3509225626,0.630962,0.389183,-0.566119,0.360461,9.86774253845215,0.83860909938812,0.58084505796432,1.01370584964752,-0.76132470369339,0.78279453516006
486,3509242293,0.630911,0.389163,-0.566201,0.360444,9.86201190948486,0.84437590837479,0.55569481849670,0.88272255659103,-0.59368962049484,0.69420021772385
487,3509258960,0.630862,0.389150,-0.566271,0.360432,9.84622573852539,0.83787786960602,0.57128804922104,0.92514997720718,-0.54300206899643,0.64373040199280
488,3509275627,0.630805,0.389151,-0.566344,0.360417,9.85528373718262,0.82441955804825,0.53575879335403,1.00453650951385,-0.62532126903534,0.61011373996735
489,3509292294,0.630745,0.389136,-0.566423,0.360415,9.86253166198730,0.83567661046982,0.55692368745804,0.95555210113525,-0.59614837169647,0.74555367231369
490,3509308961,0.630690,0.389096,-0.566514,0.360412,9.84120273590088,0.83663797378540,0.56249117851257,0.80790781974792,-0.56098216772079,0.86991614103317
491,3509325628,0.630627,0.389085,-0.566591,0.360412,9.85486221313477,0.81689649820328,0.54387688636780,0.98649233579636,-0.60369127988815,0.74209594726562
492,3509342295,0.630584,0.389067,-0.566644,0.360423,9.86022758483887,0.82787114381790,0.53883230686188,1.02856123447418,-0.36645373702049,0.70404833555222
493,3509358962,0.630555,0.389053,-0.566697,0.360404,9.83718490600586,0.82315808534622,0.50577443838120,0.88094246387482,-0.40964952111244,0.52504116296768
494,3509375629,0.630503,0.389033,-0.566782,0.360384,9.85223102569580,0.79002487659454,0.51818621158600,0.84381681680679,-0.62310582399368,0.69284284114838
495,3509392296,0.630462,0.388992,-0.566863,0.360371,9.88768291473389,0.82897675037384,0.57251268625259,0.75738674402237,-0.48548874258995,0.76275259256363
496,3509408963,0.630431,0.388972,-0.566923,0.360354,9.88251495361328,0.81949645280838,0.55215531587601,0.83809226751328,-0.42920479178429,0.57895576953888
497,3509425630,0.630423,0.388954,-0.566970,0.360315,9.86636352539062,0.82233083248138,0.57786178588867,0.75938451290131,-0.33810040354729,0.39054882526398
498,3509442297,0.630421,0.388921,-0.567018,0.360277,9.84394931793213,0.81866866350174,0.53748178482056,0.68199574947357,-0.28254649043083,0.43604978919029
499,3509458964,0.630209,0.389125,-0.567036,0.360400,9.80729198455811,0.84755092859268,0.37598618865013,2.96550846099854,-1.12940478324890,0.64994144439697
500,3509475631,0.630190,0.389112,-0.567171,0.360235,9.96572685241699,0.81592226028442,0.79131066799164,0.08039186149836,-1.11114299297333,0.08738413453102
501,3509492298,0.630332,0.388881,-0.567227,0.360147,9.82046699523926,0.74310237169266,0.43340557813644,-0.79093295335770,0.60100847482681,0.65551227331161
502,3509508965,0.630438,0.388631,-0.567365,0.360015,9.82959270477295,0.83428525924683,0.46183544397354,-1.19503736495972,0.02683570794761,0.84895217418671
503,3509525632,0.630427,0.388528,-0.567518,0.359903,9.81284141540527,0.77970838546753,0.49475452303886,-0.15362496674061,-0.79756665229797,0.68980759382248
504,3509542299,0.630242,0.388539,-0.567664,0.359985,9.91312885284424,0.81945180892944,0.57737910747528,1.55880808830261,-1.21429812908173,1.50010383129120
505,3509558966,0.630082,0.388699,-0.567667,0.360089,9.86123752593994,0.82869356870651,0.54343032836914,2.59703183174133,-0.79924422502518,0.57141286134720
506,3509575633,0.629922,0.388841,-0.567728,0.360118,9.89003753662109,0.80000299215317,0.55071371793747,2.09617543220520,-1.20858645439148,0.46955123543739
507,3509592300,0.629849,0.388877,-0.567789,0.360110,9.90769100189209,0.84196513891220,0.57673126459122,1.24500131607056,-0.70397788286209,0.50808548927307
508,3509608967,0.629853,0.388848,-0.567814,0.360095,9.90419101715088,0.81105232238770,0.53960049152374,0.81012326478958,-0.10624147206545,0.44761392474174
509,3509625634,0.629853,0.388838,-0.567802,0.360126,9.86441993713379,0.80088263750076,0.50491571426392,1.17578303813934,0.10837374627590,0.48184534907341
510,3509642301,0.629804,0.388951,-0.567748,0.360174,9.81553745269775,0.79394769668579,0.47338491678238,2.02470302581787,-0.15534102916718,0.08478443324566
511,3509658968,0.629686,0.389141,-0.567686,0.360273,9.82174205780029,0.78156596422195,0.48248183727264,2.74777531623840,-0.44315090775490,0.15126220881939
512,3509675635,0.629577,0.389245,-0.567685,0.360353,9.82669734954834,0.80770146846771,0.49016702175140,2.11962389945984,-0.51149845123291,0.54768276214600
513,3509692302,0.629527,0.389269,-0.567732,0.360341,9.87807178497314,0.83170670270920,0.52859932184219,1.16389846801758,-0.53705984354019,0.44761386513710
514,3509708969,0.629522,0.389256,-0.567764,0.360311,9.88288307189941,0.83205127716064,0.52486032247543,0.81920295953751,-0.25533300638199,0.35798230767250
515,3509725636,0.629530,0.389250,-0.567769,0.360298,9.87397766113281,0.84426802396774,0.50451678037643,0.94821405410767,-0.06272549927235,0.29697284102440
516,3509742303,0.629561,0.389256,-0.567740,0.360283,9.87638282775879,0.81795942783356,0.53345090150833,1.03999733924866,0.15041698515415,0.09631016105413
517,3509758970,0.629579,0.389300,-0.567660,0.360329,9.87815952301025,0.76982414722443,0.42924034595490,1.58661067485809,0.38304433226585,0.11203633993864
518,3509775637,0.629614,0.389323,-0.567596,0.360344,9.83029079437256,0.83633154630661,0.56286108493805,1.31806159019470,0.35584369301796,0.05915893614292
519,3509792304,0.629611,0.389332,-0.567616,0.360309,9.84376811981201,0.79957354068756,0.52180451154709,0.92375409603119,-0.26480969786644,0.21114471554756
520,3509808971,0.629638,0.389257,-0.567672,0.360254,9.89491176605225,0.77860468626022,0.60418951511383,0.31683546304703,-0.15162716805935,0.47792655229568
521,3509825638,0.629683,0.389249,-0.567584,0.360323,9.84047508239746,0.83731931447983,0.46718531847000,1.39829325675964,0.72054284811020,0.32200923562050
522,3509842305,0.629643,0.389337,-0.567540,0.360368,9.86683654785156,0.81140679121017,0.53476768732071,1.84348046779633,-0.11055721342564,0.17495393753052
523,3509858972,0.629640,0.389364,-0.567499,0.360406,9.89295387268066,0.85574460029602,0.56830078363419,1.45220780372620,0.15027610957623,0.29620441794395
524,3509875639,0.629692,0.389333,-0.567460,0.360413,9.90998935699463,0.82901591062546,0.54383713006973,0.92271661758423,0.42244943976402,0.25660723447800
525,3509892306,0.629810,0.389231,-0.567408,0.360396,9.89137172698975,0.80692929029465,0.53669911623001,0.36370673775673,0.84361183643341,0.23151959478855
526,3509908973,0.629958,0.389134,-0.567313,0.360393,9.87866020202637,0.81153082847595,0.55661612749100,0.50410276651382,1.17705082893372,0.08659013360739
527,3509925640,0.630094,0.389068,-0.567198,0.360409,9.86532115936279,0.78870069980621,0.54469323158264,0.75725877285004,1.18492674827576,0.02392866462469
528,3509942307,0.630218,0.388958,-0.567115,0.360439,9.82577228546143,0.79198443889618,0.53833937644958,0.59153175354004,1.15314137935638,0.36998185515404
529,3509958974,0.630333,0.388829,-0.567057,0.360470,9.84723281860352,0.80959349870682,0.53368687629700,0.47736310958862,1.05016553401947,0.53973001241684
530,3509975641,0.630426,0.388736,-0.567005,0.360490,9.83778953552246,0.84486091136932,0.52729606628418,0.63608497381210,0.82829552888870,0.41813370585442
531,3509992308,0.630511,0.388675,-0.566965,0.360468,9.84749412536621,0.82493090629578,0.53979986906052,0.58140182495117,0.55024397373199,0.16076450049877
532,3510008975,0.630590,0.388611,-0.566927,0.360461,9.84951782226562,0.82074773311615,0.53511720895767,0.64986467361450,0.56585496664047,0.26371482014656
533,3510025642,0.630653,0.388569,-0.566887,0.360457,9.87061119079590,0.81561774015427,0.50767880678177,0.81329923868179,0.46180334687233,0.22546216845512
534,3510042309,0.630709,0.388553,-0.566827,0.360471,9.85170269012451,0.81405127048492,0.50433987379074,1.05412268638611,0.51217073202133,0.16131520271301
535,3510058976,0.630732,0.388541,-0.566796,0.360492,9.86052322387695,0.81361567974091,0.54621189832687,1.13741517066956,0.26116633415222,0.34033516049385
536,3510075643,0.630757,0.388507,-0.566783,0.360506,9.85613727569580,0.82569938898087,0.55542546510696,0.94927698373795,0.23020052909851,0.43695902824402
537,3510092310,0.630795,0.388469,-0.566768,0.360504,9.86424350738525,0.81632238626480,0.56956338882446,0.82138001918793,0.25275251269341,0.34723773598671
538,3510108977,0.630871,0.388427,-0.566705,0.360516,9.87100410461426,0.82371807098389,0.54865157604218,0.88404148817062,0.66173607110977,0.19858166575432
539,3510125644,0.630936,0.388410,-0.566648,0.360510,9.84938049316406,0.81486368179321,0.54496610164642,0.94473075866699,0.47832354903221,0.06634329259396
540,3510142311,0.630991,0.388381,-0.566596,0.360526,9.84676551818848,0.82301086187363,0.55165296792984,1.01713800430298,0.50526815652847,0.24838556349277
541,3510158978,0.631043,0.388359,-0.566540,0.360546,9.85098075866699,0.81852000951767,0.58000296354294,1.04421067237854,0.50846976041794,0.22949619591236
542,3510175645,0.631085,0.388343,-0.566472,0.360597,9.88759613037109,0.82209581136703,0.57141572237015,1.26602935791016,0.58378392457962,0.34156456589699
543,3510192312,0.631151,0.388315,-0.566392,0.360638,9.86079692840576,0.80535507202148,0.56466066837311,1.12933433055878,0.73640990257263,0.24724580347538
544,3510208979,0.631233,0.388285,-0.566313,0.360651,9.84785175323486,0.78727263212204,0.56966364383698,0.95333677530289,0.72720217704773,0.10189372301102
545,3510225646,0.631308,0.388241,-0.566258,0.360653,9.83286762237549,0.80647307634354,0.54751718044281,0.83773380517960,0.60030400753021,0.18722242116928
546,3510242313,0.631359,0.388172,-0.566235,0.360674,9.86229610443115,0.81211471557617,0.54314237833023,0.76927095651627,0.47741428017616,0.50987839698792
547,3510258980,0.631392,0.388122,-0.566202,0.360723,9.86900234222412,0.83225566148758,0.57889765501022,1.04454362392426,0.48047503829002,0.57931447029114
548,3510275647,0.631416,0.388122,-0.566123,0.360803,9.88187122344971,0.83090519905090,0.59083408117294,1.52524268627167,0.60205852985382,0.41584140062332
549,3510292314,0.631514,0.388105,-0.565994,0.360852,9.86975955963135,0.82903826236725,0.60337507724762,1.24964988231659,1.07156491279602,0.03199666365981
550,3510308981,0.631501,0.388158,-0.565877,0.361003,9.89881324768066,0.82006233930588,0.50447160005569,2.20191740989685,0.67902475595474,0.50812399387360
551,3510325648,0.631509,0.388269,-0.565786,0.361010,9.77748394012451,0.81592410802841,0.64255547523499,1.78962981700897,0.12032207101583,-0.31927514076233
552,3510342315,0.631624,0.388225,-0.565672,0.361036,9.89542770385742,0.77630597352982,0.48519772291183,0.94888007640839,1.07247412204742,0.03453232347965
553,3510358982,0.631826,0.387837,-0.565909,0.360726,9.72955036163330,0.80969983339310,0.52265518903732,-2.95655083656311,-0.15485440194607,0.63014292716980
554,3510375649,0.631847,0.387601,-0.566080,0.360677,9.85536479949951,0.80528074502945,0.53916317224503,-0.62480890750885,-0.25275892019272,1.44965958595276
555,3510392316,0.631699,0.387511,-0.566310,0.360673,9.88858795166016,0.84332787990570,0.59828794002533,0.46371152997017,-1.41064500808716,1.65406179428101
556,3510408983,0.631577,0.387654,-0.566235,0.360851,9.93867874145508,0.83129543066025,0.57521402835846,2.88233160972595,-0.07694055140018,0.65653675794601
557,3510425650,0.631445,0.387933,-0.566097,0.360997,9.84902000427246,0.80174154043198,0.52680498361588,3.54865860939026,-0.26500180363655,-0.15147350728512
558,3510442317,0.631381,0.388110,-0.566022,0.361037,9.84982490539551,0.79465097188950,0.60890591144562,2.38187217712402,-0.30538022518158,-0.21836107969284
559,3510458984,0.631397,0.388121,-0.565994,0.361039,9.87281894683838,0.78801953792572,0.60996419191360,1.15562570095062,0.11861880123615,0.19751872122288
560,3510475651,0.631430,0.388075,-0.565983,0.361049,9.82233142852783,0.81117808818817,0.57559454441071,0.85167992115021,0.27329391241074,0.44744747877121
561,3510492318,0.631420,0.388068,-0.565993,0.361059,9.80807304382324,0.79736715555191,0.55045741796494,1.09441149234772,-0.08525187522173,0.46488973498344
562,3510508985,0.631353,0.388073,-0.566025,0.361120,9.78972911834717,0.79121845960617,0.56402564048767,1.44105386734009,-0.29486620426178,0.83960360288620
563,3510525652,0.631256,0.388072,-0.566092,0.361186,9.80748462677002,0.79980683326721,0.50508689880371,1.41948771476746,-0.53863501548767,1.05124115943909
564,3510542319,0.631180,0.388070,-0.566178,0.361186,9.82960033416748,0.82394224405289,0.51029640436172,1.06238281726837,-0.70995843410492,0.76065236330032
565,3510558986,0.631109,0.388067,-0.566293,0.361133,9.85556983947754,0.83798956871033,0.54588478803635,0.74474686384201,-0.95742839574814,0.60601568222046
566,3510575653,0.631025,0.388058,-0.566418,0.361094,9.87835121154785,0.84559059143066,0.59267663955688,0.79556244611740,-0.99984300136566,0.74579703807831
567,3510592320,0.630960,0.388051,-0.566512,0.361068,9.89379787445068,0.81755930185318,0.57445007562637,0.87525641918182,-0.75886589288712,0.66587263345718
568,3510608987,0.630867,0.388164,-0.566517,0.361100,9.87046527862549,0.73859393596649,0.42499119043350,1.96027433872223,-0.62217092514038,0.28808525204659
569,3510625654,0.630898,0.388112,-0.566597,0.360975,9.83336544036865,0.81844377517700,0.68303775787354,0.08263297379017,-0.47670361399651,0.13671419024467
570,3510642321,0.630926,0.387944,-0.566750,0.360868,9.86442947387695,0.74573445320129,0.55614793300629,-0.51860594749451,-0.46662491559982,0.87257981300354
571,3510658988,0.630888,0.387857,-0.566867,0.360845,9.83749961853027,0.76196217536926,0.50664365291595,0.41767272353172,-0.54944366216660,0.98291939496994
572,3510675655,0.630805,0.387881,-0.566953,0.360828,9.81641006469727,0.81402266025543,0.55694746971130,1.13336837291718,-0.84849756956100,0.61015218496323
573,3510692322,0.630624,0.387970,-0.567087,0.360838,9.85435295104980,0.81952995061874,0.56714528799057,1.62929427623749,-1.52756702899933,0.84075611829758
574,3510708989,0.630481,0.388054,-0.567206,0.360811,9.88621520996094,0.86689996719360,0.62261164188385,1.41013908386230,-1.40282046794891,0.57106709480286
575,3510725656,0.630439,0.388057,-0.567319,0.360704,9.90793895721436,0.80963009595871,0.58615714311600,0.49718728661537,-0.99136513471603,0.26639127731323
576,3510742323,0.630472,0.387990,-0.567411,0.360572,9.87578201293945,0.81180977821350,0.58914798498154,-0.05767979472876,-0.50684964656830,0.19552092254162
577,3510758990,0.630509,0.387917,-0.567490,0.360463,9.87749195098877,0.80045545101166,0.57596611976624,0.02747602201998,-0.35882112383842,0.26721087098122
578,3510775657,0.630509,0.387862,-0.567562,0.360409,9.86645889282227,0.77217465639114,0.56314176321030,0.43911048769951,-0.36213794350624,0.51324641704559
579,3510792324,0.630479,0.387802,-0.567652,0.360384,9.83632278442383,0.77550548315048,0.53336030244827,0.58127379417419,-0.47245183587074,0.78052777051926
580,3510808991,0.630421,0.387783,-0.567758,0.360339,9.84505939483643,0.79618579149246,0.54871469736099,0.70251148939133,-0.80746591091156,0.64507496356964
581,3510825658,0.630354,0.387775,-0.567877,0.360278,9.85897827148438,0.80185449123383,0.53003895282745,0.68966680765152,-0.96691787242889,0.59081459045410
582,3510842325,0.630303,0.387749,-0.568013,0.360180,9.85194683074951,0.81121951341629,0.54058998823166,0.37085270881653,-1.03434324264526,0.50489675998688
583,3510858992,0.630261,0.387753,-0.568110,0.360096,9.86394786834717,0.80691456794739,0.52560746669769,0.63908165693283,-0.86442857980728,0.32126650214195
584,3510875659,0.630177,0.387824,-0.568184,0.360050,9.86859607696533,0.79362785816193,0.52177399396896,1.23745834827423,-0.99281221628189,0.27466416358948
585,3510892326,0.630070,0.387910,-0.568269,0.360010,9.85323810577393,0.78427475690842,0.50887960195541,1.35765886306763,-1.14995920658112,0.31445357203484
586,3510908993,0.629975,0.387957,-0.568385,0.359943,9.87679481506348,0.80448681116104,0.55351036787033,0.97707968950272,-1.22182822227478,0.41514983773232
587,3510925660,0.629911,0.387972,-0.568490,0.359872,9.89159965515137,0.81250971555710,0.54176473617554,0.80088984966278,-0.97264224290848,0.41435584425926
588,3510942327,0.629859,0.387989,-0.568574,0.359812,9.87547397613525,0.81366097927094,0.51331663131714,0.82093191146851,-0.82049006223679,0.35928857326508
589,3510958994,0.629824,0.388015,-0.568653,0.359721,9.85620021820068,0.79673701524734,0.48318988084793,0.74358141422272,-0.83183640241623,0.14802217483521
590,3510975661,0.629761,0.388069,-0.568733,0.359648,9.83153629302979,0.77829396724701,0.48278939723969,1.00308942794800,-0.96206426620483,0.18136994540691
591,3510992328,0.629659,0.388148,-0.568820,0.359603,9.85385036468506,0.80267238616943,0.51669281721115,1.29981267452240,-1.14185261726379,0.31768074631691
592,3511008995,0.629545,0.388265,-0.568877,0.359586,9.85531139373779,0.80167150497437,0.50052809715271,1.67352735996246,-1.07259571552277,0.24601636826992
593,3511025662,0.629448,0.388369,-0.568931,0.359557,9.88414382934570,0.81040877103806,0.51592242717743,1.55127787590027,-0.99026376008987,0.18911775946617
594,3511042329,0.629427,0.388402,-0.568975,0.359488,9.86919498443604,0.82329249382019,0.54824143648148,0.87443673610687,-0.58854132890701,0.08443865925074
595,3511058996,0.629253,0.388546,-0.569018,0.359571,9.88305568695068,0.80689507722855,0.38026881217957,2.36688899993896,-1.05324554443359,0.67997241020203
596,3511075663,0.629108,0.388739,-0.569102,0.359483,9.83603763580322,0.85433632135391,0.62145203351974,1.73484408855438,-1.68718528747559,-0.21345624327660
597,3511092330,0.629198,0.388694,-0.569096,0.359381,9.91481685638428,0.75964725017548,0.44634285569191,0.27088630199432,0.16915266215801,-0.16557328402996
598,3511108997,0.629236,0.388450,-0.569395,0.359107,9.77982616424561,0.74964958429337,0.36575642228127,-1.88889825344086,-1.31942546367645,0.81204426288605
599,3511125664,0.629118,0.388421,-0.569593,0.359030,9.82976150512695,0.81056988239288,0.44270554184914,0.47149771451950,-1.50320911407471,0.94698458909988
600,3511142331,0.628874,0.388445,-0.569885,0.358968,9.87780189514160,0.80625993013382,0.49595931172371,0.85039931535721,-2.48940086364746,1.35946464538574
601,3511158998,0.628623,0.388580,-0.570025,0.359040,9.90625667572021,0.80088657140732,0.50139409303665,2.25904679298401,-1.77525472640991,1.10893380641937
602,3511175665,0.628400,0.388811,-0.570091,0.359076,9.87152290344238,0.80865156650543,0.49294242262840,2.63582229614258,-1.68052625656128,0.31709167361259
603,3511192332,0.628207,0.388997,-0.570182,0.359066,9.88055515289307,0.78873127698898,0.49947151541710,2.14049839973450,-1.68566155433655,0.29238817095757
604,3511208999,0.628091,0.389061,-0.570297,0.359018,9.91168403625488,0.77686709165573,0.48621520400047,1.17944562435150,-1.28639781475067,0.47523725032806
605,3511225666,0.628012,0.389070,-0.570407,0.358973,9.87770462036133,0.78918206691742,0.46398758888245,0.87544840574265,-0.97207885980606,0.59774279594421
606,3511242333,0.627913,0.389113,-0.570499,0.358952,9.86419105529785,0.78535544872284,0.43102440237999,1.22317922115326,-0.99232554435730,0.56757098436356
607,3511259000,0.627781,0.389194,-0.570588,0.358953,9.85931301116943,0.79016900062561,0.42476081848145,1.57929813861847,-1.14578390121460,0.59721761941910
608,3511275667,0.627640,0.389286,-0.570661,0.358984,9.84075736999512,0.80508971214294,0.43376052379608,1.77325057983398,-1.06096768379211,0.65324556827545
609,3511292334,0.627540,0.389353,-0.570739,0.358963,9.87638568878174,0.80658060312271,0.42418470978737,1.35258734226227,-0.99611628055573,0.44314450025558
610,3511309001,0.627495,0.389361,-0.570832,0.358885,9.86929416656494,0.80349767208099,0.43354627490044,0.68722081184387,-0.85378658771515,0.32692688703537
611,3511325668,0.627455,0.389329,-0.570929,0.358833,9.89352226257324,0.81719881296158,0.45334947109222,0.59985584020615,-0.68161791563034,0.60044485330582
612,3511342335,0.627401,0.389333,-0.570999,0.358814,9.88850402832031,0.79972511529922,0.45954391360283,0.97363483905792,-0.62199163436890,0.56118065118790
613,3511359002,0.627303,0.389431,-0.570999,0.358879,9.87852478027344,0.76370656490326,0.34518393874168,1.99599134922028,-0.50231629610062,0.48005244135857
614,3511375669,0.627295,0.389430,-0.571048,0.358817,9.83551216125488,0.83590221405029,0.51582944393158,0.70958060026169,-0.45326796174049,0.22147943079472
615,3511392336,0.627247,0.389418,-0.571142,0.358763,9.85182094573975,0.76572042703629,0.35913869738579,0.70198649168015,-0.75863534212112,0.52504116296768
616,3511409003,0.627113,0.389485,-0.571260,0.358737,9.86557197570801,0.77775949239731,0.48176380991936,1.33615672588348,-1.31352150440216,0.61144548654556
617,3511425670,0.626989,0.389636,-0.571251,0.358805,9.86530113220215,0.77489364147186,0.47639995813370,2.33302903175354,-0.68817478418350,0.32229101657867
618,3511442337,0.626810,0.389801,-0.571292,0.358871,9.88809585571289,0.79952198266983,0.45444062352180,2.42353081703186,-1.15565764904022,0.52360671758652
619,3511459004,0.626704,0.389896,-0.571329,0.358894,9.88723373413086,0.84300464391708,0.47714352607727,1.80696952342987,-0.79528707265854,0.42866051197052
620,3511475671,0.626661,0.389916,-0.571385,0.358860,9.87784767150879,0.83120441436768,0.43936657905579,0.97983312606812,-0.59581542015076,0.37428477406502
621,3511492338,0.626652,0.389899,-0.571447,0.358795,9.86674118041992,0.82636541128159,0.43457335233688,0.60291647911072,-0.48402878642082,0.31035545468330
622,3511509005,0.626653,0.389917,-0.571464,0.358746,9.86924839019775,0.82499754428864,0.44927659630775,0.89784675836563,-0.29130601882935,0.10515933483839
623,3511525672,0.626623,0.389942,-0.571501,0.358712,9.87362957000732,0.78508031368256,0.46471187472343,1.03292822837830,-0.48405438661575,0.26496979594231
624,3511542339,0.626586,0.389953,-0.571522,0.358731,9.86861991882324,0.77029794454575,0.44533324241638,1.22369158267975,-0.25970000028610,0.52297931909561
625,3511559006,0.626529,0.389970,-0.571568,0.358742,9.87627601623535,0.77872729301453,0.42890599370003,1.22577893733978,-0.47934171557426,0.58854782581329
626,3511575673,0.626481,0.389979,-0.571614,0.358741,9.87009048461914,0.80307352542877,0.42206695675850,1.12437844276428,-0.45973518490791,0.54208642244339
627,3511592340,0.626460,0.389944,-0.571690,0.358694,9.88352775573730,0.77870535850525,0.43831813335419,0.62079423666000,-0.49556738138199,0.52527165412903
628,3511609007,0.626426,0.389930,-0.571752,0.358669,9.88764667510986,0.78949308395386,0.39406609535217,0.77436786890030,-0.48902323842049,0.53674602508545
629,3511625674,0.626366,0.389977,-0.571782,0.358675,9.87164688110352,0.77177631855011,0.39921137690544,1.38031327724457,-0.50786137580872,0.40671047568321
630,3511642341,0.626284,0.390038,-0.571819,0.358693,9.86122798919678,0.77939927577972,0.42341953516006,1.50929880142212,-0.63125061988831,0.47860530018806
631,3511659008,0.626207,0.390080,-0.571859,0.358717,9.86996555328369,0.78855615854263,0.43720540404320,1.44289779663086,-0.56369704008102,0.57717573642731
632,3511675675,0.626177,0.390101,-0.571878,0.358719,9.87432670593262,0.80274879932404,0.45239543914795,1.21301102638245,-0.29177987575531,0.38660448789597
633,3511692342,0.626168,0.390095,-0.571907,0.358694,9.86098575592041,0.77096498012543,0.40061858296394,0.90532571077347,-0.26255577802658,0.36215716600418
634,3511709009,0.626139,0.390102,-0.571941,0.358683,9.83845424652100,0.78873378038406,0.38923376798630,1.04734802246094,-0.35066345334053,0.42269277572632
635,3511725676,0.626095,0.390109,-0.571987,0.358679,9.84359359741211,0.79143500328064,0.38917800784111,1.09398889541626,-0.45084750652313,0.53003567457199
636,3511742343,0.626033,0.390124,-0.572047,0.358675,9.86368942260742,0.78701502084732,0.37450286746025,1.13592958450317,-0.59640449285507,0.57556223869324
637,3511759010,0.625971,0.390137,-0.572108,0.358672,9.89623260498047,0.77102649211884,0.43952390551567,1.13671076297760,-0.59686553478241,0.58923935890198
638,3511775677,0.625921,0.390164,-0.572143,0.358674,9.89123916625977,0.80248063802719,0.45361599326134,1.24424576759338,-0.45605969429016,0.46296879649162
639,3511792344,0.625902,0.390193,-0.572152,0.358661,9.87661361694336,0.78299754858017,0.42167472839355,1.17378509044647,-0.25944381952286,0.23756417632103
640,3511809011,0.625930,0.390160,-0.572170,0.358618,9.87502765655518,0.78430187702179,0.43897923827171,0.60574668645859,-0.05605338886380,0.26600709557533
641,3511825678,0.625884,0.390200,-0.572175,0.358648,9.84535026550293,0.76283824443817,0.33288520574570,1.48177790641785,-0.26520669460297,0.43471792340279
642,3511842345,0.625691,0.390416,-0.572198,0.358713,9.83455848693848,0.83523899316788,0.41634067893028,2.71349263191223,-1.26163041591644,0.30970233678818
643,3511859012,0.625719,0.390424,-0.572209,0.358638,9.99387264251709,0.76933872699738,0.55539572238922,0.73004519939423,-0.20415882766247,-0.05618145316839
644,3511875679,0.625895,0.390157,-0.572300,0.358475,9.78742790222168,0.75434446334839,0.30311399698257,-1.40839111804962,0.47585192322731,0.50006872415543
645,3511892346,0.625970,0.390018,-0.572368,0.358387,9.84545803070068,0.76497203111649,0.30197820067406,-0.24440917372704,0.05931260436773,0.50761163234711
646,3511909013,0.625861,0.389991,-0.572537,0.358338,9.86217784881592,0.73870998620987,0.38342297077179,0.62691569328308,-1.27092790603638,0.95792144536972
647,3511925680,0.625687,0.390058,-0.572619,0.358438,9.92152786254883,0.80760926008224,0.45046803355217,2.01103901863098,-0.98560237884521,1.14949166774750
648,3511942347,0.625542,0.390193,-0.572654,0.358487,9.85549449920654,0.76919353008270,0.38147392868996,2.14604306221008,-0.96801912784576,0.47022998332977
649,3511959014,0.625412,0.390306,-0.572702,0.358513,9.89822196960449,0.78530752658844,0.38810041546822,1.89777934551239,-0.97419190406799,0.45716750621796
650,3511975681,0.625373,0.390332,-0.572745,0.358487,9.89858913421631,0.78558045625687,0.42813694477081,1.02601265907288,-0.52544456720352,0.33545595407486
651,3511992348,0.625368,0.390297,-0.572792,0.358458,9.88631916046143,0.77645856142044,0.39626812934875,0.68724638223648,-0.25587087869644,0.48762103915215
652,3512009015,0.625348,0.390294,-0.572801,0.358480,9.87008094787598,0.79552465677261,0.35047441720963,1.16710042953491,-0.10444859415293,0.52028995752335
653,3512025682,0.625281,0.390394,-0.572773,0.358534,9.86174488067627,0.77868467569351,0.37478965520859,1.94696855545044,-0.29104989767075,0.26408612728119
654,3512042349,0.625205,0.390479,-0.572754,0.358605,9.84502792358398,0.74852496385574,0.37244498729706,1.96670305728912,-0.28894963860512,0.44762673974037
655,3512059016,0.625147,0.390501,-0.572793,0.358618,9.85403251647949,0.78853476047516,0.38508632779121,1.26451802253723,-0.45750683546066,0.55659598112106
656,3512075683,0.625127,0.390492,-0.572850,0.358572,9.86594772338867,0.79694294929504,0.37244874238968,0.75533765554428,-0.47581991553307,0.38251924514771
657,3512092350,0.625103,0.390462,-0.572917,0.358541,9.88755512237549,0.79611957073212,0.42737460136414,0.67244213819504,-0.43942424654961,0.55900353193283
658,3512109017,0.625090,0.390426,-0.572972,0.358514,9.89964866638184,0.79518395662308,0.41460451483727,0.71764862537384,-0.32528129220009,0.54419946670532
659,3512125684,0.625094,0.390414,-0.572961,0.358537,9.92671108245850,0.78033441305161,0.39722964167595,1.12049794197083,0.11066608130932,0.44519358873367
660,3512142351,0.625081,0.390479,-0.572891,0.358601,9.85253906250000,0.76769822835922,0.38296997547150,1.83146810531616,0.21373155713081,0.20759731531143
661,3512159018,0.625064,0.390551,-0.572827,0.358655,9.84847640991211,0.78864496946335,0.34430116415024,1.79774892330170,0.13091289997101,0.15710188448429
662,3512175685,0.625050,0.390530,-0.572898,0.358589,9.86568450927734,0.72855168581009,0.41368657350540,0.57177150249481,-0.53708553314209,0.36252859234810
663,3512192352,0.625032,0.390511,-0.572915,0.358614,9.89305686950684,0.76194441318512,0.36773094534874,1.13092231750488,-0.07421280443668,0.61664497852325
664,3512209019,0.624965,0.390582,-0.572917,0.358649,9.86971092224121,0.78020513057709,0.39011383056641,1.69406867027283,-0.39624127745628,0.37953537702560
665,3512225686,0.624919,0.390636,-0.572900,0.358698,9.90229701995850,0.76008099317551,0.38022047281265,1.68105757236481,-0.15927258133888,0.40380346775055
666,3512242353,0.624941,0.390617,-0.572881,0.358711,9.91491413116455,0.78476279973984,0.38274469971657,1.03838372230530,0.20666247606277,0.36734375357628
667,3512259020,0.625021,0.390570,-0.572838,0.358692,9.89097404479980,0.78199493885040,0.39761346578598,0.63637953996658,0.51223474740982,0.12680207192898
668,3512275687,0.625104,0.390531,-0.572784,0.358676,9.89031982421875,0.78635090589523,0.37665981054306,0.73724222183228,0.56228196620941,0.07539737224579
669,3512292354,0.625197,0.390500,-0.572709,0.358668,9.87196540832520,0.78224921226501,0.41758438944817,0.87293839454651,0.70303654670715,-0.00326561904512
670,3512309021,0.625273,0.390461,-0.572659,0.358657,9.84048843383789,0.74060577154160,0.39763182401657,0.79741936922073,0.52902388572693,0.12215335667133
671,3512325688,0.625343,0.390396,-0.572645,0.358628,9.83286762237549,0.74523866176605,0.35793542861938,0.53755289316177,0.37135210633278,0.26217797398567
672,3512342355,0.625368,0.390355,-0.572661,0.358603,9.84914302825928,0.76583403348923,0.34406691789627,0.68456977605820,0.02342921681702,0.37302973866463
673,3512359022,0.625375,0.390348,-0.572661,0.358598,9.85030269622803,0.77108526229858,0.35615020990372,1.00780212879181,-0.02111767046154,0.33090969920158
674,3512375689,0.625372,0.390332,-0.572691,0.358575,9.85323047637939,0.77748584747314,0.37952342629433,0.84778672456741,-0.20958872139454,0.39053604006767
675,3512392356,0.625377,0.390311,-0.572719,0.358542,9.87802886962891,0.74814307689667,0.37646704912186,0.77047491073608,-0.18324606120586,0.34589311480522
676,3512409023,0.625365,0.390339,-0.572725,0.358523,9.86911678314209,0.77151441574097,0.37290608882904,1.11455583572388,-0.24124599993229,0.19265230000019
677,3512425690,0.625325,0.390404,-0.572720,0.358530,9.89078903198242,0.75323814153671,0.38195383548737,1.48905193805695,-0.32606247067451,0.19759558141232
678,3512442357,0.625311,0.390445,-0.572708,0.358530,9.86687755584717,0.77459567785263,0.38394725322723,1.33208453655243,-0.14909151196480,0.17810431122780
679,3512459024,0.625309,0.390433,-0.572735,0.358503,9.88965320587158,0.79765111207962,0.42479988932610,0.85527843236923,-0.21930873394012,0.35078513622284
680,3512475691,0.625337,0.390382,-0.572763,0.358466,9.87690830230713,0.79471927881241,0.40245532989502,0.56443351507187,-0.02814835682511,0.38709110021591
681,3512492358,0.625375,0.390313,-0.572797,0.358419,9.86890506744385,0.79815942049026,0.39270690083504,0.40854173898697,0.00236277142540,0.40932297706604
682,3512509025,0.625423,0.390258,-0.572798,0.358394,9.86549663543701,0.80959969758987,0.39534613490105,0.57498592138290,0.20238515734673,0.32750320434570
683,3512525692,0.625468,0.390223,-0.572784,0.358376,9.87965869903564,0.79889982938766,0.39527484774590,0.75887221097946,0.22548775374889,0.25545462965965
684,3512542359,0.625543,0.390182,-0.572752,0.358342,9.87954425811768,0.79238408803940,0.37037351727486,0.64328211545944,0.39517191052437,0.08209510147572
685,3512559026,0.625586,0.390169,-0.572736,0.358305,9.84948253631592,0.77304726839066,0.38185667991638,0.77498269081116,0.12176917493343,0.08218474686146
686,3512575693,0.625613,0.390156,-0.572735,0.358275,9.87736988067627,0.79016989469528,0.41400709748268,0.81872910261154,0.01801212877035,0.19325421750546
687,3512592360,0.625655,0.390141,-0.572721,0.358240,9.86169910430908,0.79233735799789,0.41031971573830,0.79303956031799,0.11886212974787,0.10307189822197
688,3512609027,0.625714,0.390125,-0.572696,0.358195,9.90870857238770,0.82044631242752,0.43007111549377,0.73730635643005,0.21430784463882,-0.00467431731522
689,3512625694,0.625832,0.390077,-0.572627,0.358151,9.87396526336670,0.78906625509262,0.44897606968880,0.50986558198929,0.70981109142303,-0.13921782374382
690,3512642361,0.625710,0.390311,-0.572508,0.358300,9.82777976989746,0.78424137830734,0.20449785888195,3.28255534172058,-0.18962362408638,0.04649345204234
691,3512659028,0.625749,0.390356,-0.572538,0.358133,9.92387866973877,0.79878562688828,0.67400735616684,0.43218231201172,-0.58518618345261,-0.57115042209625
692,3512675695,0.625929,0.390215,-0.572485,0.358059,9.81660938262939,0.70349794626236,0.27821555733681,-0.19753792881966,1.03951060771942,-0.01201235596091
693,3512692362,0.626064,0.389974,-0.572604,0.357894,9.84947204589844,0.79248130321503,0.34319773316383,-1.27675473690033,0.11951525509357,0.56271737813950
694,3512709029,0.626086,0.389881,-0.572680,0.357834,9.81794357299805,0.76263689994812,0.35261780023575,0.18628756701946,-0.21938559412956,0.59678232669830
695,3512725696,0.625919,0.389924,-0.572779,0.357923,9.91833305358887,0.79235804080963,0.40606006979942,1.80033612251282,-0.99607795476913,1.22904467582703
696,3512742363,0.625802,0.390084,-0.572727,0.358036,9.87605381011963,0.79549878835678,0.40831682085991,2.66527676582336,-0.37906795740128,0.34454843401909
697,3512759030,0.625687,0.390242,-0.572717,0.358081,9.89582157135010,0.78660392761230,0.41565075516701,2.27231359481812,-0.72547978162766,0.17164991796017
698,3512775697,0.625649,0.390306,-0.572710,0.358088,9.90537643432617,0.81198275089264,0.45718085765839,1.48665714263916,-0.30111572146416,0.19153815507889
699,3512792364,0.625694,0.390289,-0.572674,0.358086,9.90751457214355,0.78919982910156,0.41466915607452,0.96099483966827,0.31818017363548,0.19242180883884
700,3512809031,0.625746,0.390261,-0.572623,0.358107,9.87278938293457,0.77142071723938,0.36373078823090,1.01455104351044,0.50227147340775,0.27179560065269
701,3512825698,0.625752,0.390308,-0.572540,0.358177,9.85426807403564,0.80083853006363,0.35690829157829,1.74628031253815,0.40403398871422,0.21876448392868
702,3512842365,0.625729,0.390404,-0.572450,0.358258,9.83799743652344,0.77558702230453,0.37782615423203,2.08945226669312,0.23550239205360,0.12689171731472
703,3512859032,0.625711,0.390449,-0.572408,0.358306,9.83457469940186,0.79562175273895,0.38045501708984,1.58662343025208,0.07752323150635,0.29681912064552
704,3512875699,0.625750,0.390424,-0.572423,0.358244,9.86541461944580,0.79602080583572,0.36309590935707,0.55585324764252,-0.06626005470753,0.11747905611992
705,3512892366,0.625795,0.390389,-0.572437,0.358179,9.92099666595459,0.80141025781631,0.42550057172775,0.51146638393402,-0.02146344259381,0.12230703979731
706,3512909033,0.625872,0.390343,-0.572391,0.358167,9.94248008728027,0.80052149295807,0.43597719073296,0.78740483522415,0.54186862707138,0.15712751448154
707,3512925700,0.626000,0.390291,-0.572280,0.358178,9.91020965576172,0.76543462276459,0.41544497013092,0.82327544689178,1.09220886230469,-0.01890217326581
708,3512942367,0.626103,0.390308,-0.572116,0.358242,9.86053466796875,0.75398689508438,0.35938608646393,1.51727688312531,1.18897342681885,-0.14619725942612
709,3512959034,0.626213,0.390289,-0.571981,0.358287,9.84181499481201,0.79454648494720,0.38796436786652,1.20589077472687,1.13904166221619,-0.02501080185175
710,3512975701,0.626286,0.390198,-0.572002,0.358224,9.84070777893066,0.76271188259125,0.47367909550667,0.16214758157730,0.20275652408600,0.29963657259941
711,3512992368,0.626368,0.390120,-0.571946,0.358256,9.91319179534912,0.75498801469803,0.44405850768089,0.77389407157898,0.79178464412689,0.42930084466934
712,3513009035,0.626407,0.390139,-0.571850,0.358318,9.82114791870117,0.79754638671875,0.37748423218727,1.52126002311707,0.64150214195251,0.17941056191921
713,3513025702,0.626413,0.390184,-0.571779,0.358373,9.87448978424072,0.79694074392319,0.44137111306190,1.66918623447418,0.32029321789742,0.19293406605721
714,3513042369,0.626457,0.390155,-0.571745,0.358383,9.88631916046143,0.81573861837387,0.46375918388367,0.95544958114624,0.37283763289452,0.29725459218025
715,3513059036,0.626566,0.390064,-0.571694,0.358371,9.89172744750977,0.80465108156204,0.45856678485870,0.46912854909897,0.79068315029144,0.24497906863689
716,3513075703,0.626696,0.389955,-0.571635,0.358357,9.88552188873291,0.79289919137955,0.41398519277573,0.34490701556206,0.94672858715057,0.22705017030239
717,3513092370,0.626817,0.389882,-0.571562,0.358341,9.85683441162109,0.79028856754303,0.46616971492767,0.57439684867859,0.88470751047134,0.06452479958534
718,3513109037,0.626941,0.389784,-0.571491,0.358344,9.85610771179199,0.76850962638855,0.43722620606422,0.50570356845856,0.99379199743271,0.24325022101402
719,3513125704,0.627066,0.389660,-0.571434,0.358351,9.84579849243164,0.77008724212646,0.42591992020607,0.36583256721497,1.01209223270416,0.39478769898415
720,3513142371,0.627157,0.389569,-0.571404,0.358339,9.83501529693604,0.78939175605774,0.41852691769600,0.46180340647697,0.63302427530289,0.33837580680847
721,3513159038,0.627222,0.389494,-0.571383,0.358340,9.87593841552734,0.81232482194901,0.42926588654518,0.62222850322723,0.48225513100624,0.42169386148453
722,3513175705,0.627283,0.389468,-0.571343,0.358326,9.85186672210693,0.82243639230728,0.43891906738281,0.86223226785660,0.39699044823647,0.12534213066101
723,3513192372,0.627330,0.389472,-0.571309,0.358294,9.86710262298584,0.79124671220779,0.41982704401016,0.91870826482773,0.18970684707165,-0.02168114855886
724,3513209039,0.627379,0.389473,-0.571259,0.358287,9.87627696990967,0.78870713710785,0.42443361878395,1.04590106010437,0.33975887298584,0.05376746505499
725,3513225706,0.627404,0.389480,-0.571221,0.358296,9.86437797546387,0.79656475782394,0.43514430522919,1.15890419483185,0.21868762373924,0.18711997568607
726,3513242373,0.627432,0.389474,-0.571186,0.358309,9.87542057037354,0.80107289552689,0.44092357158661,1.10860073566437,0.25986003875732,0.25480151176453
727,3513259040,0.627472,0.389457,-0.571158,0.358301,9.88083744049072,0.79302579164505,0.45400702953339,0.91589093208313,0.24989669024944,0.19908109307289
728,3513275707,0.627534,0.389450,-0.571107,0.358283,9.86379718780518,0.80698883533478,0.45118445158005,0.89768022298813,0.38561835885048,-0.00275336508639
729,3513292374,0.627592,0.389423,-0.571077,0.358257,9.86133480072021,0.81052595376968,0.46557927131653,0.77138400077820,0.30930536985397,0.11299682408571
730,3513309041,0.627659,0.389402,-0.571030,0.358238,9.85482025146484,0.83160734176636,0.45990303158760,0.83962905406952,0.41237083077431,0.05009203404188
731,3513325708,0.627719,0.389387,-0.570985,0.358220,9.86502170562744,0.80009055137634,0.48124146461487,0.91785019636154,0.37781929969788,0.05354974791408
732,3513342375,0.627775,0.389382,-0.570921,0.358232,9.87390995025635,0.80613869428635,0.46591317653656,1.10484850406647,0.49194949865341,0.09858968853951
733,3513359042,0.627858,0.389368,-0.570832,0.358240,9.86481475830078,0.80541270971298,0.44271788001060,1.03929293155670,0.71862190961838,-0.01082136482000
734,3513375709,0.627951,0.389354,-0.570745,0.358234,9.86513233184814,0.78431892395020,0.42343270778656,0.91559648513794,0.71141195297241,-0.09439560770988
735,3513392376,0.628024,0.389344,-0.570677,0.358224,9.86277103424072,0.77635723352432,0.44183909893036,0.99832540750504,0.52664196491241,-0.02402471378446
736,3513409043,0.628076,0.389363,-0.570596,0.358240,9.87600612640381,0.81399142742157,0.45456454157829,1.24922728538513,0.50364172458649,-0.01336982846260
737,3513425710,0.628124,0.389378,-0.570524,0.358255,9.88560104370117,0.79856401681900,0.48382121324539,1.24418163299561,0.45719307661057,0.03257294744253
738,3513442377,0.628155,0.389410,-0.570436,0.358306,9.88960933685303,0.80284750461578,0.46302783489227,1.55132901668549,0.51357942819595,0.12494514882565
739,3513459044,0.628247,0.389406,-0.570335,0.358310,9.85925960540771,0.82027959823608,0.47149887681007,1.11348021030426,0.77201151847839,-0.12464419007301
740,3513475711,0.628281,0.389415,-0.570254,0.358370,9.88095951080322,0.83424603939056,0.48156037926674,1.45759940147400,0.56977367401123,0.26500818133354
741,3513492378,0.628234,0.389611,-0.570104,0.358478,9.81015014648438,0.80566501617432,0.34680828452110,2.86123943328857,0.22387418150902,-0.24766202270985
742,3513509045,0.628285,0.389629,-0.570079,0.358408,9.93315029144287,0.75873589515686,0.55981677770615,0.82923030853271,0.03117705509067,-0.22494353353977
743,3513525712,0.628555,0.389339,-0.570135,0.358161,9.69925975799561,0.80315691232681,0.38500592112541,-2.00748515129089,0.81889569759369,-0.10352653264999
744,3513542379,0.628577,0.389134,-0.570326,0.358042,9.87245655059814,0.75093179941177,0.43027457594872,-0.78707826137543,-0.59343343973160,1.08748316764832
745,3513559046,0.628499,0.388974,-0.570559,0.357979,9.86097049713135,0.85315358638763,0.48362001776695,-0.24479337036610,-1.13734459877014,1.50840222835541
746,3513575713,0.628368,0.389082,-0.570530,0.358139,9.96803855895996,0.81301635503769,0.47116014361382,2.59425282478333,-0.27171233296394,0.84901618957520
747,3513592380,0.628242,0.389317,-0.570427,0.358268,9.84916687011719,0.80292803049088,0.39976555109024,3.17450857162476,-0.32973787188530,0.01180105004460
748,3513609047,0.628139,0.389511,-0.570387,0.358304,9.86722469329834,0.79081672430038,0.45541989803314,2.44412398338318,-0.66055148839951,-0.11827944219112
749,3513625714,0.628129,0.389538,-0.570393,0.358280,9.90856647491455,0.79875618219376,0.46974533796310,1.10406744480133,-0.24276997148991,0.17258478701115
750,3513642381,0.628173,0.389489,-0.570394,0.358255,9.84961891174316,0.78989845514297,0.39889755845070,0.65551227331161,0.17665718495846,0.31386443972588
751,3513659048,0.628162,0.389491,-0.570405,0.358255,9.81569957733154,0.80457282066345,0.37436714768410,1.09502613544464,-0.14308534562588,0.39246976375580
752,3513675715,0.628082,0.389551,-0.570417,0.358310,9.78688430786133,0.78817778825760,0.42154550552368,1.71845197677612,-0.41519460082054,0.57001703977585
753,3513692382,0.627956,0.389630,-0.570457,0.358382,9.79926681518555,0.79468613862991,0.41776731610298,1.92687559127808,-0.71588784456253,0.75515848398209
754,3513709049,0.627875,0.389678,-0.570500,0.358404,9.84442329406738,0.82191747426987,0.40237656235695,1.47478568553925,-0.61359065771103,0.55959272384644
755,3513725716,0.627831,0.389676,-0.570578,0.358358,9.87490177154541,0.83287465572357,0.44367608428001,0.80833035707474,-0.67643135786057,0.46828338503838
756,3513742383,0.627808,0.389639,-0.570649,0.358325,9.89882183074951,0.83563017845154,0.47456026077271,0.65969985723495,-0.44010305404663,0.59037911891937
757,3513759050,0.627813,0.389618,-0.570670,0.358306,9.90346145629883,0.80093222856522,0.47587054967880,0.88574481010437,-0.11170979589224,0.38308277726173
758,3513775717,0.627762,0.389722,-0.570630,0.358346,9.86825752258301,0.75249403715134,0.36991801857948,1.92614543437958,-0.22575032711029,0.12627699971199
759,3513792384,0.627821,0.389643,-0.570690,0.358235,9.84471607208252,0.79713660478592,0.56906396150589,-0.00008964445442,-0.17323151230812,0.18841342628002
760,3513809051,0.627860,0.389466,-0.570828,0.358138,9.86875534057617,0.75873482227325,0.44658336043358,-0.54485893249512,-0.32069659233093,0.88306820392609
761,3513825718,0.627816,0.389406,-0.570930,0.358119,9.86329174041748,0.76439499855042,0.41270315647125,0.58865028619766,-0.56225007772446,0.87834274768829
762,3513842385,0.627759,0.389450,-0.570976,0.358096,9.80994701385498,0.79577362537384,0.45772436261177,1.17443823814392,-0.64426189661026,0.32943692803383
763,3513859052,0.627626,0.389539,-0.571053,0.358110,9.84021568298340,0.79058235883713,0.48979306221008,1.66319274902344,-1.08766889572144,0.57872533798218
764,3513875719,0.627503,0.389595,-0.571155,0.358104,9.88919925689697,0.85079270601273,0.48477950692177,1.36909472942352,-1.11926221847534,0.66968882083893
765,3513892386,0.627485,0.389585,-0.571215,0.358050,9.89720344543457,0.81493723392487,0.46702593564987,0.68996125459671,-0.49957561492920,0.34845432639122
766,3513909053,0.627520,0.389529,-0.571281,0.357942,9.86304283142090,0.79573082923889,0.44642159342766,0.15338803827763,-0.34573298692703,0.18567284941673
767,3513925720,0.627548,0.389456,-0.571357,0.357853,9.88943576812744,0.80500060319901,0.44962236285210,0.11852917075157,-0.32252791523933,0.37830594182014
768,3513942387,0.627550,0.389387,-0.571429,0.357808,9.86827564239502,0.79239815473557,0.46564006805420,0.41563647985458,-0.30933737754822,0.60227626562119
769,3513959054,0.627532,0.389316,-0.571509,0.357789,9.86324310302734,0.79152548313141,0.43450561165810,0.54318773746490,-0.33573123812675,0.79551112651825
770,3513975721,0.627493,0.389277,-0.571596,0.357760,9.84992790222168,0.78792196512222,0.41933855414391,0.68212383985519,-0.56039309501648,0.69444352388382
771,3513992388,0.627454,0.389244,-0.571685,0.357724,9.86745834350586,0.80775493383408,0.41380870342255,0.68664443492889,-0.59417617321014,0.64504939317703
772,3514009055,0.627416,0.389206,-0.571778,0.357684,9.85655975341797,0.80305141210556,0.42860943078995,0.62970739603043,-0.61079877614975,0.66450220346451
773,3514025722,0.627379,0.389175,-0.571871,0.357634,9.87404632568359,0.79869234561920,0.39790338277817,0.60919159650803,-0.65699130296707,0.58494925498962
