sep=,
DeviceTag:,D
FirmwareVersion:,3.0.0
AppVersion:,2023.6.0
StartTime: ,2024-03-14_11:53:59_000 EDT
© Movella Technologies B. V. 2005-2024

PacketCounter,SampleTimeFine,Quat_W,Quat_X,Quat_Y,Quat_Z,Acc_X,Acc_Y,Acc_Z,Gyr_X,Gyr_Y,Gyr_Z
0,3501158798,0.024351,-0.694222,-0.043705,-0.718020,0.00000000000000,0.00000000000000,0.00000000000000,0.00000000000000,0.00000000000000,0.00000000000000
1,3501175465,0.024222,-0.694176,-0.043687,-0.718070,9.80776119232178,0.23534312844276,0.30513304471970,0.16573339700699,1.04318606853485,-0.63625794649124
2,3501192132,0.024129,-0.694103,-0.043734,-0.718141,9.81020641326904,0.25537854433060,0.30163517594337,0.66313195228577,1.27519869804382,-0.78928101062775
3,3501208799,0.024091,-0.694016,-0.043833,-0.718220,9.84642791748047,0.28110265731812,0.32089570164680,1.15341019630432,1.38461601734161,-0.76601177453995
4,3501225466,0.024090,-0.693943,-0.043940,-0.718284,9.84663295745850,0.30259975790977,0.29261067509651,1.40495252609253,1.26432597637177,-0.61332172155380
5,3501242133,0.024087,-0.693894,-0.044006,-0.718328,9.87875080108643,0.33217588067055,0.31930056214333,1.14917135238647,1.04752731323242,-0.42430001497269
6,3501258800,0.024035,-0.693857,-0.043965,-0.718367,9.87712955474854,0.35063111782074,0.34895220398903,0.43350133299828,0.97259742021561,-0.14492945373058
7,3501275467,0.023922,-0.693822,-0.043837,-0.718413,9.89487743377686,0.33011823892593,0.32161027193069,-0.30238357186317,0.98810595273972,-0.02980037964880
8,3501292134,0.023780,-0.693773,-0.043628,-0.718478,9.87030220031738,0.32867345213890,0.32179215550423,-0.81997781991959,1.15635585784912,0.20289739966393
9,3501308801,0.023618,-0.693706,-0.043412,-0.718561,9.84709739685059,0.30763253569603,0.33668974041939,-0.95796626806259,1.32812726497650,0.12529091536999
10,3501325468,0.023519,-0.693644,-0.043254,-0.718634,9.81933689117432,0.27601441740990,0.34778672456741,-0.38084805011749,1.26276373863220,0.16953685879707
11,3501342135,0.023500,-0.693590,-0.043189,-0.718690,9.79581069946289,0.23677822947502,0.33130589127541,0.46158564090729,1.14892804622650,0.11951525509357
12,3501358802,0.023576,-0.693504,-0.043251,-0.718767,9.83308315277100,0.24590355157852,0.30288767814636,1.55775809288025,1.41745162010193,-0.02312826924026
13,3501375469,0.023745,-0.693414,-0.043395,-0.718840,9.86232852935791,0.29999125003815,0.30496698617935,2.40050554275513,1.43225586414337,0.04085865989327
14,3501392136,0.023934,-0.693334,-0.043524,-0.718902,9.84117317199707,0.31669545173645,0.32657015323639,2.42469668388367,1.33925604820251,0.22162029147148
15,3501408803,0.024094,-0.693244,-0.043579,-0.718981,9.83818721771240,0.33280408382416,0.34346631169319,1.93553245067596,1.47435009479523,0.41972175240517
16,3501425470,0.024239,-0.693149,-0.043551,-0.719070,9.84175205230713,0.33790701627731,0.33272144198418,1.41805374622345,1.55245625972748,0.74049520492554
17,3501442137,0.024341,-0.693067,-0.043436,-0.719152,9.82260131835938,0.33934596180916,0.34369644522667,0.77390688657761,1.45611381530762,0.94137543439865
18,3501458804,0.024421,-0.692979,-0.043274,-0.719243,9.80702686309814,0.28934150934219,0.35567268729210,0.45924207568169,1.53427112102509,1.06420123577118
19,3501475471,0.024511,-0.692896,-0.043131,-0.719329,9.80196189880371,0.24515011906624,0.33010128140450,0.64300036430359,1.48811697959900,1.02051877975464
20,3501492138,0.024627,-0.692822,-0.043074,-0.719399,9.78983306884766,0.21205016970634,0.35515895485878,1.15225768089294,1.35155010223389,0.74543839693069
21,3501508805,0.024774,-0.692764,-0.043118,-0.719448,9.80143070220947,0.20106579363346,0.37443703413010,1.82465517520905,1.16466712951660,0.42410153150558
22,3501525472,0.024937,-0.692725,-0.043232,-0.719473,9.81142902374268,0.21409142017365,0.38639578223228,2.22837543487549,0.96032899618149,0.18098573386669
23,3501542139,0.025120,-0.692700,-0.043367,-0.719483,9.79779148101807,0.25461030006409,0.37599855661392,2.41446423530579,0.81058424711227,0.18394398689270
24,3501558806,0.025291,-0.692694,-0.043495,-0.719474,9.81994915008545,0.28552430868149,0.37342125177383,2.30960607528687,0.62802982330322,0.16960088908672
25,3501575473,0.025409,-0.692699,-0.043590,-0.719460,9.83958625793457,0.27196326851845,0.36601859331131,1.94343388080597,0.53815478086472,0.06748306006193
26,3501592140,0.025478,-0.692710,-0.043647,-0.719443,9.83904266357422,0.28027084469795,0.40774095058441,1.49504518508911,0.49029749631882,0.00697305705398
27,3501608807,0.025482,-0.692719,-0.043673,-0.719433,9.83815193176270,0.28638848662376,0.40301886200905,1.04488921165466,0.51959836483002,-0.16577818989754
28,3501625474,0.025474,-0.692732,-0.043679,-0.719421,9.83301067352295,0.27118319272995,0.37555316090584,0.88593685626984,0.48541823029518,-0.12970270216465
29,3501642141,0.025480,-0.692731,-0.043701,-0.719420,9.84212875366211,0.29131594300270,0.38174116611481,0.98927140235901,0.60469663143158,-0.14431475102901
30,3501658808,0.025482,-0.692713,-0.043723,-0.719436,9.84458255767822,0.30596405267715,0.41096445918083,0.97057396173477,0.77423989772797,-0.16954326629639
31,3501675475,0.025477,-0.692697,-0.043740,-0.719450,9.84793663024902,0.31324905157089,0.36514863371849,0.96647602319717,0.75765573978424,-0.18464195728302
32,3501692142,0.025484,-0.692663,-0.043750,-0.719482,9.83783721923828,0.28877219557762,0.38426056504250,1.03041815757751,0.93193739652634,-0.09100193530321
33,3501708809,0.025483,-0.692612,-0.043761,-0.719531,9.82582664489746,0.27671504020691,0.36838009953499,0.93301302194595,1.09943151473999,-0.14663270115852
34,3501725476,0.025465,-0.692555,-0.043778,-0.719585,9.81185054779053,0.27323153614998,0.37857246398926,0.87762552499771,1.13993799686432,-0.26824182271957
35,3501742143,0.025432,-0.692487,-0.043797,-0.719650,9.82077598571777,0.28097483515739,0.37319272756577,0.81417012214661,1.24615395069122,-0.35158553719521
36,3501758810,0.025379,-0.692430,-0.043777,-0.719709,9.81076622009277,0.29233857989311,0.38921979069710,0.53061187267303,1.16382181644440,-0.25858581066132
37,3501775477,0.025339,-0.692398,-0.043736,-0.719743,9.81976032257080,0.28214970231056,0.35438093543053,0.48809483647346,0.92795455455780,-0.09335829317570
38,3501792144,0.025337,-0.692381,-0.043708,-0.719762,9.82901382446289,0.25906869769096,0.35046041011810,0.73929142951965,0.78962033987045,0.05305030569434
39,3501808811,0.025348,-0.692376,-0.043698,-0.719767,9.81865596771240,0.24177479743958,0.35444971919060,1.00040006637573,0.67048293352127,0.03487809374928
40,3501825478,0.025380,-0.692369,-0.043756,-0.719768,9.82332801818848,0.26066279411316,0.34321135282516,1.32500255107880,0.65023607015610,-0.18784353137016
41,3501842145,0.025409,-0.692361,-0.043812,-0.719772,9.83158874511719,0.28622323274612,0.39505633711815,1.30703520774841,0.67189151048660,-0.19404180347919
42,3501858812,0.025395,-0.692370,-0.043808,-0.719764,9.86363029479980,0.29512381553650,0.39609995484352,0.79761153459549,0.52267199754715,-0.11191469430923
43,3501875479,0.025424,-0.692382,-0.043794,-0.719752,9.85937404632568,0.31191182136536,0.38822817802429,0.95788294076920,0.51288789510727,0.14927721023560
44,3501892146,0.025445,-0.692377,-0.043726,-0.719760,9.81494522094727,0.33986160159111,0.40026244521141,0.64791798591614,0.68965393304825,0.35739320516586
45,3501908813,0.025473,-0.692344,-0.043623,-0.719798,9.82369041442871,0.30904409289360,0.39669957756996,0.51082605123520,0.98294502496719,0.54345673322678
46,3501925480,0.025492,-0.692280,-0.043543,-0.719863,9.86927795410156,0.28249090909958,0.39105150103569,0.56566286087036,1.26162397861481,0.37541174888611
47,3501942147,0.025486,-0.692229,-0.043498,-0.719915,9.89453125000000,0.24486821889877,0.44073385000229,0.63217902183533,1.11879479885101,0.09705291688442
48,3501958814,0.025436,-0.692187,-0.043447,-0.719960,9.84481811523438,0.21811957657337,0.41891992092133,0.39346867799759,1.02507781982422,-0.09714895486832
49,3501975481,0.025360,-0.692104,-0.043382,-0.720046,9.85680007934570,0.24838928878307,0.37178888916969,0.22245271503925,1.42201066017151,-0.17028602957726
50,3501992148,0.025296,-0.692018,-0.043359,-0.720132,9.84262752532959,0.28092885017395,0.36787012219429,0.45118692517281,1.43237113952637,-0.31495937705040
51,3502008815,0.025250,-0.691959,-0.043289,-0.720195,9.81080532073975,0.29093524813652,0.37058469653130,0.29211923480034,1.20300936698914,0.00808721035719
52,3502025482,0.025220,-0.691946,-0.043229,-0.720213,9.77711296081543,0.25317612290382,0.36985480785370,0.44980382919312,0.76373869180679,0.05844177305698
53,3502042149,0.025238,-0.691966,-0.043262,-0.720190,9.78579521179199,0.22683216631413,0.35330936312675,1.13219010829926,0.40190804004669,-0.12359407544136
54,3502058816,0.025277,-0.691985,-0.043384,-0.720163,9.78702259063721,0.25188887119293,0.32488772273064,1.68279933929443,0.38027817010880,-0.44376567006111
55,3502075483,0.025345,-0.691998,-0.043501,-0.720142,9.79337406158447,0.27218747138977,0.34633505344391,1.79931128025055,0.44527035951614,-0.27971625328064
56,3502092150,0.025432,-0.692001,-0.043605,-0.720129,9.79031848907471,0.27532497048378,0.36394128203392,1.81448650360107,0.54451948404312,-0.12762804329395
57,3502108817,0.025518,-0.692029,-0.043670,-0.720096,9.83364391326904,0.30039861798286,0.34652677178383,1.62501692771912,0.33026936650276,0.06151529774070
58,3502125484,0.025592,-0.692077,-0.043722,-0.720044,9.86018657684326,0.29081985354424,0.38863480091095,1.49864399433136,0.14342471957207,0.07562790066004
59,3502142151,0.025673,-0.692114,-0.043751,-0.720003,9.87329006195068,0.28369468450546,0.40125638246536,1.43598234653473,0.25172799825668,0.21505063772202
60,3502158818,0.025764,-0.692163,-0.043750,-0.719953,9.85943794250488,0.28292065858841,0.40260431170464,1.32208275794983,0.15995772182941,0.40800392627716
61,3502175485,0.025842,-0.692219,-0.043729,-0.719897,9.83403491973877,0.28557243943214,0.38969060778618,1.16035127639771,0.09588753432035,0.44446355104446
62,3502192152,0.025899,-0.692277,-0.043711,-0.719841,9.79615020751953,0.30209988355637,0.39633402228355,1.11104679107666,0.08054553717375,0.33149874210358
63,3502208819,0.025993,-0.692352,-0.043700,-0.719766,9.78292846679688,0.26293498277664,0.43217584490776,1.31160712242126,-0.08534151315689,0.48338204622269
64,3502225486,0.026069,-0.692402,-0.043718,-0.719714,9.75380992889404,0.25504726171494,0.41575980186462,1.34640192985535,0.13744413852692,0.24775804579258
65,3502242153,0.026132,-0.692414,-0.043767,-0.719698,9.81569480895996,0.26110365986824,0.38311135768890,1.43677639961243,0.48835089802742,0.01650098152459
66,3502258820,0.026233,-0.692409,-0.043862,-0.719693,9.86628437042236,0.28247687220573,0.39942207932472,1.83697450160980,0.62753021717072,-0.01871007308364
67,3502275487,0.026336,-0.692413,-0.043906,-0.719683,9.89362621307373,0.29552978277206,0.37260031700134,1.61785829067230,0.56507384777069,0.23826858401299
68,3502292154,0.026462,-0.692445,-0.043917,-0.719647,9.87489891052246,0.27481240034103,0.36403024196625,1.55730986595154,0.32109999656677,0.52093029022217
69,3502308821,0.026588,-0.692497,-0.043939,-0.719591,9.85006618499756,0.25324645638466,0.39127647876740,1.61537384986877,0.12502199411392,0.47814431786537
70,3502325488,0.026692,-0.692554,-0.043949,-0.719531,9.81773376464844,0.25469371676445,0.41927039623260,1.41337931156158,0.07311785221100,0.42315378785133
71,3502342155,0.026745,-0.692584,-0.043945,-0.719500,9.82600975036621,0.24547618627548,0.38235172629356,1.12722134590149,0.32980835437775,0.23365826904774
72,3502358822,0.026783,-0.692601,-0.043945,-0.719483,9.84953308105469,0.23657311499119,0.37815186381340,1.07894134521484,0.45671921968460,0.12767289578915
73,3502375489,0.026841,-0.692614,-0.043973,-0.719466,9.83460998535156,0.22751128673553,0.36633697152138,1.30241215229034,0.48133310675621,0.09307014942169
74,3502392156,0.026916,-0.692636,-0.044005,-0.719441,9.85142040252686,0.22431945800781,0.35907471179962,1.46185123920441,0.40562194585800,0.16137921810150
75,3502408823,0.027002,-0.692649,-0.044073,-0.719420,9.84122276306152,0.23995769023895,0.36800980567932,1.66037499904633,0.45937013626099,0.04530246183276
76,3502425490,0.027044,-0.692657,-0.044133,-0.719408,9.83006286621094,0.25611093640327,0.34316313266754,1.36234593391418,0.51785677671432,-0.14523681998253
77,3502442157,0.027078,-0.692664,-0.044173,-0.719397,9.84989929199219,0.26266783475876,0.34937921166420,1.24469399452209,0.52942091226578,-0.08488048613071
78,3502458824,0.027078,-0.692642,-0.044201,-0.719417,9.85237216949463,0.26899373531342,0.32619848847389,1.05495512485504,0.81232601404190,-0.20832088589668
79,3502475491,0.027086,-0.692609,-0.044199,-0.719448,9.84839534759521,0.26962482929230,0.35073268413544,0.91758126020432,0.92600804567337,-0.03385999053717
80,3502492158,0.027099,-0.692562,-0.044200,-0.719493,9.83939838409424,0.26726099848747,0.36385530233383,0.95834398269653,1.05751621723175,-0.03355263546109
81,3502508825,0.027090,-0.692508,-0.044161,-0.719548,9.85293102264404,0.25533562898636,0.35274133086205,0.63351088762283,1.15055441856384,0.05171844363213
82,3502525492,0.027067,-0.692455,-0.044104,-0.719603,9.82097148895264,0.24909427762032,0.35814270377159,0.49308928847313,1.14118027687073,0.06147687882185
83,3502542159,0.027025,-0.692416,-0.044051,-0.719645,9.78767395019531,0.24487775564194,0.36576339602470,0.41164085268974,0.99933707714081,-0.04753716662526
84,3502558826,0.026961,-0.692367,-0.044013,-0.719697,9.76195621490479,0.23873677849770,0.34231254458427,0.38454264402390,1.08752155303955,-0.22607049345970
85,3502575493,0.026902,-0.692333,-0.043990,-0.719733,9.76257419586182,0.25414583086967,0.38241869211197,0.51032662391663,0.94339895248413,-0.26536035537720
86,3502592160,0.026881,-0.692315,-0.043997,-0.719752,9.78745269775391,0.23670865595341,0.36177080869675,0.82228928804398,0.78156518936157,-0.21408374607563
87,3502608827,0.026890,-0.692326,-0.044029,-0.719739,9.81711006164551,0.23896397650242,0.38795280456543,1.07276868820190,0.49340945482254,-0.17148983478546
88,3502625494,0.026920,-0.692359,-0.044051,-0.719705,9.82980442047119,0.25604322552681,0.37854987382889,1.14477872848511,0.29071050882339,-0.00371384108439
89,3502642161,0.026924,-0.692394,-0.044056,-0.719670,9.83836650848389,0.27406439185143,0.39094421267509,0.93793064355850,0.27661079168320,-0.05883237719536
90,3502658828,0.026884,-0.692441,-0.044025,-0.719628,9.85543727874756,0.27704876661301,0.40448692440987,0.53204619884491,0.16587424278259,-0.09097630530596
91,3502675495,0.026804,-0.692482,-0.043977,-0.719594,9.85475444793701,0.24254877865314,0.38686373829842,0.27454888820648,0.23426012694836,-0.22167789936066
92,3502692162,0.026731,-0.692512,-0.043956,-0.719570,9.84745502471924,0.22375255823135,0.38911637663841,0.43994292616844,0.33160120248795,-0.31106621026993
93,3502708829,0.026652,-0.692535,-0.043956,-0.719550,9.80813789367676,0.23378762602806,0.37731811404228,0.51178652048111,0.37947130203247,-0.44755622744560
94,3502725496,0.026558,-0.692540,-0.043963,-0.719549,9.81201267242432,0.26447886228561,0.37639555335045,0.48020610213280,0.55111491680145,-0.56403011083603
95,3502742163,0.026462,-0.692535,-0.043974,-0.719556,9.82884311676025,0.24565695226192,0.34582790732384,0.47645378112793,0.64084887504578,-0.59890168905258
96,3502758830,0.026409,-0.692500,-0.044025,-0.719589,9.81345748901367,0.25879845023155,0.30819380283356,0.88114726543427,0.91573721170425,-0.59408652782440
97,3502775497,0.026400,-0.692473,-0.044066,-0.719613,9.78846454620361,0.31722706556320,0.33241105079651,1.07417750358582,0.85567545890808,-0.31735414266586
98,3502792164,0.026430,-0.692472,-0.044115,-0.719609,9.82050228118896,0.29201310873032,0.30437797307968,1.23388528823853,0.59329897165298,-0.15548188984394
99,3502808831,0.026483,-0.692452,-0.044185,-0.719623,9.83557796478271,0.29216435551643,0.36020305752754,1.48448014259338,0.78119385242462,-0.14358481764793
100,3502825498,0.026480,-0.692444,-0.044194,-0.719629,9.89043045043945,0.29545867443085,0.39302983880043,0.91646718978882,0.67897355556488,-0.12863978743553
101,3502842165,0.026435,-0.692443,-0.044101,-0.719638,9.89508628845215,0.28966921567917,0.39739173650742,0.20886513590813,0.66025054454803,0.15245318412781
102,3502858832,0.026365,-0.692437,-0.043915,-0.719658,9.88195323944092,0.27281689643860,0.39390820264816,-0.37398380041122,0.74811488389969,0.46088132262230
103,3502875499,0.026320,-0.692431,-0.043731,-0.719677,9.83748340606689,0.27404850721359,0.38079187273979,-0.22822196781635,0.75629824399948,0.58242648839951
104,3502892166,0.026264,-0.692431,-0.043545,-0.719690,9.79529380798340,0.27616095542908,0.39921250939369,-0.29428991675377,0.68933373689651,0.53586250543594
105,3502908833,0.026211,-0.692428,-0.043383,-0.719704,9.77205944061279,0.23772682249546,0.41310468316078,-0.17411512136459,0.71238517761230,0.44278594851494
106,3502925500,0.026139,-0.692427,-0.043345,-0.719711,9.80168533325195,0.20907250046730,0.38991013169289,0.33546870946884,0.63285773992538,-0.24567699432373
107,3502942167,0.026075,-0.692419,-0.043394,-0.719717,9.81135559082031,0.19825184345245,0.40254947543144,0.78933852910995,0.65155494213104,-0.62083899974823
108,3502958834,0.026037,-0.692385,-0.043480,-0.719746,9.84576034545898,0.20739091932774,0.40470105409622,1.11413323879242,0.89486283063889,-0.68361568450928
109,3502975501,0.026021,-0.692346,-0.043569,-0.719779,9.84634399414062,0.24129368364811,0.35016596317291,1.28321540355682,0.93643230199814,-0.59033429622650
110,3502992168,0.026006,-0.692327,-0.043671,-0.719792,9.84705352783203,0.26460090279579,0.36848202347755,1.34131777286530,0.74999737739563,-0.63036686182022
111,3503008835,0.025984,-0.692327,-0.043757,-0.719787,9.83632183074951,0.28949296474457,0.35775288939476,1.18888401985168,0.56557321548462,-0.58545511960983
112,3503025502,0.025930,-0.692342,-0.043797,-0.719772,9.84301757812500,0.31190878152847,0.35068997740746,0.83147150278091,0.44346466660500,-0.52097511291504
113,3503042169,0.025863,-0.692365,-0.043786,-0.719754,9.80689334869385,0.27867594361305,0.33189350366592,0.50895637273788,0.39478772878647,-0.33337488770485
114,3503058836,0.025806,-0.692371,-0.043746,-0.719752,9.77124309539795,0.29524484276772,0.36077484488487,0.38336449861526,0.56342172622681,-0.16088616847992
115,3503075503,0.025759,-0.692411,-0.043689,-0.719719,9.80998706817627,0.25915342569351,0.38206410408020,0.37025076150894,0.25194570422173,-0.01297283172607
116,3503092170,0.025755,-0.692470,-0.043670,-0.719663,9.79387950897217,0.22308023273945,0.37486162781715,0.77641695737839,0.04979749023914,0.02805230766535
117,3503108837,0.025740,-0.692508,-0.043713,-0.719625,9.80509567260742,0.22706918418407,0.38088670372963,1.04243040084839,0.23675738275051,-0.32490989565849
118,3503125504,0.025749,-0.692525,-0.043812,-0.719602,9.84558486938477,0.27161779999733,0.37237042188644,1.42984819412231,0.40457180142403,-0.48910009860992
119,3503142171,0.025778,-0.692545,-0.043896,-0.719576,9.86758804321289,0.30327099561691,0.35054224729538,1.42508423328400,0.38502934575081,-0.30818480253220
120,3503158838,0.025829,-0.692569,-0.043928,-0.719549,9.87417411804199,0.30645665526390,0.34677913784981,1.26152157783508,0.37081429362297,0.04371447861195
121,3503175505,0.025905,-0.692612,-0.043965,-0.719503,9.84151363372803,0.28858429193497,0.36994314193726,1.44193720817566,0.19927321374416,0.15178725123405
122,3503192172,0.025999,-0.692678,-0.044011,-0.719434,9.81268119812012,0.28672987222672,0.40613147616386,1.57156324386597,-0.02369174733758,0.20793029665947
123,3503208839,0.026075,-0.692723,-0.044043,-0.719385,9.80583572387695,0.27217739820480,0.41052624583244,1.39448976516724,0.17349402606487,0.17679806053638
124,3503225506,0.026111,-0.692736,-0.044063,-0.719370,9.80624198913574,0.26890388131142,0.42212101817131,1.16219544410706,0.48286977410316,0.02048375457525
125,3503242173,0.026111,-0.692744,-0.044060,-0.719363,9.83546161651611,0.25450420379639,0.38732555508614,0.87540996074677,0.54086971282959,-0.04638459533453
126,3503258840,0.026103,-0.692750,-0.044049,-0.719358,9.85252857208252,0.25088155269623,0.38054269552231,0.80533367395401,0.56034821271896,-0.05609180778265
127,3503275507,0.026052,-0.692756,-0.044050,-0.719354,9.84291839599609,0.26371455192566,0.38139271736145,0.63880002498627,0.54143327474594,-0.31894215941429
128,3503292174,0.025996,-0.692769,-0.044059,-0.719343,9.85166835784912,0.24418939650059,0.37684112787247,0.67341554164886,0.47882306575775,-0.37946498394012
129,3503308841,0.025947,-0.692797,-0.044088,-0.719316,9.84745121002197,0.26769748330116,0.36792328953743,0.77434229850769,0.32727268338203,-0.43494203686714
130,3503325508,0.025896,-0.692820,-0.044126,-0.719293,9.83767795562744,0.26505905389786,0.35752460360527,0.83656835556030,0.36571732163429,-0.49076488614082
131,3503342175,0.025841,-0.692837,-0.044142,-0.719278,9.82550621032715,0.28604269027710,0.35513904690742,0.69955319166183,0.43342450261116,-0.41011056303978
132,3503358842,0.025759,-0.692852,-0.044144,-0.719266,9.81939601898193,0.29640319943428,0.33708971738815,0.50716340541840,0.45577153563499,-0.47653707861900
133,3503375509,0.025688,-0.692867,-0.044120,-0.719256,9.81197166442871,0.27097636461258,0.36131495237350,0.43141394853592,0.47331625223160,-0.29764515161514
134,3503392176,0.025593,-0.692881,-0.044103,-0.719247,9.81132125854492,0.26517933607101,0.35025373101234,0.38766741752625,0.48096171021461,-0.44576337933540
135,3503408843,0.025505,-0.692887,-0.044089,-0.719245,9.82576751708984,0.26579833030701,0.34966695308685,0.39508229494095,0.54535198211670,-0.44280520081520
136,3503425510,0.025417,-0.692900,-0.044098,-0.719235,9.82880115509033,0.26525250077248,0.31205740571022,0.51185059547424,0.47443044185638,-0.53551036119461
137,3503442177,0.025348,-0.692923,-0.044118,-0.719214,9.83480167388916,0.24387805163860,0.34871745109558,0.66879236698151,0.37119838595390,-0.48958674073219
138,3503458844,0.025321,-0.692961,-0.044170,-0.719175,9.84527301788330,0.24049584567547,0.34170460700989,1.01496076583862,0.22378455102444,-0.43467310070992
139,3503475511,0.025338,-0.693008,-0.044235,-0.719126,9.82265281677246,0.27003479003906,0.37827807664871,1.27010166645050,0.13923703134060,-0.27150741219521
140,3503492178,0.025350,-0.693069,-0.044307,-0.719062,9.82897377014160,0.28916049003601,0.34366738796234,1.32533562183380,0.00046743178973,-0.32295054197311
141,3503508845,0.025368,-0.693115,-0.044366,-0.719014,9.83683490753174,0.30132377147675,0.34269514679909,1.31770288944244,0.15113413333893,-0.23380552232265
142,3503525512,0.025393,-0.693153,-0.044401,-0.718973,9.83835601806641,0.31761446595192,0.34983548521996,1.19241833686829,0.23087926208973,-0.09776366502047
143,3503542179,0.025415,-0.693196,-0.044412,-0.718930,9.83504009246826,0.32337743043900,0.36064603924751,1.04572165012360,0.19920916855335,0.01483615487814
144,3503558846,0.025416,-0.693222,-0.044393,-0.718907,9.83077526092529,0.30331295728683,0.36749646067619,0.80694735050201,0.37885665893555,0.03421216458082
145,3503575513,0.025392,-0.693235,-0.044335,-0.718898,9.85426139831543,0.28516522049904,0.35830900073051,0.69558328390121,0.51391237974167,0.10381466895342
146,3503592180,0.025389,-0.693225,-0.044310,-0.718910,9.82782077789307,0.28125229477882,0.34328633546829,0.76376426219940,0.72447437047958,0.02980677969754
147,3503608847,0.025359,-0.693227,-0.044272,-0.718912,9.82679176330566,0.28950470685959,0.36890724301338,0.55400907993317,0.61097168922424,-0.03110661916435
148,3503625514,0.025328,-0.693231,-0.044221,-0.718912,9.88439369201660,0.25988298654556,0.35462027788162,0.49972301721573,0.58968758583069,0.02130336314440
149,3503642181,0.025339,-0.693224,-0.044246,-0.718917,9.84743595123291,0.24853797256947,0.34398332238197,1.05367445945740,0.67250615358353,-0.13303235173225
150,3503658848,0.025373,-0.693226,-0.044265,-0.718912,9.81619930267334,0.29093873500824,0.37684893608093,1.21750605106354,0.58753615617752,0.01101986505091
151,3503675515,0.025494,-0.693230,-0.044346,-0.718899,9.83724689483643,0.29229462146759,0.33667469024658,1.84806478023529,0.55290764570236,0.14920035004616
152,3503692182,0.025608,-0.693212,-0.044444,-0.718906,9.87397289276123,0.31300422549248,0.33688727021217,1.91728341579437,0.74808931350708,0.01765355281532
153,3503708849,0.025678,-0.693210,-0.044475,-0.718904,9.86538982391357,0.31576424837112,0.37630054354668,1.55659282207489,0.63429218530655,0.13521584868431
154,3503725516,0.025698,-0.693187,-0.044425,-0.718928,9.82694911956787,0.30002456903458,0.41788840293884,0.72159302234650,0.85831367969513,0.25982165336609
155,3503742183,0.025633,-0.693128,-0.044286,-0.718996,9.82988071441650,0.30456280708313,0.36288666725159,-0.16585503518581,1.22777664661407,0.24405698478222
156,3503758850,0.025539,-0.693053,-0.044118,-0.719082,9.82660198211670,0.29681184887886,0.35832807421684,-0.35875710844994,1.40072655677795,0.22810029983521
157,3503775517,0.025426,-0.692994,-0.043919,-0.719155,9.82322978973389,0.26437231898308,0.33162978291512,-0.61520427465439,1.25114834308624,0.29534646868706
158,3503792184,0.025342,-0.692958,-0.043759,-0.719203,9.80763339996338,0.23203654587269,0.32870194315910,-0.30367696285248,1.02619194984436,0.25613337755203
159,3503808851,0.025290,-0.692957,-0.043730,-0.719207,9.77764415740967,0.21069899201393,0.34376305341721,0.50152862071991,0.62039726972580,-0.18542313575745
160,3503825518,0.025278,-0.692965,-0.043810,-0.719195,9.79648685455322,0.21167626976967,0.34720867872238,1.22343540191650,0.49754586815834,-0.50112527608871
161,3503842185,0.025303,-0.692975,-0.043914,-0.719178,9.79072856903076,0.22560405731201,0.35620039701462,1.50958049297333,0.47432798147202,-0.43962916731834
162,3503858852,0.025319,-0.692986,-0.044013,-0.719161,9.84230709075928,0.23923474550247,0.37653103470802,1.46226096153259,0.46643921732903,-0.45339590311050
163,3503875519,0.025287,-0.693030,-0.044100,-0.719114,9.86014270782471,0.28091812133789,0.34622940421104,1.16265642642975,0.14365524053574,-0.61686909198761
164,3503892186,0.025214,-0.693077,-0.044142,-0.719069,9.84517955780029,0.28525137901306,0.35040876269341,0.74661660194397,0.13624036312103,-0.60919803380966
165,3503908853,0.025119,-0.693123,-0.044129,-0.719029,9.81296634674072,0.29619580507278,0.34402757883072,0.36033862829208,0.16823059320450,-0.45273008942604
166,3503925520,0.025020,-0.693165,-0.044130,-0.718992,9.83788871765137,0.26911318302155,0.36873558163643,0.41847944259644,0.19973422586918,-0.54765069484711
167,3503942187,0.024910,-0.693190,-0.044123,-0.718971,9.80945110321045,0.26761832833290,0.33098512887955,0.30897241830826,0.35411477088928,-0.56230121850967
168,3503958854,0.024828,-0.693195,-0.044137,-0.718969,9.79275417327881,0.31161114573479,0.37147113680840,0.54204797744751,0.55307424068451,-0.54351431131363
169,3503975521,0.024759,-0.693211,-0.044138,-0.718956,9.80105781555176,0.31344383955002,0.35058990120888,0.53788596391678,0.44699925184250,-0.41062280535698
170,3503992188,0.024732,-0.693252,-0.044159,-0.718916,9.78537178039551,0.27430528402328,0.34377139806747,0.83282899856567,0.20372983813286,-0.27946022152901
171,3504008855,0.024721,-0.693274,-0.044211,-0.718892,9.82126617431641,0.27413991093636,0.33356928825378,1.06336891651154,0.37826758623123,-0.36241975426674
172,3504025522,0.024730,-0.693273,-0.044289,-0.718888,9.85789394378662,0.30929952859879,0.35592308640480,1.29969716072083,0.58811235427856,-0.39328300952911
173,3504042189,0.024730,-0.693291,-0.044296,-0.718870,9.85467433929443,0.32840943336487,0.37017941474915,0.92627686262131,0.43359097838402,-0.08984934538603
174,3504058856,0.024723,-0.693307,-0.044254,-0.718857,9.84524536132812,0.31491366028786,0.35861134529114,0.67463201284409,0.47532680630684,0.10165039449930
175,3504075523,0.024727,-0.693334,-0.044202,-0.718835,9.83329010009766,0.30865171551704,0.36951160430908,0.57241183519363,0.38006046414375,0.20574040710926
176,3504092190,0.024720,-0.693365,-0.044147,-0.718808,9.83148765563965,0.30311217904091,0.37155720591545,0.58927774429321,0.34271711111069,0.17490270733833
177,3504108857,0.024715,-0.693384,-0.044096,-0.718793,9.81890583038330,0.28961557149887,0.36274185776711,0.62792736291885,0.45098197460175,0.16114869713783
178,3504125524,0.024700,-0.693381,-0.044041,-0.718800,9.82675552368164,0.30271977186203,0.35683652758598,0.53298103809357,0.66529625654221,0.12153863906860
179,3504142191,0.024673,-0.693365,-0.044007,-0.718818,9.82918453216553,0.27488437294960,0.35849788784981,0.61929583549500,0.77788972854614,-0.04739629849792
180,3504158858,0.024660,-0.693336,-0.044003,-0.718847,9.86905288696289,0.27394497394562,0.37148410081863,0.80305415391922,0.89258342981339,-0.12692373991013
181,3504175525,0.024658,-0.693286,-0.044010,-0.718895,9.85122871398926,0.29012483358383,0.34967133402824,0.88071179389954,1.08227097988129,-0.14054970443249
182,3504192192,0.024669,-0.693253,-0.044022,-0.718926,9.84246349334717,0.28547185659409,0.34526753425598,1.00502312183380,0.92502194643021,-0.08532871305943
183,3504208859,0.024711,-0.693229,-0.044047,-0.718946,9.84552669525146,0.29512637853622,0.32451266050339,1.18596410751343,0.83281618356705,0.01355552207679
184,3504225526,0.024745,-0.693201,-0.044082,-0.718969,9.81365203857422,0.29081282019615,0.32763397693634,1.24386143684387,0.86697065830231,-0.08102576434612
185,3504242193,0.024760,-0.693185,-0.044068,-0.718985,9.80505466461182,0.29709082841873,0.35095584392548,0.88798588514328,0.77102547883987,0.06602313369513
186,3504258860,0.024755,-0.693170,-0.044004,-0.719004,9.81041812896729,0.28451225161552,0.34122425317764,0.55011588335037,0.79136192798615,0.20390909910202
187,3504275527,0.024731,-0.693164,-0.043907,-0.719016,9.79916954040527,0.25496211647987,0.34698867797852,0.25209939479828,0.70719861984253,0.26947760581970
188,3504292194,0.024707,-0.693168,-0.043853,-0.719016,9.80966567993164,0.23563629388809,0.31882601976395,0.52107119560242,0.59448993206024,0.07368133217096
189,3504308861,0.024707,-0.693183,-0.043856,-0.719002,9.81683444976807,0.22720943391323,0.34090799093246,0.91434144973755,0.47329071164131,-0.07362371683121
190,3504325528,0.024735,-0.693209,-0.043920,-0.718971,9.82752037048340,0.26088702678680,0.36119100451469,1.33254563808441,0.33252328634262,-0.22527649998665
191,3504342195,0.024767,-0.693238,-0.043990,-0.718939,9.82779312133789,0.28744685649872,0.35618332028389,1.35918295383453,0.31283992528915,-0.22586560249329
192,3504358862,0.024782,-0.693265,-0.044028,-0.718910,9.83155918121338,0.31141877174377,0.35357916355133,1.12603020668030,0.33782508969307,-0.16130878031254
193,3504375529,0.024782,-0.693284,-0.044026,-0.718891,9.84388351440430,0.30615061521530,0.37769901752472,0.88865178823471,0.42786651849747,-0.05359457060695
194,3504392196,0.024766,-0.693301,-0.044012,-0.718876,9.85070610046387,0.31145066022873,0.36478286981583,0.74943399429321,0.45208334922791,-0.06891096383333
195,3504408863,0.024739,-0.693302,-0.043992,-0.718878,9.85568046569824,0.30744042992592,0.38478013873100,0.65553784370422,0.61603021621704,-0.11010898649693
196,3504425530,0.024700,-0.693298,-0.043954,-0.718885,9.83715248107910,0.30443850159645,0.38127025961876,0.49264106154442,0.66174888610840,-0.08626356720924
197,3504442197,0.024667,-0.693291,-0.043909,-0.718895,9.82348632812500,0.29243409633636,0.38667771220207,0.50695854425430,0.68915444612503,-0.01924794353545
198,3504458864,0.024640,-0.693276,-0.043893,-0.718912,9.82138442993164,0.28088378906250,0.35954031348228,0.65219539403915,0.76230442523956,-0.13123948872089
199,3504475531,0.024621,-0.693249,-0.043894,-0.718939,9.83543777465820,0.27283123135567,0.36490046977997,0.79964774847031,0.86448627710342,-0.17804667353630
200,3504492198,0.024611,-0.693220,-0.043919,-0.718965,9.82824516296387,0.29027310013771,0.34628033638000,0.93206536769867,0.87259268760681,-0.25251561403275
201,3504508865,0.024625,-0.693208,-0.043954,-0.718975,9.81427860260010,0.28115543723106,0.35477495193481,1.08166921138763,0.71813535690308,-0.17237347364426
202,3504525532,0.024633,-0.693200,-0.043965,-0.718981,9.82758045196533,0.28340420126915,0.37128600478172,0.95115965604782,0.67776972055435,-0.08125629276037
203,3504542199,0.024641,-0.693208,-0.043960,-0.718974,9.84710216522217,0.27255642414093,0.34755048155785,0.90860414505005,0.54428911209106,-0.00336807011627
204,3504558866,0.024667,-0.693210,-0.043987,-0.718969,9.80199146270752,0.31321972608566,0.34652018547058,1.14993989467621,0.58295142650604,-0.07017879933119
205,3504575533,0.024664,-0.693217,-0.043959,-0.718964,9.78406715393066,0.31122109293938,0.36679717898369,0.73067265748978,0.55555862188339,0.05384429544210
206,3504592200,0.024709,-0.693212,-0.043956,-0.718968,9.80259418487549,0.30486705899239,0.36187022924423,1.02246546745300,0.66735810041428,0.16314651072025
207,3504608867,0.024756,-0.693211,-0.043950,-0.718967,9.83299160003662,0.28437978029251,0.34303328394890,1.12937271595001,0.62641620635986,0.19672474265099
208,3504625534,0.024824,-0.693222,-0.043971,-0.718954,9.85364437103271,0.26389598846436,0.37188050150871,1.30866158008575,0.51711398363113,0.17348121106625
209,3504642201,0.024880,-0.693197,-0.043972,-0.718975,9.84281158447266,0.26903653144836,0.35475790500641,1.22029781341553,0.85466372966766,0.19293405115604
210,3504658868,0.024924,-0.693151,-0.043952,-0.719019,9.85321044921875,0.31544110178947,0.34998279809952,0.99322849512100,1.06727480888367,0.22515484690666
211,3504675535,0.024948,-0.693116,-0.043891,-0.719056,9.83298969268799,0.33481299877167,0.35730034112930,0.70649439096451,0.97451847791672,0.32546699047089
212,3504692202,0.024933,-0.693106,-0.043749,-0.719075,9.83182144165039,0.31626909971237,0.35220429301262,0.13104097545147,0.78054058551788,0.52920317649841
213,3504708869,0.024933,-0.693126,-0.043599,-0.719065,9.80008125305176,0.24737341701984,0.35745266079903,0.18445624411106,0.48978525400162,0.65251559019089
214,3504725536,0.024949,-0.693160,-0.043553,-0.719034,9.80247402191162,0.22096312046051,0.35112276673317,0.71508729457855,0.30872905254364,0.24711771309376
215,3504742203,0.024985,-0.693184,-0.043603,-0.719007,9.80987358093262,0.22532279789448,0.34799051284790,1.29799389839172,0.36601182818413,-0.11735738068819
216,3504758870,0.025028,-0.693178,-0.043678,-0.719007,9.78580188751221,0.23883593082428,0.33455744385719,1.46763968467712,0.64120757579803,-0.21722131967545
217,3504775537,0.025091,-0.693171,-0.043793,-0.719005,9.82133293151855,0.23553138971329,0.35752049088478,1.75909936428070,0.63749366998672,-0.29914349317551
218,3504792204,0.025171,-0.693169,-0.043925,-0.718995,9.87274074554443,0.25625267624855,0.35397061705589,1.94404864311218,0.57910948991776,-0.30187126994133
219,3504808871,0.025247,-0.693174,-0.044048,-0.718980,9.86705493927002,0.30125758051872,0.33580830693245,1.86322784423828,0.51989293098450,-0.27769288420677
220,3504825538,0.025308,-0.693184,-0.044112,-0.718965,9.85864448547363,0.30395194888115,0.33284676074982,1.51107895374298,0.49369120597839,-0.06524835526943
221,3504842205,0.025334,-0.693179,-0.044117,-0.718967,9.83628654479980,0.32026544213295,0.34221264719963,0.95429706573486,0.65076100826263,0.03676062449813
222,3504858872,0.025293,-0.693166,-0.044039,-0.718986,9.80167579650879,0.30649164319038,0.37421798706055,0.32323867082596,0.77116638422012,0.09173829108477
223,3504875539,0.025229,-0.693147,-0.043940,-0.719013,9.81510829925537,0.31001141667366,0.38534080982208,0.09478618949652,0.83088231086731,0.07615295797586
224,3504892206,0.025196,-0.693140,-0.043862,-0.719026,9.80231475830078,0.27420961856842,0.39410161972046,0.37666675448418,0.71114301681519,0.13566406071186
225,3504908873,0.025166,-0.693126,-0.043830,-0.719042,9.81420135498047,0.24984425306320,0.34632790088654,0.57549816370010,0.75569623708725,-0.07152345776558
226,3504925540,0.025190,-0.693079,-0.043880,-0.719084,9.87859344482422,0.24469141662121,0.36114224791527,1.27571094036102,1.04805254936218,-0.20564436912537
227,3504942207,0.025242,-0.693016,-0.043968,-0.719137,9.91479682922363,0.29867720603943,0.36880892515182,1.55322444438934,1.17684590816498,-0.25766372680664
228,3504958874,0.025269,-0.692956,-0.043982,-0.719193,9.90717792510986,0.30908173322678,0.39490658044815,1.08756005764008,1.17742228507996,-0.03416734188795
229,3504975541,0.025228,-0.692898,-0.043938,-0.719254,9.94108295440674,0.31606599688530,0.41275367140770,0.43540945649147,1.18820524215698,-0.09023354202509
230,3504992208,0.025146,-0.692868,-0.043870,-0.719289,9.91458988189697,0.29849758744240,0.43539777398109,0.19347193837166,0.91405969858170,-0.16362674534321
231,3505008875,0.025046,-0.692805,-0.043787,-0.719359,9.85021018981934,0.29310908913612,0.41432595252991,-0.06757910549641,1.23899507522583,-0.20123897492886
232,3505025542,0.024945,-0.692701,-0.043721,-0.719466,9.81994819641113,0.28773742914200,0.38570094108582,0.13481885194778,1.61972784996033,-0.29754272103310
233,3505042209,0.024927,-0.692534,-0.043782,-0.719624,9.83900451660156,0.27771693468094,0.36659461259842,1.05860495567322,2.16992712020874,-0.52602082490921
234,3505058876,0.024967,-0.692342,-0.043910,-0.719800,9.84105300903320,0.28827732801437,0.37683549523354,1.71510946750641,2.39401245117188,-0.56417089700699
235,3505075543,0.025040,-0.692148,-0.044075,-0.719973,9.84407997131348,0.29756909608841,0.36185580492020,2.07752919197083,2.39462709426880,-0.58212542533875
236,3505092210,0.025117,-0.691973,-0.044209,-0.720131,9.80508518218994,0.33313313126564,0.35244429111481,1.83498966693878,2.22555804252625,-0.40425804257393
237,3505108877,0.025163,-0.691806,-0.044231,-0.720289,9.80496978759766,0.33326053619385,0.34926185011864,1.19606828689575,2.20063686370850,-0.02547183074057
238,3505125544,0.025207,-0.691651,-0.044180,-0.720438,9.78312015533447,0.29234349727631,0.32269290089607,0.82696366310120,2.11097955703735,0.31981942057610
239,3505142211,0.025231,-0.691508,-0.044078,-0.720582,9.78987503051758,0.25374534726143,0.34883132576942,0.47449448704720,2.03023576736450,0.47070384025574
240,3505158878,0.025279,-0.691417,-0.043970,-0.720673,9.80086135864258,0.21502940356731,0.33416104316711,0.56808328628540,1.52790653705597,0.63946592807770
241,3505175545,0.025336,-0.691376,-0.043886,-0.720716,9.78681945800781,0.20096702873707,0.34961700439453,0.73583364486694,1.04768097400665,0.58660125732422
242,3505192212,0.025435,-0.691366,-0.043875,-0.720723,9.80256748199463,0.18004527688026,0.34751072525978,1.30229675769806,0.73300343751907,0.47421273589134
243,3505208879,0.025569,-0.691360,-0.043946,-0.720719,9.82991218566895,0.19779074192047,0.39023157954216,1.88335955142975,0.65177273750305,0.25770854949951
244,3505225546,0.025708,-0.691382,-0.044078,-0.720685,9.88227176666260,0.22598579525948,0.43303862214088,2.20651483535767,0.35656079649925,0.00728041073307
245,3505242213,0.025811,-0.691407,-0.044221,-0.720649,9.91655158996582,0.26443737745285,0.45135268568993,2.08806920051575,0.32270082831383,-0.22431603074074
246,3505258880,0.025845,-0.691445,-0.044310,-0.720606,9.91187572479248,0.29614418745041,0.48415732383728,1.49659478664398,0.21870043873787,-0.31006735563278
247,3505275547,0.025821,-0.691454,-0.044370,-0.720594,9.89046287536621,0.30488795042038,0.49645477533340,1.07324254512787,0.49258989095688,-0.46462720632553
248,3505292214,0.025768,-0.691401,-0.044397,-0.720645,9.87457466125488,0.32584562897682,0.45335137844086,0.76416128873825,1.09348940849304,-0.47945699095726
249,3505308881,0.025710,-0.691270,-0.044434,-0.720771,9.84029960632324,0.34175714850426,0.42685043811798,0.77545648813248,1.83794796466827,-0.59755700826645
250,3505325548,0.025686,-0.691073,-0.044505,-0.720956,9.84439849853516,0.35245817899704,0.41830247640610,1.10616767406464,2.44610905647278,-0.61885404586792
251,3505342215,0.025718,-0.690859,-0.044615,-0.721154,9.85890293121338,0.33687812089920,0.40538474917412,1.56346964836121,2.60381913185120,-0.52927368879318
252,3505358882,0.025812,-0.690628,-0.044744,-0.721363,9.86611843109131,0.32995128631592,0.42013522982597,1.94713497161865,2.75711059570312,-0.32692047953606
253,3505375549,0.025909,-0.690392,-0.044817,-0.721581,9.83988475799561,0.31684613227844,0.42196404933929,1.68354213237762,2.83729147911072,-0.04269636794925
254,3505392216,0.025971,-0.690158,-0.044827,-0.721802,9.81966114044189,0.31579664349556,0.40253663063049,1.20539140701294,2.83835482597351,0.08308120071888
255,3505408883,0.025961,-0.689920,-0.044752,-0.722034,9.76794815063477,0.31238538026810,0.41631776094437,0.44276031851768,2.90513944625854,0.12178198248148
256,3505425550,0.025868,-0.689717,-0.044584,-0.722242,9.73317241668701,0.29950210452080,0.43112161755562,-0.41428536176682,2.60818576812744,0.16620717942715
257,3505442217,0.025787,-0.689561,-0.044389,-0.722406,9.80111026763916,0.23032042384148,0.37665441632271,-0.49154615402222,2.17613816261292,0.38135391473770
258,3505458884,0.025828,-0.689427,-0.044293,-0.722538,9.78670310974121,0.19539695978165,0.34223574399948,0.58807396888733,1.92777180671692,0.51979053020477
259,3505475551,0.025967,-0.689319,-0.044280,-0.722637,9.76134586334229,0.20779190957546,0.41742196679115,1.47242927551270,1.66805911064148,0.63459950685501
260,3505492218,0.026193,-0.689266,-0.044363,-0.722674,9.78569889068604,0.21996138989925,0.43816450238228,2.36604380607605,1.10118603706360,0.63612341880798
261,3505508885,0.026436,-0.689244,-0.044493,-0.722678,9.81044292449951,0.27352952957153,0.43804681301117,2.68827700614929,0.79063200950623,0.51719081401825
262,3505525552,0.026628,-0.689248,-0.044617,-0.722660,9.84130477905273,0.26884761452675,0.44694381952286,2.41641092300415,0.54074174165726,0.30361935496330
263,3505542219,0.026782,-0.689269,-0.044670,-0.722631,9.85726547241211,0.23850527405739,0.47974812984467,1.88820004463196,0.40630063414574,0.45866578817368
264,3505558886,0.026890,-0.689284,-0.044669,-0.722613,9.84368228912354,0.22099430859089,0.43702879548073,1.39341390132904,0.49005419015884,0.47918158769608
265,3505575553,0.026997,-0.689271,-0.044699,-0.722619,9.82824897766113,0.26677203178406,0.46082538366318,1.54655265808105,0.73676854372025,0.31993466615677
266,3505592220,0.027070,-0.689263,-0.044663,-0.722626,9.77482032775879,0.30365753173828,0.49413174390793,1.05270111560822,0.70858174562454,0.45775660872459
267,3505608887,0.027080,-0.689262,-0.044597,-0.722632,9.75619888305664,0.27168691158295,0.46895986795425,0.60423558950424,0.66250449419022,0.29786926507950
268,3505625554,0.027069,-0.689278,-0.044592,-0.722617,9.77882862091064,0.22263054549694,0.48050165176392,0.81477195024490,0.46350660920143,-0.09842959791422
269,3505642221,0.027078,-0.689306,-0.044679,-0.722585,9.80671596527100,0.20257987082005,0.44790291786194,1.36447179317474,0.30536100268364,-0.41829380393028
270,3505658888,0.027132,-0.689332,-0.044846,-0.722547,9.82660198211670,0.22730670869350,0.45140051841736,1.97995769977570,0.28750893473625,-0.57587593793869
271,3505675555,0.027196,-0.689344,-0.045071,-0.722519,9.84658908843994,0.21637251973152,0.45929667353630,2.31804513931274,0.39942365884781,-0.80859285593033
272,3505692222,0.027266,-0.689361,-0.045328,-0.722485,9.85384082794189,0.24691002070904,0.46575090289116,2.49587440490723,0.34057846665382,-0.92698764801025
273,3505708889,0.027333,-0.689415,-0.045621,-0.722412,9.84349536895752,0.28302380442619,0.46974894404411,2.66881132125854,-0.03966126963496,-1.09781157970428
274,3505725556,0.027386,-0.689479,-0.045890,-0.722331,9.81529712677002,0.28597611188889,0.47629731893539,2.49942183494568,-0.12046933174133,-1.04244971275330
275,3505742223,0.027386,-0.689551,-0.046097,-0.722250,9.80523681640625,0.30526953935623,0.46275919675827,1.93412387371063,-0.16646975278854,-1.01336646080017
276,3505758890,0.027343,-0.689630,-0.046257,-0.722166,9.80285072326660,0.30231419205666,0.47792983055115,1.50660943984985,-0.22665959596634,-0.99830621480942
277,3505775557,0.027267,-0.689723,-0.046395,-0.722071,9.80076789855957,0.29134878516197,0.46965485811234,1.22448563575745,-0.34511837363243,-1.04981338977814
278,3505792224,0.027176,-0.689852,-0.046528,-0.721942,9.81347942352295,0.26625353097916,0.43675121665001,1.13991248607635,-0.69265711307526,-1.09074246883392
279,3505808891,0.027091,-0.689950,-0.046745,-0.721839,9.81799411773682,0.24658928811550,0.43294781446457,1.57275438308716,-0.43230396509171,-1.46431648731232
280,3505825558,0.027010,-0.690022,-0.047055,-0.721752,9.84813499450684,0.27260968089104,0.42722108960152,2.07851552963257,-0.23821093142033,-1.90367686748505
281,3505842225,0.026997,-0.690092,-0.047402,-0.721663,9.89051532745361,0.33336988091469,0.39466595649719,2.57473587989807,-0.22742798924446,-1.73910248279572
282,3505858892,0.027049,-0.690145,-0.047717,-0.721589,9.90141201019287,0.36853271722794,0.38584476709366,2.69889354705811,-0.04620530828834,-1.27542269229889
283,3505875559,0.027165,-0.690218,-0.048014,-0.721496,9.87574291229248,0.37950143218040,0.41941988468170,2.89303755760193,-0.20809037983418,-0.85931891202927
284,3505892226,0.027295,-0.690290,-0.048269,-0.721405,9.81437492370605,0.37942671775818,0.42482018470764,2.78108453750610,-0.17962184548378,-0.59033429622650
285,3505908893,0.027379,-0.690363,-0.048442,-0.721320,9.79400444030762,0.36388882994652,0.43408438563347,2.15604496002197,-0.15625028312206,-0.43499329686165
286,3505925560,0.027408,-0.690397,-0.048534,-0.721280,9.76615524291992,0.35131022334099,0.43475735187531,1.50753140449524,0.24307090044022,-0.34071293473244
287,3505942227,0.027383,-0.690384,-0.048595,-0.721290,9.78976535797119,0.33341255784035,0.41882124543190,1.08822596073151,0.70829999446869,-0.49241700768471
288,3505958894,0.027337,-0.690367,-0.048676,-0.721302,9.79921245574951,0.29287409782410,0.43766322731972,1.05672240257263,0.71927505731583,-0.68953233957291
289,3505975561,0.027335,-0.690367,-0.048790,-0.721295,9.80279922485352,0.29248613119125,0.41257467865944,1.44201409816742,0.56060433387756,-0.61827772855759
290,3505992228,0.027399,-0.690399,-0.048950,-0.721251,9.77703094482422,0.27967751026154,0.43297752737999,2.01034712791443,0.23461870849133,-0.48906165361404
291,3506008895,0.027510,-0.690454,-0.049155,-0.721180,9.77659797668457,0.32278129458427,0.42086130380630,2.43372511863708,-0.00261249556206,-0.45912045240402
292,3506025562,0.027620,-0.690509,-0.049340,-0.721110,9.72743225097656,0.34593814611435,0.40063771605492,2.34465694427490,0.01678271964192,-0.37171712517738
293,3506042229,0.027650,-0.690556,-0.049451,-0.721056,9.73297119140625,0.39189553260803,0.40545025467873,1.58023309707642,0.11024345457554,-0.41820412874222
294,3506058896,0.027580,-0.690594,-0.049441,-0.721023,9.76907539367676,0.39092594385147,0.42560800909996,0.50316792726517,0.24403139948845,-0.34750032424927
295,3506075563,0.027433,-0.690628,-0.049334,-0.721004,9.80676937103271,0.36160436272621,0.42172449827194,-0.34881934523582,0.31969127058983,-0.27880704402924
296,3506092230,0.027286,-0.690684,-0.049160,-0.720967,9.81455802917480,0.34153494238853,0.41976091265678,-0.66736447811127,0.14713856577873,0.05910770222545
297,3506108897,0.027175,-0.690759,-0.048998,-0.720911,9.85195064544678,0.31940895318985,0.40616774559021,-0.44026952981949,-0.03179816901684,0.19011667370796
298,3506125564,0.027134,-0.690834,-0.048891,-0.720849,9.86110401153564,0.30620190501213,0.40431573987007,0.16602790355682,-0.05018808320165,0.27050212025642
299,3506142231,0.027123,-0.690902,-0.048861,-0.720785,9.85637092590332,0.29712197184563,0.39729160070419,0.70493197441101,-0.02826361730695,0.05549632012844
300,3506158898,0.027133,-0.690972,-0.048868,-0.720718,9.87258815765381,0.31429061293602,0.41001394391060,0.99256247282028,-0.04962459951639,-0.01602074317634
301,3506175565,0.027128,-0.691043,-0.048893,-0.720648,9.87052059173584,0.32298508286476,0.41009786725044,1.00971031188965,-0.07711984962225,-0.17259117960930
302,3506192232,0.027138,-0.691083,-0.048914,-0.720607,9.81746578216553,0.32856547832489,0.38958990573883,1.05477571487427,0.21922549605370,-0.09837837517262
303,3506208899,0.027147,-0.691117,-0.048938,-0.720573,9.81214904785156,0.32913073897362,0.41060623526573,1.04652857780457,0.28282183408737,-0.11792086809874
304,3506225566,0.027168,-0.691158,-0.048949,-0.720532,9.83016395568848,0.30230826139450,0.36236914992332,1.04944837093353,0.21739418804646,0.00147913349792
305,3506242233,0.027208,-0.691170,-0.048980,-0.720517,9.81080913543701,0.28864184021950,0.37886434793472,1.23224627971649,0.49095070362091,-0.01098784897476
306,3506258900,0.027236,-0.691207,-0.049035,-0.720477,9.80852413177490,0.32664859294891,0.40607199072838,1.28035974502563,0.23648847639561,-0.16908223927021
307,3506275567,0.027272,-0.691278,-0.049087,-0.720404,9.82545757293701,0.29458811879158,0.36465039849281,1.32609117031097,-0.08100016415119,-0.10046581178904
308,3506292234,0.027297,-0.691340,-0.049190,-0.720336,9.82881546020508,0.30328077077866,0.35148081183434,1.53596162796021,-0.02859658189118,-0.40211939811707
309,3506308901,0.027277,-0.691417,-0.049240,-0.720260,9.85170173645020,0.31704887747765,0.37104389071465,1.06586623191833,-0.14779809117317,-0.36471202969551
310,3506325568,0.027254,-0.691501,-0.049262,-0.720179,9.84907913208008,0.30224630236626,0.37515541911125,0.91167765855789,-0.20120057463646,-0.24384573101997
311,3506342235,0.027244,-0.691589,-0.049242,-0.720096,9.82861614227295,0.30226820707321,0.38811504840851,0.75120121240616,-0.21542841196060,0.02467143163085
312,3506358902,0.027252,-0.691662,-0.049272,-0.720023,9.81928062438965,0.32382193207741,0.38434162735939,1.00572741031647,-0.10211782902479,-0.13629797101021
313,3506375569,0.027254,-0.691738,-0.049339,-0.719945,9.78301620483398,0.31305322051048,0.38012838363647,1.23409032821655,-0.14738827943802,-0.33594900369644
314,3506392236,0.027213,-0.691813,-0.049378,-0.719872,9.79567241668701,0.31026017665863,0.35853868722916,0.89643800258636,-0.12666758894920,-0.42187955975533
315,3506408903,0.027143,-0.691883,-0.049439,-0.719803,9.82532215118408,0.31284525990486,0.41069430112839,0.84827339649200,-0.10092683881521,-0.66625034809113
316,3506425570,0.027072,-0.691952,-0.049521,-0.719734,9.82528877258301,0.30264863371849,0.38546866178513,0.96864038705826,-0.09621411561966,-0.77137774229050
317,3506442237,0.026986,-0.692006,-0.049626,-0.719678,9.83667087554932,0.30608072876930,0.39579048752785,1.01784241199493,0.02933294512331,-0.96813452243805
318,3506458904,0.026889,-0.692055,-0.049734,-0.719628,9.83543777465820,0.32713124155998,0.37844613194466,0.96604049205780,0.08300435543060,-1.03716063499451
319,3506475571,0.026778,-0.692083,-0.049847,-0.719597,9.82028007507324,0.35024148225784,0.38099455833435,0.91144710779190,0.26279270648956,-1.13844609260559
320,3506492238,0.026654,-0.692111,-0.049957,-0.719567,9.85089683532715,0.38431182503700,0.34693843126297,0.88872867822647,0.27634179592133,-1.18661081790924
321,3506508905,0.026551,-0.692134,-0.050046,-0.719543,9.85244274139404,0.36904662847519,0.36157515645027,0.83635073900223,0.32993641495705,-0.99475890398026
322,3506525572,0.026435,-0.692138,-0.050106,-0.719539,9.81838321685791,0.37242615222931,0.37990525364876,0.63737845420837,0.52333790063858,-0.92281275987625
323,3506542239,0.026315,-0.692138,-0.050142,-0.719540,9.79730796813965,0.36069837212563,0.39108112454414,0.50785505771637,0.56856989860535,-0.83492279052734
324,3506558906,0.026182,-0.692146,-0.050154,-0.719537,9.82360649108887,0.36177188158035,0.40454396605492,0.30888274312019,0.51631999015808,-0.77991938591003
325,3506575573,0.026039,-0.692148,-0.050156,-0.719540,9.80357170104980,0.35800465941429,0.36046105623245,0.22606411576271,0.56394690275192,-0.78408157825470
326,3506592240,0.025946,-0.692127,-0.050191,-0.719561,9.85375308990479,0.37896540760994,0.31498596072197,0.61747741699219,0.77498269081116,-0.70309430360794
327,3506608907,0.025944,-0.692092,-0.050274,-0.719589,9.86398410797119,0.40250048041344,0.33017319440842,1.26855218410492,0.90359687805176,-0.49283957481384
328,3506625574,0.026039,-0.692064,-0.050372,-0.719606,9.86877441406250,0.41068190336227,0.31606435775757,1.83002090454102,0.84940028190613,-0.07919446378946
329,3506642241,0.026172,-0.692024,-0.050424,-0.719636,9.83447074890137,0.41989204287529,0.33808487653732,1.99043345451355,0.99846631288528,0.32976993918419
330,3506658908,0.026311,-0.691981,-0.050452,-0.719670,9.78422260284424,0.40202495455742,0.39805480837822,1.67123484611511,1.03163468837738,0.46596539020538
331,3506675575,0.026403,-0.691928,-0.050426,-0.719719,9.78484916687012,0.35663327574730,0.38273468613625,1.18750071525574,1.14403605461121,0.48667329549789
332,3506692242,0.026471,-0.691877,-0.050388,-0.719769,9.77615737915039,0.31912744045258,0.34457564353943,1.01282215118408,1.13414943218231,0.41646882891655
333,3506708909,0.026523,-0.691818,-0.050378,-0.719824,9.74633979797363,0.28790947794914,0.36870619654655,1.07494580745697,1.17953526973724,0.20988969504833
334,3506725576,0.026565,-0.691791,-0.050422,-0.719845,9.75696659088135,0.27428722381592,0.39414748549461,1.30264270305634,0.85985028743744,-0.08020616322756
335,3506742243,0.026605,-0.691798,-0.050515,-0.719831,9.80598449707031,0.28033530712128,0.32716441154480,1.57239556312561,0.50656151771545,-0.30951663851738
336,3506758910,0.026652,-0.691818,-0.050646,-0.719801,9.81991577148438,0.29656225442886,0.36814615130424,1.76890897750854,0.36484649777412,-0.44916990399361
337,3506775577,0.026717,-0.691873,-0.050789,-0.719735,9.82253646850586,0.30429121851921,0.39326357841492,1.91121304035187,0.02440249919891,-0.39424344897270
338,3506792244,0.026790,-0.691952,-0.050953,-0.719645,9.81620502471924,0.32022124528885,0.35282692313194,2.06167483329773,-0.21372516453266,-0.44573777914047
339,3506808911,0.026849,-0.692050,-0.051113,-0.719537,9.80280780792236,0.34246036410332,0.32068914175034,1.96606266498566,-0.39579302072525,-0.48027649521828
340,3506825578,0.026883,-0.692152,-0.051263,-0.719427,9.81493377685547,0.35286924242973,0.36195400357246,1.81325733661652,-0.43189412355423,-0.56035459041595
341,3506842245,0.026934,-0.692277,-0.051418,-0.719294,9.81725406646729,0.34176546335220,0.36139938235283,1.89398860931396,-0.64665657281876,-0.48685899376869
342,3506858912,0.027008,-0.692395,-0.051588,-0.719165,9.81988906860352,0.38153040409088,0.35025790333748,2.12139129638672,-0.59010380506516,-0.44637817144394
343,3506875579,0.027112,-0.692506,-0.051765,-0.719041,9.81274414062500,0.36538293957710,0.32612916827202,2.28517150878906,-0.52563661336899,-0.33164605498314
344,3506892246,0.027216,-0.692600,-0.051928,-0.718936,9.82721614837646,0.38809606432915,0.34897163510323,2.20225048065186,-0.34201920032501,-0.27947297692299
345,3506908913,0.027292,-0.692684,-0.052073,-0.718841,9.86613845825195,0.38411247730255,0.34784212708473,1.97803664207458,-0.25192651152611,-0.33721682429314
346,3506925580,0.027370,-0.692764,-0.052215,-0.718751,9.87333393096924,0.36684021353722,0.36443400382996,2.00719666481018,-0.21276469528675,-0.31168091297150
347,3506942247,0.027426,-0.692826,-0.052360,-0.718678,9.84451103210449,0.34390550851822,0.35203424096107,2.07626152038574,-0.04250427335501,-0.44221609830856
348,3506958914,0.027489,-0.692897,-0.052529,-0.718595,9.83450984954834,0.34840935468674,0.34114959836006,2.03525567054749,-0.14215049147606,-0.51709479093552
349,3506975581,0.027488,-0.692966,-0.052658,-0.718519,9.82410526275635,0.29444921016693,0.35140120983124,1.77365994453430,-0.10360335558653,-0.64140594005585
350,3506992248,0.027476,-0.693030,-0.052813,-0.718446,9.72516918182373,0.28283303976059,0.32498586177826,1.88439667224884,-0.07354686409235,-0.82534360885620
351,3507008915,0.027423,-0.693114,-0.052955,-0.718357,9.64240550994873,0.32590156793594,0.33296275138855,1.58230769634247,-0.26098060607910,-0.94992375373840
352,3507025582,0.027380,-0.693229,-0.053139,-0.718234,9.70386409759521,0.33245721459389,0.25841933488846,1.84796273708344,-0.58304756879807,-1.08559441566467
353,3507042249,0.027336,-0.693325,-0.053437,-0.718121,9.83118915557861,0.37027251720428,0.22316092252731,2.38440799713135,-0.45947906374931,-1.64588487148285
354,3507058916,0.027295,-0.693441,-0.053737,-0.717988,9.91949081420898,0.38057714700699,0.28077727556229,2.43841242790222,-0.65035772323608,-1.62465202808380
355,3507075583,0.027287,-0.693614,-0.053977,-0.717804,9.94394207000732,0.38080137968063,0.33737894892693,2.30089783668518,-1.15837275981903,-1.15094518661499
356,3507092250,0.027304,-0.693833,-0.054128,-0.717579,9.94379138946533,0.42910182476044,0.37578749656677,2.00695323944092,-1.55216801166534,-0.57193160057068
357,3507108917,0.027355,-0.694056,-0.054199,-0.717356,9.92376232147217,0.48536261916161,0.34323084354401,1.74377036094666,-1.53627538681030,-0.02504922077060
358,3507125584,0.027420,-0.694244,-0.054180,-0.717174,9.82225894927979,0.48018252849579,0.33127492666245,1.35046160221100,-1.14312028884888,0.45322307944298
359,3507142251,0.027466,-0.694408,-0.054175,-0.717014,9.78637504577637,0.44770306348801,0.35944375395775,1.33547818660736,-0.93298089504242,0.27743032574654
360,3507158918,0.027505,-0.694537,-0.054264,-0.716881,9.77575874328613,0.40235748887062,0.34728622436523,1.75087761878967,-0.64929473400116,-0.22094793617725
361,3507175585,0.027550,-0.694628,-0.054446,-0.716777,9.81829643249512,0.38498082756996,0.34475257992744,2.24338436126709,-0.33649963140488,-0.65624850988388
362,3507192252,0.027639,-0.694663,-0.054681,-0.716722,9.84049797058105,0.37122640013695,0.35532632470131,2.68716263771057,0.17337876558304,-0.72474980354309
363,3507208919,0.027755,-0.694675,-0.054925,-0.716687,9.85101413726807,0.39142179489136,0.33534619212151,2.88035964965820,0.39305889606476,-0.64465886354446
364,3507225586,0.027881,-0.694707,-0.055160,-0.716632,9.85780715942383,0.40982514619827,0.30404719710350,2.89014363288879,0.20832729339600,-0.54368084669113
365,3507242253,0.027992,-0.694762,-0.055386,-0.716557,9.85833644866943,0.42610648274422,0.28244936466217,2.75995421409607,-0.00914373341948,-0.55819034576416
366,3507258920,0.028077,-0.694831,-0.055572,-0.716473,9.83575725555420,0.42489212751389,0.25256270170212,2.48774218559265,-0.11676827818155,-0.49386402964592
367,3507275587,0.028100,-0.694893,-0.055679,-0.716403,9.82320308685303,0.41174072027206,0.28558605909348,1.77505588531494,-0.02844289503992,-0.42277595400810
368,3507292254,0.028052,-0.694956,-0.055713,-0.716341,9.80793857574463,0.41238334774971,0.28948748111725,1.06194722652435,-0.00849060993642,-0.42515799403191
369,3507308921,0.027944,-0.695054,-0.055660,-0.716255,9.81825923919678,0.40361791849136,0.31224223971367,0.36163207888603,-0.29792690277100,-0.28874474763870
370,3507325588,0.027834,-0.695205,-0.055577,-0.716119,9.79472732543945,0.35840034484863,0.30932405591011,0.18198464810848,-0.80048650503159,-0.12031566351652
371,3507342255,0.027705,-0.695366,-0.055537,-0.715971,9.79500865936279,0.32496577501297,0.26237839460373,0.34028387069702,-0.92084056138992,-0.41586056351662
372,3507358922,0.027596,-0.695499,-0.055617,-0.715840,9.84169769287109,0.33612516522408,0.26143589615822,0.98291939496994,-0.71399241685867,-0.91051864624023
373,3507375589,0.027545,-0.695591,-0.055794,-0.715738,9.82212543487549,0.38010391592979,0.22680547833443,1.75714015960693,-0.36806732416153,-1.10909390449524
374,3507392256,0.027558,-0.695669,-0.056013,-0.715645,9.83736896514893,0.40219235420227,0.21635356545448,2.28946161270142,-0.24088746309280,-0.99359351396561
375,3507408923,0.027637,-0.695786,-0.056250,-0.715510,9.80970859527588,0.41712713241577,0.27297538518906,2.68214249610901,-0.61056834459305,-0.73952829837799
376,3507425590,0.027729,-0.695924,-0.056476,-0.715354,9.78184223175049,0.44973802566528,0.24944275617599,2.72194504737854,-0.80927169322968,-0.61138796806335
377,3507442257,0.027772,-0.696074,-0.056636,-0.715194,9.76964092254639,0.46546831727028,0.24876223504543,2.13839793205261,-0.89445954561234,-0.52831315994263
378,3507458924,0.027774,-0.696221,-0.056705,-0.715045,9.77466201782227,0.47845590114594,0.24535791575909,1.53628182411194,-0.82180905342102,-0.29791408777237
379,3507475591,0.027757,-0.696348,-0.056713,-0.714921,9.79642105102539,0.45686483383179,0.20509862899780,1.08417904376984,-0.60209053754807,-0.11610234528780
380,3507492258,0.027773,-0.696471,-0.056706,-0.714801,9.81065368652344,0.42874619364738,0.18065682053566,1.16204178333282,-0.54624211788177,0.12348522245884
381,3507508925,0.027835,-0.696599,-0.056700,-0.714675,9.81596374511719,0.40667521953583,0.20865969359875,1.36949181556702,-0.58902806043625,0.34349828958511
382,3507525592,0.027914,-0.696742,-0.056704,-0.714532,9.83840942382812,0.37504673004150,0.20872394740582,1.53404080867767,-0.73234397172928,0.38628435134888
383,3507542259,0.027968,-0.696910,-0.056723,-0.714365,9.83410072326660,0.37770897150040,0.20884114503860,1.50657105445862,-0.98174762725830,0.20588129758835
384,3507558926,0.027982,-0.697091,-0.056721,-0.714187,9.80877494812012,0.40639647841454,0.25081762671471,1.20322704315186,-1.11285901069641,0.12009155005217
385,3507575593,0.027951,-0.697291,-0.056691,-0.713996,9.80921268463135,0.38820314407349,0.21692898869514,0.84803014993668,-1.28416955471039,0.03870719298720
386,3507592260,0.027919,-0.697475,-0.056672,-0.713819,9.85402870178223,0.34915444254875,0.20707051455975,0.89040637016296,-1.13081347942352,-0.02020842209458
387,3507608927,0.027892,-0.697644,-0.056728,-0.713650,9.87233066558838,0.33845406770706,0.21353152394295,1.29136037826538,-1.03831326961517,-0.36810573935509
388,3507625594,0.027882,-0.697804,-0.056860,-0.713484,9.88625907897949,0.35667684674263,0.19712221622467,1.73593282699585,-0.99085301160812,-0.65533936023712
389,3507642261,0.027881,-0.697962,-0.057032,-0.713316,9.85711193084717,0.39185044169426,0.22301034629345,1.97459197044373,-0.98771536350250,-0.80122935771942
390,3507658928,0.027854,-0.698116,-0.057168,-0.713155,9.83893394470215,0.46280500292778,0.24884225428104,1.68400287628174,-0.94223999977112,-0.76241320371628
391,3507675595,0.027780,-0.698243,-0.057240,-0.713028,9.82814693450928,0.48609298467636,0.19228626787663,1.12608158588409,-0.64865440130234,-0.69265699386597
392,3507692262,0.027638,-0.698356,-0.057264,-0.712920,9.85965156555176,0.48072871565819,0.19113324582577,0.54637652635574,-0.51398283243179,-0.81413793563843
393,3507708929,0.027484,-0.698430,-0.057255,-0.712855,9.87976932525635,0.43885427713394,0.15402010083199,0.33998936414719,-0.11260621994734,-0.73632663488388
394,3507725596,0.027340,-0.698493,-0.057243,-0.712799,9.84147071838379,0.42810770869255,0.16813863813877,0.34754514694214,-0.00697946036234,-0.67954337596893
395,3507742263,0.027227,-0.698554,-0.057264,-0.712742,9.85170555114746,0.39349865913391,0.14516589045525,0.67948573827744,0.00258047948591,-0.68625384569168
396,3507758930,0.027196,-0.698577,-0.057360,-0.712713,9.81669330596924,0.42176318168640,0.13244177401066,1.41467249393463,0.34034791588783,-0.66231876611710
397,3507775597,0.027191,-0.698609,-0.057417,-0.712678,9.80563259124756,0.45895758271217,0.14025281369686,1.36269164085388,0.28507575392723,-0.34851199388504
398,3507792264,0.027238,-0.698638,-0.057484,-0.712642,9.83064556121826,0.46095547080040,0.14312385022640,1.65882599353790,0.31219959259033,-0.13392882049084
399,3507808931,0.027318,-0.698685,-0.057539,-0.712589,9.90048217773438,0.45158994197845,0.13170194625854,1.76750051975250,0.16205796599388,0.08694871515036
400,3507825598,0.027392,-0.698750,-0.057584,-0.712519,9.88507080078125,0.44226112961769,0.16902111470699,1.68136477470398,-0.00840096548200,0.11989945173264
401,3507842265,0.027404,-0.698807,-0.057561,-0.712464,9.81991863250732,0.42938989400864,0.18885764479637,1.05273962020874,0.08732010424137,0.13616351783276
402,3507858932,0.027332,-0.698833,-0.057441,-0.712450,9.82908439636230,0.45890966057777,0.20069317519665,0.17245669662952,0.42547175288200,0.16926792263985
403,3507875599,0.027192,-0.698807,-0.057232,-0.712499,9.83591842651367,0.49363324046135,0.17560066282749,-0.61312961578369,0.97354507446289,0.23497729003429
404,3507892266,0.026998,-0.698795,-0.056932,-0.712542,9.80276775360107,0.46468701958656,0.18587084114552,-1.31887459754944,0.86597174406052,0.41201227903366
405,3507908933,0.026801,-0.698802,-0.056669,-0.712563,9.78772354125977,0.38023558259010,0.15705396234989,-1.16726028919220,0.65875220298767,0.23309478163719
406,3507925600,0.026639,-0.698820,-0.056558,-0.712561,9.76444053649902,0.33274820446968,0.18411387503147,-0.24690642952919,0.48389434814453,-0.32163149118423
407,3507942267,0.026531,-0.698820,-0.056595,-0.712561,9.79527568817139,0.33776441216469,0.17500177025795,0.76676094532013,0.57652264833450,-0.77000743150711
408,3507958934,0.026513,-0.698806,-0.056686,-0.712569,9.82663536071777,0.38965162634850,0.13839304447174,1.45439791679382,0.70427876710892,-0.59861999750137
409,3507975601,0.026514,-0.698783,-0.056798,-0.712582,9.87579536437988,0.42481157183647,0.15288116037846,1.64203655719757,0.78456181287766,-0.61412853002548
410,3507992268,0.026472,-0.698771,-0.056863,-0.712590,9.88561344146729,0.46548980474472,0.18280257284641,1.20604443550110,0.68937224149704,-0.58550631999969
411,3508008935,0.026385,-0.698801,-0.056868,-0.712564,9.86803722381592,0.45114961266518,0.16469325125217,0.70457327365875,0.31990897655487,-0.50070267915726
412,3508025602,0.026284,-0.698848,-0.056828,-0.712524,9.84401130676270,0.44442957639694,0.17676834762096,0.42739269137383,0.16559249162674,-0.34522077441216
413,3508042269,0.026180,-0.698882,-0.056759,-0.712501,9.84818077087402,0.45861303806305,0.17499081790447,0.25422525405884,0.32006269693375,-0.22411109507084
414,3508058936,0.026065,-0.698891,-0.056673,-0.712503,9.82141208648682,0.46030098199844,0.14560160040855,0.11325295269489,0.55692893266678,-0.21652975678444
415,3508075603,0.025941,-0.698869,-0.056577,-0.712537,9.81054782867432,0.48437502980232,0.15065002441406,0.00734444102272,0.86201453208923,-0.22076866030693
416,3508092270,0.025831,-0.698853,-0.056474,-0.712565,9.80669975280762,0.45931735634804,0.15928065776825,0.03754181042314,0.81318396329880,-0.12591202557087
417,3508108937,0.025741,-0.698847,-0.056393,-0.712580,9.77132129669189,0.42376625537872,0.18202537298203,0.25691458582878,0.70194804668427,-0.11926553398371
418,3508125604,0.025669,-0.698825,-0.056354,-0.712607,9.84292030334473,0.42675030231476,0.14521871507168,0.54764437675476,0.84553295373917,-0.24636858701706
419,3508142271,0.025659,-0.698788,-0.056357,-0.712644,9.86134624481201,0.44032689929008,0.13812899589539,1.03906238079071,0.97180336713791,-0.15129423141479
420,3508158938,0.025687,-0.698742,-0.056334,-0.712689,9.84471225738525,0.46522077918053,0.14857877790928,1.10361921787262,1.08207905292511,0.15598773956299
421,3508175605,0.025728,-0.698698,-0.056265,-0.712736,9.81572914123535,0.46172398328781,0.14012385904789,0.92653298377991,1.09254169464111,0.44067287445068
422,3508192272,0.025726,-0.698671,-0.056174,-0.712770,9.80369567871094,0.46282538771629,0.17762094736099,0.62628811597824,0.93389660120010,0.34379285573959
423,3508208939,0.025685,-0.698644,-0.056063,-0.712807,9.79842090606689,0.44041267037392,0.20071996748447,0.33441859483719,0.93836599588394,0.24964056909084
424,3508225606,0.025618,-0.698622,-0.055920,-0.712843,9.79411315917969,0.43311128020287,0.19411838054657,0.05293504521251,0.90477502346039,0.27792975306511
425,3508242273,0.025541,-0.698603,-0.055787,-0.712874,9.81138610839844,0.41566336154938,0.17128287255764,0.04423953592777,0.85763478279114,0.18583934009075
426,3508258940,0.025467,-0.698588,-0.055666,-0.712901,9.81344223022461,0.39286783337593,0.16430884599686,0.11347065120935,0.81680816411972,0.14393696188927
427,3508275607,0.025407,-0.698572,-0.055585,-0.712925,9.82287502288818,0.39401748776436,0.15396447479725,0.40388026833534,0.81201857328415,0.01294081658125
428,3508292274,0.025395,-0.698567,-0.055550,-0.712933,9.82717132568359,0.40474241971970,0.17778019607067,0.87120950222015,0.68318670988083,0.04096111282706
429,3508308941,0.025385,-0.698577,-0.055542,-0.712924,9.82336711883545,0.41989299654961,0.18474046885967,1.00708496570587,0.53132903575897,-0.06897500157356
430,3508325608,0.025370,-0.698578,-0.055538,-0.712924,9.81550598144531,0.43540993332863,0.14346840977669,0.97473609447479,0.61015212535858,-0.12122491002083
431,3508342275,0.025361,-0.698580,-0.055517,-0.712924,9.80696105957031,0.44163954257965,0.18047419190407,0.94712561368942,0.61536431312561,-0.00487921899185
432,3508358942,0.025350,-0.698577,-0.055469,-0.712931,9.81617927551270,0.43880593776703,0.17042611539364,0.79417932033539,0.68140661716461,0.10328960418701
433,3508375609,0.025330,-0.698567,-0.055378,-0.712949,9.81588745117188,0.44060426950455,0.16362516582012,0.53129065036774,0.76585179567337,0.27120649814606
434,3508392276,0.025290,-0.698563,-0.055273,-0.712962,9.83041763305664,0.41233670711517,0.17685775458813,0.37523242831230,0.70680171251297,0.23858867585659
435,3508408943,0.025251,-0.698565,-0.055177,-0.712969,9.83137607574463,0.39245298504829,0.18638119101524,0.40512245893478,0.64370471239090,0.19888900220394
436,3508425610,0.025201,-0.698573,-0.055105,-0.712969,9.82711029052734,0.42089772224426,0.18771871924400,0.52901107072830,0.58238798379898,0.04243384301662
437,3508442277,0.025165,-0.698595,-0.055059,-0.712952,9.84010219573975,0.41921016573906,0.18172855675220,0.68568390607834,0.42611205577850,-0.01011701580137
438,3508458944,0.025155,-0.698614,-0.055041,-0.712935,9.84899616241455,0.40922424197197,0.15478682518005,0.94361656904221,0.44806212186813,-0.01547006983310
439,3508475611,0.025147,-0.698615,-0.055049,-0.712934,9.84351825714111,0.41839668154716,0.16932962834835,1.08508849143982,0.60761654376984,-0.14683760702610
440,3508492278,0.025153,-0.698624,-0.055049,-0.712925,9.83199405670166,0.42494791746140,0.18343904614449,1.11454308032990,0.54336708784103,-0.03498695045710
441,3508508945,0.025136,-0.698623,-0.055037,-0.712927,9.83428955078125,0.45794144272804,0.19626818597317,0.93310254812241,0.62745344638824,-0.08787716925144
442,3508525612,0.025092,-0.698611,-0.054990,-0.712945,9.83112239837646,0.45453336834908,0.19482895731926,0.63745528459549,0.76263737678528,-0.06535080075264
443,3508542279,0.025036,-0.698588,-0.054921,-0.712974,9.82506847381592,0.47322356700897,0.20319086313248,0.46150878071785,0.86809760332108,-0.02059260942042
444,3508558946,0.024990,-0.698577,-0.054821,-0.712994,9.81781291961670,0.44679784774780,0.18795481324196,0.37922799587250,0.76811844110489,0.17697733640671
445,3508575613,0.024969,-0.698549,-0.054722,-0.713029,9.82238864898682,0.43449443578720,0.18491202592850,0.46554282307625,0.93980032205582,0.28867432475090
446,3508592280,0.024940,-0.698520,-0.054633,-0.713065,9.81701850891113,0.41702264547348,0.15841665863991,0.48833808302879,0.93990278244019,0.20372980833054
447,3508608947,0.024925,-0.698482,-0.054552,-0.713110,9.81635093688965,0.41402614116669,0.18163619935513,0.59890818595886,1.03484916687012,0.22867660224438
448,3508625614,0.024869,-0.698442,-0.054446,-0.713159,9.82912921905518,0.39263245463371,0.18227617442608,0.27922323346138,1.05421233177185,0.14667750895023
449,3508642281,0.024834,-0.698425,-0.054338,-0.713185,9.86458396911621,0.37681463360786,0.17194558680058,0.35189932584763,0.83455789089203,0.27362689375877
450,3508658948,0.024869,-0.698415,-0.054304,-0.713196,9.82027626037598,0.39273819327354,0.16681018471718,1.07821130752563,0.73848462104797,0.25883552432060
451,3508675615,0.024940,-0.698424,-0.054270,-0.713188,9.79742908477783,0.40587955713272,0.17882990837097,1.26196968555450,0.57608717679977,0.45062339305878
452,3508692282,0.025070,-0.698437,-0.054299,-0.713169,9.84603881835938,0.42512464523315,0.14774262905121,1.84656667709351,0.50818794965744,0.44098022580147
453,3508708949,0.025190,-0.698457,-0.054346,-0.713141,9.89874649047852,0.42992049455643,0.17926937341690,1.91522157192230,0.42985150218010,0.30860099196434
454,3508725616,0.025265,-0.698500,-0.054353,-0.713096,9.83233070373535,0.40484595298767,0.18850435316563,1.48104798793793,0.22594885528088,0.29443722963333
455,3508742283,0.025263,-0.698521,-0.054310,-0.713079,9.81977081298828,0.43741419911385,0.21962380409241,0.87489777803421,0.44209438562393,0.13730327785015
456,3508758950,0.025269,-0.698515,-0.054222,-0.713090,9.82862854003906,0.46778139472008,0.17952831089497,0.68094557523727,0.72085022926331,0.38424810767174
457,3508775617,0.025228,-0.698483,-0.054012,-0.713139,9.80434608459473,0.47817516326904,0.18252660334110,-0.14403299987316,1.04076552391052,0.72512751817703
458,3508792284,0.025136,-0.698464,-0.053759,-0.713180,9.78806877136230,0.43196648359299,0.18488894402981,-0.61620312929153,0.91859298944473,0.67954975366592
459,3508808951,0.025052,-0.698476,-0.053615,-0.713183,9.79819679260254,0.35597926378250,0.16313584148884,-0.03735611960292,0.57378202676773,0.22190201282501
460,3508825618,0.025010,-0.698480,-0.053587,-0.713183,9.80797004699707,0.33033487200737,0.17145249247551,0.73637145757675,0.59196704626083,-0.13814207911491
461,3508842285,0.025035,-0.698466,-0.053635,-0.713191,9.81255340576172,0.35168105363846,0.17385542392731,1.42487931251526,0.73169720172882,-0.18327167630196
462,3508858952,0.025080,-0.698452,-0.053710,-0.713198,9.81960964202881,0.37590882182121,0.18079081177711,1.65714836120605,0.72625458240509,-0.21075411140919
463,3508875619,0.025104,-0.698456,-0.053776,-0.713188,9.81699752807617,0.41891664266586,0.17134688794613,1.50990068912506,0.54936033487320,-0.25848335027695
464,3508892286,0.025083,-0.698479,-0.053793,-0.713165,9.83871173858643,0.42529454827309,0.15487155318260,1.06051313877106,0.39180392026901,-0.23726324737072
465,3508908953,0.025004,-0.698520,-0.053755,-0.713131,9.83917999267578,0.42797902226448,0.17812372744083,0.51397651433945,0.23337648808956,-0.25441098213196
466,3508925620,0.024880,-0.698567,-0.053665,-0.713096,9.82740020751953,0.42207098007202,0.18669253587723,0.07897035777569,0.19690401852131,-0.21255978941917
467,3508942287,0.024734,-0.698602,-0.053542,-0.713076,9.82768249511719,0.39594694972038,0.21449376642704,-0.23919698596001,0.32075425982475,-0.17831562459469
468,3508958954,0.024572,-0.698611,-0.053426,-0.713081,9.82123470306396,0.41499739885330,0.19247505068779,-0.28556877374649,0.56480485200882,-0.30272927880287
469,3508975621,0.024423,-0.698618,-0.053322,-0.713087,9.82826137542725,0.41769742965698,0.17623192071915,-0.17575435340405,0.57471692562103,-0.29518634080887
470,3508992288,0.024304,-0.698642,-0.053259,-0.713073,9.80754089355469,0.39658349752426,0.16274246573448,0.27475380897522,0.40744039416313,-0.33434820175171
471,3509008955,0.024223,-0.698651,-0.053271,-0.713065,9.85608673095703,0.36059978604317,0.16314707696438,0.73794662952423,0.50599807500839,-0.51765817403793
472,3509025622,0.024207,-0.698637,-0.053394,-0.713070,9.86872386932373,0.39750835299492,0.15630586445332,1.59812355041504,0.69221520423889,-0.73402148485184
473,3509042289,0.024229,-0.698607,-0.053504,-0.713090,9.85371589660645,0.45873177051544,0.18662872910500,1.76093065738678,0.85745549201965,-0.50346881151199
474,3509058956,0.024246,-0.698581,-0.053535,-0.713113,9.84728908538818,0.47918498516083,0.18737898766994,1.32498955726624,0.86079800128937,-0.14343109726906
475,3509075623,0.024231,-0.698586,-0.053495,-0.713112,9.84948635101318,0.49549376964569,0.18581634759903,0.80492383241653,0.59780675172806,0.05114215612411
476,3509092290,0.024213,-0.698592,-0.053398,-0.713114,9.82454395294189,0.44261217117310,0.18130059540272,0.51021134853363,0.60697615146637,0.31307038664818
477,3509108957,0.024198,-0.698580,-0.053295,-0.713134,9.80698490142822,0.43933856487274,0.16464510560036,0.49187272787094,0.78877514600754,0.35202735662460
478,3509125624,0.024173,-0.698538,-0.053188,-0.713184,9.81383132934570,0.42892968654633,0.17498093843460,0.41325449943542,1.07621359825134,0.30059704184532
479,3509142291,0.024148,-0.698484,-0.053073,-0.713246,9.81788349151611,0.39251318573952,0.18323957920074,0.36597350239754,1.19713127613068,0.33239525556564
480,3509158958,0.024116,-0.698418,-0.052983,-0.713319,9.81127929687500,0.38814061880112,0.19347715377808,0.46568375825882,1.29967164993286,0.17044611275196
481,3509175625,0.024091,-0.698371,-0.052912,-0.713371,9.82090377807617,0.37487679719925,0.18062868714333,0.57891732454300,1.10448992252350,0.13010610640049
482,3509192292,0.024115,-0.698339,-0.052884,-0.713404,9.82917785644531,0.38387602567673,0.17042903602123,1.05143332481384,0.95338803529739,0.17194446921349
483,3509208959,0.024161,-0.698317,-0.052878,-0.713424,9.83465671539307,0.39840963482857,0.17001047730446,1.26546585559845,0.84893935918808,0.17058700323105
484,3509225626,0.024204,-0.698286,-0.052884,-0.713452,9.84399795532227,0.40631595253944,0.16161498427391,1.27795207500458,0.91979694366455,0.10610701888800
485,3509242293,0.024228,-0.698257,-0.052863,-0.713481,9.83069133758545,0.41243949532509,0.20249618589878,1.07654654979706,0.91559636592865,0.13802044093609
486,3509258960,0.024221,-0.698223,-0.052782,-0.713521,9.82490444183350,0.41420152783394,0.16225390136242,0.61900138854980,0.98966836929321,0.26626327633858
487,3509275627,0.024180,-0.698192,-0.052647,-0.713563,9.82319164276123,0.41357043385506,0.18969497084618,0.20189850032330,0.98085755109787,0.36534595489502
488,3509292294,0.024142,-0.698150,-0.052509,-0.713615,9.81025791168213,0.39244544506073,0.18396298587322,0.19742907583714,1.08789288997650,0.38127702474594
489,3509308961,0.024110,-0.698122,-0.052415,-0.713650,9.80957698822021,0.37385028600693,0.16592894494534,0.45208334922791,0.93461376428604,0.21310402452946
490,3509325628,0.024110,-0.698082,-0.052370,-0.713693,9.82120895385742,0.38882431387901,0.20249837636948,0.83964186906815,1.02690923213959,0.12964509427547
491,3509342295,0.024125,-0.698048,-0.052373,-0.713726,9.82025718688965,0.39073112607002,0.17856626212597,1.12240612506866,0.95630782842636,-0.02138660661876
492,3509358962,0.024154,-0.698010,-0.052397,-0.713760,9.83256626129150,0.39521607756615,0.19947078824043,1.30959641933441,0.97387802600861,-0.06040754914284
493,3509375629,0.024181,-0.697980,-0.052412,-0.713787,9.81678581237793,0.40095010399818,0.19040936231613,1.30716347694397,0.91338092088699,-0.01988826133311
494,3509392296,0.024190,-0.697948,-0.052399,-0.713819,9.82255554199219,0.42525911331177,0.21129207313061,1.02039062976837,0.93616336584091,0.02354447357357
495,3509408963,0.024192,-0.697927,-0.052332,-0.713845,9.82625675201416,0.44212570786476,0.20944099128246,0.74310767650604,0.85781407356262,0.25423803925514
496,3509425630,0.024169,-0.697894,-0.052230,-0.713885,9.83314895629883,0.40755367279053,0.21793299913406,0.43606260418892,0.98587763309479,0.28909695148468
497,3509442297,0.024121,-0.697855,-0.052097,-0.713935,9.84149837493896,0.41990491747856,0.20448969304562,0.20248758792877,1.06090998649597,0.31572136282921
498,3509458964,0.024064,-0.697809,-0.051975,-0.713991,9.81368446350098,0.39082896709442,0.22536431252956,0.15656402707100,1.11482465267181,0.21405172348022
499,3509475631,0.024009,-0.697759,-0.051862,-0.714050,9.82942676544189,0.38153091073036,0.19681981205940,0.22368209064007,1.14839005470276,0.18143394589424
500,3509492298,0.023989,-0.697710,-0.051771,-0.714105,9.85307502746582,0.35574686527252,0.16515171527863,0.51267021894455,1.13293313980103,0.24465893208981
501,3509508965,0.024037,-0.697659,-0.051752,-0.714154,9.81399822235107,0.39133161306381,0.23899982869625,1.19318675994873,1.12732374668121,0.23587375879288
502,3509525632,0.024087,-0.697624,-0.051717,-0.714189,9.78080558776855,0.41479232907295,0.21866405010223,1.07005381584167,0.98604410886765,0.32619693875313
503,3509542299,0.024152,-0.697576,-0.051713,-0.714234,9.83118629455566,0.40258622169495,0.23960752785206,1.34434020519257,1.09076166152954,0.24860328435898
504,3509558966,0.024167,-0.697544,-0.051715,-0.714265,9.88560581207275,0.40272441506386,0.22035515308380,1.11518323421478,0.93711102008820,-0.01664825528860
505,3509575633,0.024165,-0.697515,-0.051686,-0.714295,9.83885002136230,0.36976301670074,0.24373917281628,0.88384950160980,0.91354739665985,0.04398341104388
506,3509592300,0.024117,-0.697470,-0.051598,-0.714347,9.83684825897217,0.38562121987343,0.21147409081459,0.41636642813683,1.08489620685577,0.10152232646942
507,3509608967,0.024087,-0.697401,-0.051494,-0.714423,9.84844684600830,0.44079053401947,0.20684888958931,0.36667785048485,1.33038139343262,0.24654144048691
508,3509625634,0.024043,-0.697339,-0.051317,-0.714498,9.82818698883057,0.45799335837364,0.20616208016872,-0.01699402555823,1.30159258842468,0.53015083074570
509,3509642301,0.023984,-0.697288,-0.051082,-0.714567,9.80078411102295,0.41137921810150,0.22717212140560,-0.34598910808563,1.22320473194122,0.74979251623154
510,3509658968,0.023927,-0.697278,-0.050931,-0.714589,9.77330589294434,0.34315687417984,0.23030315339565,0.02732235006988,0.78201341629028,0.36665225028992
511,3509675635,0.023900,-0.697282,-0.050890,-0.714589,9.77999019622803,0.31490364670753,0.23665055632591,0.72674113512039,0.59858798980713,-0.00025612697937
512,3509692302,0.023913,-0.697249,-0.050934,-0.714617,9.80221748352051,0.33554768562317,0.21423035860062,1.31890666484833,0.91285562515259,-0.22776092588902
513,3509708969,0.023950,-0.697187,-0.050997,-0.714672,9.82326126098633,0.38869500160217,0.21461784839630,1.52259147167206,1.19241833686829,-0.21860435605049
514,3509725636,0.023983,-0.697134,-0.051037,-0.714720,9.83008766174316,0.40352106094360,0.22393664717674,1.41144549846649,1.11595189571381,-0.12061019986868
515,3509742303,0.023997,-0.697115,-0.051042,-0.714738,9.84773635864258,0.41476723551750,0.22197680175304,1.15825104713440,0.80573076009750,-0.02909602969885
516,3509758970,0.023979,-0.697111,-0.051027,-0.714743,9.86058998107910,0.39938279986382,0.23380193114281,0.86502403020859,0.65762525796890,-0.08644285053015
517,3509775637,0.023947,-0.697109,-0.050970,-0.714750,9.83663272857666,0.38361924886703,0.25279861688614,0.66988092660904,0.66734528541565,0.05100129172206
518,3509792304,0.023877,-0.697115,-0.050879,-0.714753,9.83062171936035,0.39556071162224,0.22816559672356,0.27938970923424,0.59757626056671,0.03071603178978
519,3509808971,0.023801,-0.697095,-0.050772,-0.714783,9.81724643707275,0.41698282957077,0.21647264063358,0.15515534579754,0.85635417699814,0.05727639794350
520,3509825638,0.023710,-0.697096,-0.050642,-0.714794,9.82126712799072,0.40068900585175,0.22127425670624,-0.01636651344597,0.65143978595734,0.10882195085287
521,3509842305,0.023657,-0.697107,-0.050547,-0.714792,9.79867172241211,0.35468822717667,0.21962562203407,0.34088581800461,0.55769723653793,0.13576650619507
522,3509858972,0.023635,-0.697089,-0.050516,-0.714812,9.83614349365234,0.34180596470833,0.22464703023434,0.81304317712784,0.80597400665283,-0.03415453433990
523,3509875639,0.023672,-0.697034,-0.050592,-0.714859,9.87809658050537,0.38868546485901,0.20584717392921,1.59446072578430,1.11773169040680,-0.27581033110619
524,3509892306,0.023719,-0.696980,-0.050647,-0.714906,9.87575149536133,0.44034373760223,0.22160024940968,1.58691799640656,1.11934530735016,-0.12183961272240
525,3509908973,0.023779,-0.696936,-0.050652,-0.714947,9.85993862152100,0.43754035234451,0.23837475478649,1.34961628913879,1.05441713333130,0.18340612947941
526,3509925640,0.023850,-0.696908,-0.050643,-0.714973,9.83182144165039,0.40958240628242,0.23482158780098,1.34962928295135,0.90585076808929,0.31460720300674
527,3509942307,0.023895,-0.696904,-0.050620,-0.714977,9.80100536346436,0.39321801066399,0.23217338323593,1.18619453907013,0.68327641487122,0.26371476054192
528,3509958974,0.023917,-0.696881,-0.050578,-0.715001,9.79953861236572,0.38487452268600,0.24287785589695,0.97194433212280,0.86476802825928,0.22995723783970
529,3509975641,0.023918,-0.696831,-0.050523,-0.715054,9.79969787597656,0.37245383858681,0.24465748667717,0.81121176481247,1.13243341445923,0.17932091653347
530,3509992308,0.023900,-0.696767,-0.050449,-0.715122,9.79478454589844,0.38064566254616,0.24126476049423,0.60239154100418,1.27163851261139,0.16737258434296
531,3510008975,0.023872,-0.696703,-0.050365,-0.715191,9.80392265319824,0.36232841014862,0.23276354372501,0.50316786766052,1.26681041717529,0.16825622320175
532,3510025642,0.023866,-0.696648,-0.050329,-0.715248,9.83199214935303,0.36086305975914,0.23864828050137,0.85580360889435,1.16549968719482,0.04810705408454
533,3510042309,0.023888,-0.696606,-0.050338,-0.715287,9.84539508819580,0.36340379714966,0.23952096700668,1.25844800472260,1.02699875831604,-0.01899181678891
534,3510058976,0.023927,-0.696588,-0.050355,-0.715302,9.83532428741455,0.36994078755379,0.23908646404743,1.36661028862000,0.78942817449570,0.03743936121464
535,3510075643,0.023973,-0.696573,-0.050365,-0.715314,9.83421134948730,0.38727462291718,0.22463262081146,1.34102332592010,0.76865631341934,0.10499285906553
536,3510092310,0.023988,-0.696565,-0.050341,-0.715323,9.80561828613281,0.40604919195175,0.24508300423622,1.00988936424255,0.71426767110825,0.12191003561020
537,3510108977,0.023974,-0.696539,-0.050278,-0.715353,9.80343055725098,0.40026801824570,0.25755810737610,0.68670845031738,0.89901214838028,0.14715135097504
538,3510125644,0.023932,-0.696507,-0.050198,-0.715392,9.83029651641846,0.38014733791351,0.23013971745968,0.45949819684029,0.96295422315598,0.09422272443771
539,3510142311,0.023902,-0.696479,-0.050127,-0.715425,9.83658409118652,0.35855340957642,0.24166020750999,0.54140770435333,0.91477686166763,0.11306086927652
540,3510158978,0.023885,-0.696458,-0.050093,-0.715448,9.82458686828613,0.35419240593910,0.24256041646004,0.81488722562790,0.83650428056717,0.00442459341139
541,3510175645,0.023901,-0.696446,-0.050092,-0.715460,9.83989715576172,0.36585706472397,0.23448932170868,1.08850777149200,0.74491333961487,0.01306887995452
542,3510192312,0.023928,-0.696430,-0.050108,-0.715473,9.85210323333740,0.36974698305130,0.26315271854401,1.28701901435852,0.76649206876755,-0.01494501065463
543,3510208979,0.023974,-0.696407,-0.050126,-0.715492,9.83744907379150,0.38913020491600,0.30339288711548,1.38610172271729,0.84014135599136,0.06174581870437
544,3510225646,0.024015,-0.696383,-0.050134,-0.715515,9.82860755920410,0.39802336692810,0.24345363676548,1.29449796676636,0.86262935400009,0.08653891086578
545,3510242313,0.024043,-0.696362,-0.050095,-0.715536,9.82785987854004,0.40711766481400,0.25130692124367,1.00449812412262,0.84019267559052,0.25107491016388
546,3510258980,0.024038,-0.696318,-0.050027,-0.715585,9.81260204315186,0.40248647332191,0.24957460165024,0.71486961841583,1.08359003067017,0.21301440894604
547,3510275647,0.023988,-0.696254,-0.049943,-0.715654,9.83857917785645,0.38516277074814,0.26020112633705,0.38231438398361,1.26033055782318,0.05785268917680
548,3510292314,0.023918,-0.696172,-0.049848,-0.715743,9.83229732513428,0.36980152130127,0.26479700207710,0.24896186590195,1.44757211208344,0.00275976862758
549,3510308981,0.023855,-0.696105,-0.049761,-0.715816,9.82725334167480,0.34545907378197,0.24565055966377,0.37302979826927,1.29565048217773,0.00519297504798
550,3510325648,0.023800,-0.696058,-0.049695,-0.715869,9.80614471435547,0.35655090212822,0.24762725830078,0.46257179975510,1.09562826156616,-0.04338791221380
551,3510342315,0.023764,-0.696032,-0.049647,-0.715898,9.84573459625244,0.32336938381195,0.23768122494221,0.65929007530212,0.88381093740463,-0.02600969746709
552,3510358982,0.023790,-0.695994,-0.049656,-0.715934,9.80166053771973,0.36575335264206,0.23058754205704,1.23406469821930,0.98681241273880,-0.00032015872421
553,3510375649,0.023804,-0.695952,-0.049653,-0.715974,9.78589344024658,0.39695644378662,0.26546055078506,1.12026739120483,1.02826678752899,-0.00111415237188
554,3510392316,0.023843,-0.695916,-0.049645,-0.716008,9.81241035461426,0.40086168050766,0.24660181999207,1.22257745265961,0.97126561403275,0.14575548470020
555,3510408983,0.023873,-0.695889,-0.049624,-0.716035,9.86761283874512,0.38075995445251,0.24872681498528,1.10767877101898,0.89925545454025,0.17287930846214
556,3510425650,0.023858,-0.695880,-0.049564,-0.716048,9.89638805389404,0.36261361837387,0.25123983621597,0.69764512777328,0.72907197475433,0.14199042320251
557,3510442317,0.023791,-0.695864,-0.049464,-0.716073,9.86106586456299,0.33778202533722,0.28963828086853,0.25609493255615,0.81434935331345,0.07829160988331
558,3510458984,0.023696,-0.695841,-0.049317,-0.716109,9.83182430267334,0.36058968305588,0.28827050328255,-0.08892729133368,0.90141975879669,0.15765257179737
559,3510475651,0.023633,-0.695825,-0.049199,-0.716134,9.79166698455811,0.38756451010704,0.30093315243721,0.17377576231956,0.81560438871384,0.17903916537762
560,3510492318,0.023547,-0.695809,-0.049062,-0.716162,9.75229358673096,0.38918110728264,0.27317547798157,0.01652659475803,0.83180439472198,0.15684577822685
561,3510508985,0.023469,-0.695780,-0.048966,-0.716200,9.74711036682129,0.35500627756119,0.29640531539917,0.21849553287029,0.93305134773254,-0.00145992368925
562,3510525652,0.023408,-0.695763,-0.048995,-0.716217,9.76894569396973,0.32743880152702,0.23784215748310,0.89506775140762,0.76174098253250,-0.51448231935501
563,3510542319,0.023392,-0.695738,-0.049064,-0.716236,9.79268169403076,0.35409501194954,0.25519159436226,1.29393446445465,0.81596302986145,-0.48550152778625
564,3510558986,0.023372,-0.695684,-0.049118,-0.716285,9.84199619293213,0.35811981558800,0.28230285644531,1.28806924819946,1.10776865482330,-0.44285643100739
565,3510575653,0.023302,-0.695624,-0.049093,-0.716347,9.86528587341309,0.38375186920166,0.28910529613495,0.59939485788345,1.19591462612152,-0.32005628943443
566,3510592320,0.023174,-0.695592,-0.049028,-0.716388,9.83821392059326,0.38353335857391,0.25047066807747,0.11084536463022,0.93941622972488,-0.40697297453880
567,3510608987,0.023029,-0.695616,-0.048944,-0.716375,9.83468723297119,0.38770374655724,0.26356652379036,-0.05715473741293,0.40745320916176,-0.36642807722092
568,3510625654,0.022916,-0.695649,-0.048851,-0.716352,9.82407760620117,0.36088579893112,0.27199918031693,0.08781953901052,0.32378932833672,-0.15919572114944
569,3510642321,0.022876,-0.695694,-0.048794,-0.716314,9.78228569030762,0.32881081104279,0.27033266425133,0.60607969760895,0.21205393970013,0.03152282908559
570,3510658988,0.022885,-0.695732,-0.048781,-0.716278,9.78204345703125,0.36275696754456,0.27372747659683,1.03912639617920,0.27022036910057,0.06163055822253
571,3510675655,0.022888,-0.695783,-0.048755,-0.716230,9.81560134887695,0.39085489511490,0.30201947689056,0.94941788911819,0.14631894230843,0.09692485630512
572,3510692322,0.022836,-0.695832,-0.048719,-0.716187,9.79865074157715,0.38271498680115,0.30195349454880,0.65000545978546,0.16044434905052,-0.12564308941364
573,3510708989,0.022722,-0.695864,-0.048676,-0.716162,9.81715297698975,0.38724625110626,0.28794512152672,0.29916271567345,0.31316003203392,-0.40674245357513
574,3510725656,0.022621,-0.695858,-0.048666,-0.716172,9.86395072937012,0.39817219972610,0.25146242976189,0.53342926502228,0.66514253616333,-0.51555800437927
575,3510742323,0.022574,-0.695822,-0.048640,-0.716210,9.88987541198730,0.41217797994614,0.23063002526760,0.71475446224213,0.96755182743073,-0.19218491017818
576,3510758990,0.022595,-0.695799,-0.048572,-0.716236,9.87328529357910,0.40880486369133,0.26509249210358,0.81218516826630,0.87643462419510,0.35593330860138
577,3510775657,0.022656,-0.695815,-0.048525,-0.716222,9.82693386077881,0.39120700955391,0.31463029980659,1.11522161960602,0.50356495380402,0.46640086174011
578,3510792324,0.022706,-0.695848,-0.048481,-0.716191,9.79293632507324,0.37408292293549,0.29058760404587,1.08876383304596,0.32970589399338,0.40609574317932
579,3510808991,0.022708,-0.695871,-0.048429,-0.716172,9.77963161468506,0.37695747613907,0.25993099808693,0.84230571985245,0.43136271834373,0.20466470718384
580,3510825658,0.022686,-0.695854,-0.048357,-0.716194,9.78689289093018,0.37093263864517,0.26356330513954,0.50494796037674,0.80634540319443,0.16105906665325
581,3510842325,0.022633,-0.695826,-0.048273,-0.716229,9.80670642852783,0.35045501589775,0.27718052268028,0.33062794804573,0.92477846145630,0.06045237928629
582,3510858992,0.022585,-0.695814,-0.048193,-0.716248,9.81418609619141,0.35400688648224,0.26019027829170,0.43330922722816,0.76389229297638,0.07159389555454
583,3510875659,0.022565,-0.695803,-0.048112,-0.716265,9.80787658691406,0.35136219859123,0.26292937994003,0.58222144842148,0.76346969604492,0.22127451002598
584,3510892326,0.022600,-0.695810,-0.048077,-0.716259,9.82168006896973,0.36130887269974,0.23251864314079,1.05622291564941,0.57237344980240,0.28119546175003
585,3510908993,0.022633,-0.695830,-0.048066,-0.716239,9.82189273834229,0.38143175840378,0.26293939352036,1.18376135826111,0.44281154870987,0.15802395343781
586,3510925660,0.022660,-0.695870,-0.048025,-0.716202,9.85220527648926,0.37404638528824,0.24345171451569,1.01097810268402,0.25923255085945,0.28625398874283
587,3510942327,0.022690,-0.695899,-0.047965,-0.716177,9.85063743591309,0.37166017293930,0.27959740161896,0.91042268276215,0.38364621996880,0.38195580244064
588,3510958994,0.022707,-0.695906,-0.047877,-0.716176,9.84040641784668,0.35491454601288,0.26075646281242,0.69782429933548,0.59778112173080,0.43928977847099
589,3510975661,0.022717,-0.695929,-0.047782,-0.716159,9.81917953491211,0.34847560524940,0.28212368488312,0.65006953477859,0.44711446762085,0.44994470477104
590,3510992328,0.022718,-0.695944,-0.047695,-0.716151,9.82330417633057,0.34587854146957,0.27858766913414,0.60920441150665,0.52017468214035,0.36474406719208
591,3511008995,0.022706,-0.695962,-0.047621,-0.716138,9.81448268890381,0.35407313704491,0.25169703364372,0.62193393707275,0.47331625223160,0.23609143495560
592,3511025662,0.022682,-0.695967,-0.047554,-0.716138,9.81848239898682,0.36486276984215,0.29302290081978,0.60137975215912,0.59858793020248,0.13718800246716
593,3511042329,0.022650,-0.695962,-0.047509,-0.716148,9.82979583740234,0.33591616153717,0.26468917727470,0.64452433586121,0.68932092189789,-0.01244777161628
594,3511058996,0.022640,-0.695964,-0.047488,-0.716147,9.83103656768799,0.35078802704811,0.25882571935654,0.88427209854126,0.60506802797318,-0.01014262903482
595,3511075663,0.022621,-0.695970,-0.047459,-0.716143,9.82447528839111,0.35265696048737,0.27463632822037,0.79104185104370,0.56928712129593,-0.02009316347539
596,3511092330,0.022607,-0.696001,-0.047417,-0.716117,9.87210369110107,0.33760836720467,0.24429760873318,0.76398193836212,0.34846717119217,0.08562965691090
597,3511108997,0.022616,-0.696014,-0.047429,-0.716103,9.84086990356445,0.35656452178955,0.24434088170528,1.16205465793610,0.48531582951546,-0.07460980117321
598,3511125664,0.022639,-0.696040,-0.047411,-0.716078,9.81783962249756,0.38598155975342,0.27627566456795,1.06701850891113,0.38309553265572,0.14756116271019
599,3511142331,0.022680,-0.696099,-0.047376,-0.716022,9.82719612121582,0.38395398855209,0.22022417187691,1.06512331962585,0.08019976317883,0.33166524767876
600,3511158998,0.022727,-0.696121,-0.047343,-0.716001,9.85555648803711,0.37824255228043,0.26552385091782,1.12711894512177,0.43293789029121,0.33193421363831
601,3511175665,0.022724,-0.696147,-0.047299,-0.715979,9.86091804504395,0.38853245973587,0.27628886699677,0.82864123582840,0.39777159690857,0.14152936637402
602,3511192332,0.022668,-0.696144,-0.047193,-0.715991,9.83270359039307,0.36753374338150,0.30396685004234,0.25770854949951,0.68961542844772,0.16625842452049
603,3511208999,0.022576,-0.696103,-0.047066,-0.716042,9.85160064697266,0.36667394638062,0.28571739792824,-0.07523729652166,1.05212485790253,0.06805933266878
604,3511225666,0.022516,-0.696070,-0.046944,-0.716084,9.86457729339600,0.37940958142281,0.28311711549759,0.14202880859375,0.98371332883835,0.20502325892448
605,3511242333,0.022485,-0.696045,-0.046825,-0.716117,9.81975364685059,0.37110227346420,0.28064173460007,0.26490578055382,0.90866822004318,0.34057849645615
606,3511259000,0.022464,-0.696033,-0.046720,-0.716136,9.80981349945068,0.34375962615013,0.26281881332397,0.43479481339455,0.77865815162659,0.32591521739960
607,3511275667,0.022452,-0.696029,-0.046700,-0.716142,9.79528903961182,0.32706242799759,0.27286499738693,0.87192672491074,0.66913819313049,-0.03193903714418
608,3511292334,0.022442,-0.696008,-0.046717,-0.716161,9.81999969482422,0.34401386976242,0.26444062590599,1.04430031776428,0.80407875776291,-0.20957590639591
609,3511309001,0.022435,-0.695981,-0.046719,-0.716188,9.82791042327881,0.34956213831902,0.27337759733200,0.97229003906250,0.87771517038345,-0.11921431124210
610,3511325668,0.022395,-0.695956,-0.046696,-0.716215,9.83227920532227,0.32952761650085,0.24123068153858,0.74263370037079,0.86439657211304,-0.16895414888859
611,3511342335,0.022358,-0.695950,-0.046694,-0.716222,9.82048797607422,0.32513585686684,0.22983983159065,0.85093712806702,0.67287755012512,-0.23737847805023
612,3511359002,0.022322,-0.695972,-0.046690,-0.716202,9.83122253417969,0.32642751932144,0.26889508962631,0.84462356567383,0.40660798549652,-0.21052357554436
613,3511375669,0.022270,-0.695996,-0.046705,-0.716179,9.82624626159668,0.34694162011147,0.26068183779716,0.87934154272079,0.37340113520622,-0.38020771741867
614,3511392336,0.022216,-0.696017,-0.046712,-0.716160,9.81457710266113,0.35878562927246,0.24815638363361,0.82127755880356,0.40487912297249,-0.35891073942184
615,3511409003,0.022158,-0.696012,-0.046710,-0.716166,9.81899929046631,0.39462643861771,0.26639673113823,0.69866961240768,0.65029996633530,-0.34227529168129
616,3511425670,0.022108,-0.696047,-0.046658,-0.716137,9.85829067230225,0.38841903209686,0.26928126811981,0.55169111490250,0.30203133821487,-0.04929163679481
617,3511442337,0.022092,-0.696098,-0.046605,-0.716092,9.80856037139893,0.36152237653732,0.28159412741661,0.72023546695709,0.15299104154110,0.13406325876713
618,3511459004,0.022059,-0.696135,-0.046567,-0.716060,9.81109237670898,0.33935347199440,0.27937689423561,0.66304236650467,0.28050389885902,-0.03275864571333
619,3511475671,0.022036,-0.696124,-0.046576,-0.716070,9.85440254211426,0.37553304433823,0.26105046272278,0.97002339363098,0.71148878335953,-0.22318905591965
620,3511492338,0.022031,-0.696093,-0.046596,-0.716099,9.86441707611084,0.38878393173218,0.22953031957150,1.09925210475922,0.90638852119446,-0.20204576849937
621,3511509005,0.022042,-0.696040,-0.046572,-0.716152,9.85423374176025,0.40277829766273,0.24676238000393,0.97012579441071,1.13977158069611,0.07535895705223
622,3511525672,0.022072,-0.696017,-0.046547,-0.716175,9.82531452178955,0.37085384130478,0.27663362026215,1.05318772792816,0.86107969284058,0.19290843605995
623,3511542339,0.022115,-0.696018,-0.046521,-0.716174,9.80837440490723,0.36943978071213,0.29848670959473,1.09719038009644,0.62916952371597,0.26867079734802
624,3511559006,0.022136,-0.696016,-0.046458,-0.716179,9.81593322753906,0.35783827304840,0.26378655433655,0.83526211977005,0.66807526350021,0.34075772762299
625,3511575673,0.022148,-0.695978,-0.046372,-0.716222,9.83468723297119,0.33872187137604,0.27799975872040,0.62609606981277,1.02894532680511,0.38559278845787
626,3511592340,0.022130,-0.695941,-0.046281,-0.716264,9.83010673522949,0.33867892622948,0.28748860955238,0.49764832854271,1.00713610649109,0.26668581366539
627,3511609007,0.022087,-0.695911,-0.046193,-0.716301,9.84154319763184,0.33625063300133,0.27905327081680,0.39250817894936,0.94511497020721,0.13141232728958
628,3511625674,0.022062,-0.695895,-0.046128,-0.716321,9.82968997955322,0.33694079518318,0.25935927033424,0.57576704025269,0.79703515768051,0.10678573697805
629,3511642341,0.022057,-0.695878,-0.046108,-0.716339,9.82338523864746,0.33909055590630,0.26341393589973,0.87379652261734,0.79216879606247,-0.00032015872421
630,3511659008,0.022064,-0.695867,-0.046113,-0.716350,9.82435607910156,0.33410409092903,0.26388981938362,1.08318018913269,0.72438466548920,-0.06204675137997
631,3511675675,0.022061,-0.695848,-0.046123,-0.716366,9.81425952911377,0.34843841195107,0.27722537517548,1.07678985595703,0.78754568099976,-0.13358302414417
632,3511692342,0.022056,-0.695831,-0.046118,-0.716384,9.80968666076660,0.36554381251335,0.25788673758507,0.90257239341736,0.78443378210068,-0.07975795120001
633,3511709009,0.022037,-0.695815,-0.046075,-0.716403,9.82680320739746,0.35306143760681,0.24490939080715,0.73231190443039,0.78881353139877,0.04275400191545
634,3511725676,0.022026,-0.695805,-0.046033,-0.716416,9.83460140228271,0.34452655911446,0.27980703115463,0.75185436010361,0.73269605636597,0.07539737969637
635,3511742343,0.022005,-0.695795,-0.045980,-0.716430,9.82582855224609,0.35033398866653,0.26393273472786,0.68225187063217,0.73886877298355,0.07716465741396
636,3511759010,0.021975,-0.695782,-0.045924,-0.716446,9.83174514770508,0.35587957501411,0.28560912609100,0.61024183034897,0.75887233018875,0.04635258391500
637,3511775677,0.021947,-0.695793,-0.045857,-0.716441,9.83811378479004,0.34026539325714,0.27260354161263,0.56431812047958,0.54430180788040,0.12536774575710
638,3511792344,0.021929,-0.695803,-0.045796,-0.716436,9.82063007354736,0.33939638733864,0.28240594267845,0.61757981777191,0.54764431715012,0.13809725642204
639,3511809011,0.021909,-0.695813,-0.045752,-0.716429,9.82956504821777,0.33678665757179,0.27474382519722,0.69320130348206,0.53625947237015,0.05169282853603
640,3511825678,0.021899,-0.695818,-0.045721,-0.716427,9.80856800079346,0.31946077942848,0.26524579524994,0.84016698598862,0.58465456962585,0.03507018834352
641,3511842345,0.021879,-0.695803,-0.045709,-0.716443,9.80987930297852,0.35101020336151,0.27449581027031,0.87350183725357,0.76619750261307,-0.11226046830416
642,3511859012,0.021852,-0.695808,-0.045662,-0.716442,9.85186004638672,0.34344232082367,0.25850418210030,0.60716825723648,0.58763861656189,0.02561910450459
643,3511875679,0.021853,-0.695803,-0.045658,-0.716447,9.87092781066895,0.33049979805946,0.22596745193005,1.01612627506256,0.66898459196091,-0.04333668947220
644,3511892346,0.021874,-0.695790,-0.045670,-0.716458,9.82025623321533,0.36508876085281,0.24979904294014,1.20364952087402,0.74276185035706,-0.02364052087069
645,3511909013,0.021901,-0.695802,-0.045675,-0.716446,9.79898452758789,0.36283698678017,0.28786456584930,1.15965974330902,0.50698411464691,0.05235876142979
646,3511925680,0.021947,-0.695808,-0.045695,-0.716437,9.85257053375244,0.36429536342621,0.28769671916962,1.32992017269135,0.55618613958359,0.06686834990978
647,3511942347,0.021978,-0.695831,-0.045721,-0.716412,9.87971305847168,0.33185702562332,0.27831393480301,1.30282199382782,0.39322540163994,-0.02808432839811
648,3511959014,0.021978,-0.695849,-0.045717,-0.716395,9.82191467285156,0.32292959094048,0.30630308389664,0.95959889888763,0.44393849372864,-0.04261953011155
649,3511975681,0.021912,-0.695841,-0.045656,-0.716409,9.82617473602295,0.36336177587509,0.28586718440056,0.42662432789803,0.71731561422348,-0.10100366920233
650,3511992348,0.021837,-0.695813,-0.045568,-0.716443,9.83452987670898,0.37616455554962,0.24467636644840,0.22966265678406,0.91179281473160,-0.03250251337886
651,3512009015,0.021720,-0.695786,-0.045420,-0.716482,9.79748153686523,0.37912571430206,0.25963494181633,-0.31817373633385,0.91765815019608,0.05513773486018
652,3512025682,0.021594,-0.695773,-0.045271,-0.716508,9.79002666473389,0.34086671471596,0.26280590891838,-0.35162392258644,0.79061919450760,0.01441354490817
653,3512042349,0.021499,-0.695790,-0.045212,-0.716499,9.81865215301514,0.30101650953293,0.25891026854515,0.29105633497238,0.47227892279625,-0.24417868256569
654,3512059016,0.021469,-0.695794,-0.045268,-0.716492,9.81520080566406,0.29682657122612,0.24030682444572,1.16611421108246,0.55279248952866,-0.47306653857231
655,3512075683,0.021489,-0.695774,-0.045358,-0.716505,9.80531501770020,0.31703197956085,0.25549083948135,1.57216525077820,0.77275437116623,-0.40608939528465
656,3512092350,0.021527,-0.695767,-0.045426,-0.716506,9.82211208343506,0.35296890139580,0.25521126389503,1.55390322208405,0.65872663259506,-0.20659203827381
657,3512109017,0.021548,-0.695752,-0.045470,-0.716517,9.84515094757080,0.39448219537735,0.24732294678688,1.34742641448975,0.74627077579498,-0.17841805517673
658,3512125684,0.021532,-0.695747,-0.045472,-0.716523,9.85401058197021,0.38749799132347,0.28014338016510,0.96861463785172,0.66807520389557,-0.15833769738674
659,3512142351,0.021483,-0.695755,-0.045411,-0.716520,9.85797309875488,0.35129481554031,0.29347428679466,0.49383208155632,0.55928534269333,-0.01394611597061
660,3512159018,0.021438,-0.695767,-0.045343,-0.716515,9.82625865936279,0.32065668702126,0.26027283072472,0.47962981462479,0.53031736612320,0.04339431226254
661,3512175685,0.021391,-0.695764,-0.045273,-0.716523,9.79973793029785,0.33934274315834,0.26000815629959,0.49343496561050,0.67317211627960,0.03426338359714
662,3512192352,0.021352,-0.695755,-0.045231,-0.716536,9.80979824066162,0.35398617386818,0.25818133354187,0.62968176603317,0.71671372652054,-0.05438856408000
663,3512209019,0.021336,-0.695764,-0.045209,-0.716529,9.80371475219727,0.33538207411766,0.29731705784798,0.84977167844772,0.53944826126099,-0.04016071185470
664,3512225686,0.021308,-0.695774,-0.045213,-0.716519,9.81429386138916,0.32041704654694,0.25258725881577,0.91299670934677,0.51421982049942,-0.21651697158813
665,3512242353,0.021313,-0.695778,-0.045285,-0.716511,9.87570667266846,0.32398748397827,0.26834875345230,1.36798059940338,0.54996222257614,-0.38387036323547
666,3512259020,0.021338,-0.695798,-0.045375,-0.716485,9.86381435394287,0.35143285989761,0.27715790271759,1.58643126487732,0.39468529820442,-0.35879549384117
667,3512275687,0.021365,-0.695826,-0.045424,-0.716454,9.83413791656494,0.36529383063316,0.28191024065018,1.40675842761993,0.33450827002525,-0.15400916337967
668,3512292354,0.021407,-0.695856,-0.045451,-0.716422,9.80473613739014,0.37384366989136,0.29315003752708,1.36238431930542,0.32175314426422,0.02209735661745
669,3512309021,0.021437,-0.695896,-0.045481,-0.716380,9.79900932312012,0.38314652442932,0.28683114051819,1.32200586795807,0.22611533105373,-0.04370807111263
670,3512325688,0.021435,-0.695934,-0.045470,-0.716344,9.80096435546875,0.40407389402390,0.26803681254387,0.96606612205505,0.26503381133080,-0.00129344128072
671,3512342355,0.021410,-0.695947,-0.045427,-0.716335,9.80796718597412,0.38060295581818,0.28603512048721,0.73049336671829,0.50638228654861,0.02212296798825
672,3512359022,0.021358,-0.695957,-0.045336,-0.716333,9.80760383605957,0.36784201860428,0.26872345805168,0.31451752781868,0.56034821271896,0.11678750067949
673,3512375689,0.021293,-0.695954,-0.045252,-0.716343,9.84219646453857,0.34489685297012,0.28445863723755,0.27915918827057,0.67458081245422,0.01200595311821
674,3512392356,0.021212,-0.695934,-0.045198,-0.716369,9.84283256530762,0.33447572588921,0.26658430695534,0.35841768980026,0.82417190074921,-0.21271346509457
675,3512409023,0.021155,-0.695929,-0.045172,-0.716377,9.83979320526123,0.35186389088631,0.25537046790123,0.60453009605408,0.66707623004913,-0.23141072690487
676,3512425690,0.021125,-0.695937,-0.045201,-0.716367,9.83687114715576,0.34265321493149,0.26147347688675,0.98627465963364,0.51926547288895,-0.34502869844437
677,3512442357,0.021116,-0.695951,-0.045262,-0.716351,9.84962749481201,0.34761488437653,0.25346565246582,1.26686155796051,0.45881938934326,-0.39356470108032
678,3512459024,0.021132,-0.695967,-0.045332,-0.716330,9.84343242645264,0.37138548493385,0.27894753217697,1.35663425922394,0.43443620204926,-0.31862199306488
679,3512475691,0.021137,-0.695981,-0.045348,-0.716315,9.82651042938232,0.38486510515213,0.28335395455360,1.13731276988983,0.47468656301498,-0.11477050930262
680,3512492358,0.021129,-0.695986,-0.045317,-0.716313,9.81300544738770,0.37720745801926,0.25032410025597,0.83718305826187,0.58865022659302,0.04740269854665
681,3512509025,0.021103,-0.695984,-0.045268,-0.716319,9.82635402679443,0.35564327239990,0.27327328920364,0.66149276494980,0.65653669834137,0.04010307788849
682,3512525692,0.021081,-0.695972,-0.045219,-0.716333,9.81638717651367,0.35733363032341,0.25482225418091,0.67463213205338,0.74509263038635,0.05604699254036
683,3512542359,0.021074,-0.695967,-0.045188,-0.716341,9.80374908447266,0.33004334568977,0.24923279881477,0.84701836109161,0.68303298950195,0.04786373302341
684,3512559026,0.021113,-0.695974,-0.045200,-0.716332,9.82635211944580,0.33679497241974,0.23695166409016,1.28631448745728,0.55316382646561,0.07067183405161
685,3512575693,0.021187,-0.695986,-0.045238,-0.716316,9.83922672271729,0.33990201354027,0.26298874616623,1.49834918975830,0.50003033876419,0.11691555380821
686,3512592360,0.021265,-0.696004,-0.045285,-0.716293,9.82753181457520,0.35350072383881,0.26334625482559,1.60726726055145,0.43461552262306,0.10732360929251
687,3512609027,0.021307,-0.696028,-0.045304,-0.716267,9.82814121246338,0.36541208624840,0.26422956585884,1.31201708316803,0.39013904333115,0.05652082338929
688,3512625694,0.021312,-0.696036,-0.045272,-0.716261,9.82475662231445,0.36969387531281,0.26087132096291,0.90022885799408,0.55637830495834,0.11867003887892
689,3512642361,0.021282,-0.696018,-0.045221,-0.716283,9.81142616271973,0.38412386178970,0.24790047109127,0.60577231645584,0.81337612867355,0.02271205931902
690,3512659028,0.021221,-0.696013,-0.045140,-0.716294,9.84682941436768,0.35381206870079,0.28358250856400,0.34047597646713,0.68702858686447,0.01811457984149
691,3512675695,0.021206,-0.696029,-0.045071,-0.716284,9.87474536895752,0.31453099846840,0.25195810198784,0.56234610080719,0.49339661002159,0.19745470583439
692,3512692362,0.021261,-0.696022,-0.045102,-0.716287,9.82106208801270,0.33326157927513,0.28200897574425,1.40814137458801,0.68456977605820,0.05193615332246
693,3512709029,0.021306,-0.696027,-0.045086,-0.716282,9.78510189056396,0.35624778270721,0.28370219469070,1.17008423805237,0.58159393072128,0.23507976531982
694,3512725696,0.021388,-0.696012,-0.045130,-0.716292,9.85273742675781,0.35992267727852,0.27043333649635,1.61278665065765,0.76098525524139,0.11872125416994
695,3512742363,0.021424,-0.695993,-0.045159,-0.716307,9.89807891845703,0.35482472181320,0.26386418938637,1.33034288883209,0.78864705562592,-0.03027421422303
696,3512759030,0.021434,-0.695979,-0.045156,-0.716320,9.86775207519531,0.33470413088799,0.29148072004318,1.05925810337067,0.75745081901550,-0.01047559455037
697,3512775697,0.021370,-0.695950,-0.045078,-0.716355,9.83976268768311,0.35062822699547,0.26713395118713,0.39184230566025,0.92557251453400,-0.01933758705854
698,3512792364,0.021304,-0.695894,-0.045001,-0.716417,9.83875179290771,0.39205414056778,0.24007734656334,0.28325727581978,1.17943286895752,-0.04922761023045
699,3512809031,0.021233,-0.695835,-0.044864,-0.716485,9.80908966064453,0.39940214157104,0.22210063040257,0.00558997178450,1.23374450206757,0.21453836560249
700,3512825698,0.021157,-0.695792,-0.044690,-0.716540,9.80266284942627,0.36438223719597,0.26385778188705,-0.24356399476528,1.09323322772980,0.36785602569580
701,3512842365,0.021116,-0.695785,-0.044618,-0.716552,9.78944206237793,0.29655697941780,0.23981688916683,0.43146505951881,0.70539283752441,0.07356606423855
702,3512859032,0.021121,-0.695796,-0.044648,-0.716540,9.80818748474121,0.28289696574211,0.26465150713921,1.20039665699005,0.50712502002716,-0.18106897175312
703,3512875699,0.021172,-0.695784,-0.044738,-0.716544,9.79893112182617,0.28776997327805,0.23533006012440,1.71037089824677,0.70252424478531,-0.24991588294506
704,3512892366,0.021224,-0.695742,-0.044825,-0.716577,9.81023406982422,0.32673040032387,0.26591512560844,1.68629503250122,0.98609524965286,-0.24248820543289
705,3512909033,0.021243,-0.695733,-0.044882,-0.716582,9.83897686004639,0.35109087824821,0.27051565051079,1.37416625022888,0.68058699369431,-0.24718815088272
706,3512925700,0.021232,-0.695764,-0.044911,-0.716550,9.87294197082520,0.34320563077927,0.28370708227158,1.11442780494690,0.31024017930031,-0.24525438249111
707,3512942367,0.021204,-0.695798,-0.044921,-0.716518,9.86607742309570,0.32875403761864,0.26745390892029,0.87407815456390,0.28403842449188,-0.23614907264709
708,3512959034,0.021182,-0.695838,-0.044898,-0.716481,9.84006690979004,0.32670736312866,0.25605073571205,0.81452864408493,0.24368561804295,-0.04933005943894
709,3512975701,0.021184,-0.695868,-0.044916,-0.716451,9.80891990661621,0.32623365521431,0.27024158835411,1.11712980270386,0.32316178083420,-0.12340197712183
710,3512992368,0.021164,-0.695875,-0.044933,-0.716444,9.82071399688721,0.38645434379578,0.28075695037842,0.99841499328613,0.54113870859146,-0.24922437965870
711,3513009035,0.021143,-0.695894,-0.044935,-0.716425,9.82909393310547,0.40376022458076,0.30144876241684,0.95028871297836,0.42869892716408,-0.16622640192509
712,3513025702,0.021096,-0.695903,-0.044921,-0.716420,9.80791282653809,0.36920952796936,0.28128129243851,0.74554085731506,0.54152292013168,-0.22616013884544
713,3513042369,0.021030,-0.695868,-0.044930,-0.716455,9.85704231262207,0.35123169422150,0.27219015359879,0.77153772115707,0.93709832429886,-0.44463649392128
714,3513059036,0.021003,-0.695809,-0.044961,-0.716511,9.87278842926025,0.38076609373093,0.23953536152840,1.07448482513428,1.16483354568481,-0.37517482042313
715,3513075703,0.021012,-0.695748,-0.044960,-0.716570,9.85172843933105,0.39519867300987,0.25126394629478,1.05112576484680,1.20817005634308,-0.04568024724722
716,3513092370,0.021050,-0.695705,-0.044924,-0.716613,9.84381103515625,0.38878571987152,0.27117675542831,1.03707730770111,1.05094659328461,0.27548378705978
717,3513109037,0.021091,-0.695687,-0.044890,-0.716631,9.82119560241699,0.37510019540787,0.28510010242462,1.04706633090973,0.81450307369232,0.28996777534485
718,3513125704,0.021125,-0.695679,-0.044853,-0.716640,9.80334758758545,0.36839485168457,0.28538885712624,0.94876486063004,0.71935194730759,0.27527889609337
719,3513142371,0.021126,-0.695660,-0.044801,-0.716661,9.79352378845215,0.34871271252632,0.28234770894051,0.75765568017960,0.81603980064392,0.18275301158428
720,3513159038,0.021125,-0.695619,-0.044749,-0.716704,9.78440284729004,0.33641701936722,0.29372286796570,0.69987344741821,1.03414475917816,0.15693540871143
721,3513175705,0.021105,-0.695580,-0.044713,-0.716745,9.80875205993652,0.33006295561790,0.27354401350021,0.69476372003555,1.00150144100189,-0.01006579119712
722,3513192372,0.021085,-0.695544,-0.044680,-0.716783,9.82703113555908,0.32732939720154,0.26418280601501,0.72690761089325,0.97979468107224,-0.02478028833866
723,3513209039,0.021073,-0.695521,-0.044657,-0.716807,9.84528541564941,0.34121751785278,0.28812453150749,0.86820000410080,0.84354788064957,-0.01937600784004
724,3513225706,0.021083,-0.695512,-0.044653,-0.716816,9.83977794647217,0.34530261158943,0.27672260999680,1.08707344532013,0.71081006526947,-0.00395716167986
725,3513242373,0.021096,-0.695520,-0.044653,-0.716808,9.83220481872559,0.34796097874641,0.25392737984657,1.08307778835297,0.54715764522552,0.00501368613914
726,3513259040,0.021104,-0.695524,-0.044635,-0.716804,9.83303642272949,0.34739020466805,0.24202208220959,0.93948012590408,0.58727997541428,0.05745568498969
727,3513275707,0.021113,-0.695529,-0.044597,-0.716801,9.82800388336182,0.33897462487221,0.27788111567497,0.89036786556244,0.58690857887268,0.16785922646523
728,3513292374,0.021115,-0.695532,-0.044550,-0.716802,9.82912254333496,0.32951009273529,0.26443287730217,0.78261518478394,0.61857873201370,0.16531077027321
729,3513309041,0.021121,-0.695522,-0.044506,-0.716814,9.80290985107422,0.33747109770775,0.28776943683624,0.82304483652115,0.72672826051712,0.17001070082188
730,3513325708,0.021113,-0.695509,-0.044480,-0.716828,9.80937671661377,0.34253510832787,0.27185609936714,0.85563701391220,0.75584989786148,0.01318413577974
731,3513342375,0.021109,-0.695487,-0.044475,-0.716851,9.81748962402344,0.33614045381546,0.27796107530594,1.05482709407806,0.84007734060287,-0.06591428816319
732,3513359042,0.021133,-0.695466,-0.044504,-0.716868,9.81815814971924,0.34240752458572,0.26857635378838,1.29074561595917,0.81303036212921,-0.09567624330521
733,3513375709,0.021197,-0.695466,-0.044535,-0.716864,9.82784461975098,0.35753354430199,0.25860878825188,1.46452784538269,0.61211150884628,0.10436534881592
734,3513392376,0.021255,-0.695478,-0.044560,-0.716849,9.83397674560547,0.34869563579559,0.27947434782982,1.41865551471710,0.49855759739876,0.10827129334211
735,3513409043,0.021308,-0.695497,-0.044564,-0.716829,9.83099460601807,0.34987735748291,0.28076148033142,1.27395653724670,0.44364401698112,0.17856535315514
736,3513425710,0.021311,-0.695502,-0.044531,-0.716826,9.81729221343994,0.35244685411453,0.28877183794975,0.87443673610687,0.58953386545181,0.11345783621073
737,3513442377,0.021295,-0.695498,-0.044471,-0.716834,9.84287643432617,0.35664683580399,0.29506456851959,0.64976215362549,0.67775678634644,0.13803321123123
738,3513459044,0.021292,-0.695492,-0.044410,-0.716844,9.83289432525635,0.36160892248154,0.28211018443108,0.70956778526306,0.70648145675659,0.20945425331593
739,3513475711,0.021287,-0.695482,-0.044369,-0.716856,9.82600307464600,0.33480986952782,0.29236078262329,0.80416834354401,0.73300349712372,0.10136866569519
740,3513492378,0.021279,-0.695463,-0.044352,-0.716877,9.80049419403076,0.34665352106094,0.31098529696465,0.89829504489899,0.81114780902863,-0.03195184469223
741,3513509045,0.021266,-0.695441,-0.044325,-0.716900,9.83323001861572,0.33421009778976,0.29249715805054,0.78476673364639,0.83569753170013,-0.01315212063491
742,3513525712,0.021281,-0.695413,-0.044314,-0.716927,9.83228397369385,0.31166535615921,0.25662568211555,1.05559539794922,0.89665573835373,0.04938768595457
743,3513542379,0.021307,-0.695376,-0.044332,-0.716961,9.78439617156982,0.36018478870392,0.27931988239288,1.24660205841064,0.97020268440247,-0.04007106646895
744,3513559046,0.021346,-0.695364,-0.044323,-0.716972,9.80165576934814,0.35035192966461,0.25896954536438,1.16448783874512,0.73719114065170,0.16967773437500
745,3513575713,0.021430,-0.695347,-0.044341,-0.716985,9.85376167297363,0.34172961115837,0.24884296953678,1.46351623535156,0.78577840328217,0.25317513942719
746,3513592380,0.021469,-0.695343,-0.044368,-0.716986,9.88571739196777,0.33065471053123,0.29687798023224,1.21288299560547,0.65266925096512,-0.00911812204868
747,3513609047,0.021447,-0.695332,-0.044319,-0.717000,9.86218929290771,0.31218940019608,0.30776953697205,0.67178910970688,0.73953461647034,0.05618785694242
748,3513625714,0.021393,-0.695305,-0.044211,-0.717034,9.82882976531982,0.32979243993759,0.31033477187157,0.15137743949890,0.90938526391983,0.16943439841270
749,3513642381,0.021352,-0.695284,-0.044124,-0.717062,9.80378341674805,0.35259261727333,0.29943418502808,0.32489070296288,0.85582923889160,0.13649648427963
750,3513659048,0.021293,-0.695262,-0.043988,-0.717093,9.77947998046875,0.36834794282913,0.28599813580513,0.02488913945854,0.87391167879105,0.28505012392998
751,3513675715,0.021215,-0.695244,-0.043888,-0.717119,9.75649452209473,0.32191944122314,0.27226740121841,0.13288508355618,0.82185387611389,0.01697481609881
752,3513692382,0.021116,-0.695238,-0.043874,-0.717129,9.75813770294189,0.26757565140724,0.27862438559532,0.48247277736664,0.67081582546234,-0.48952269554138
753,3513709049,0.021026,-0.695234,-0.043930,-0.717132,9.78781700134277,0.28317368030548,0.30866900086403,0.87008267641068,0.62003862857819,-0.77851086854935
754,3513725716,0.020963,-0.695196,-0.043995,-0.717166,9.82247161865234,0.30416896939278,0.26180920004845,0.99940109252930,0.94018459320068,-0.70703858137131
755,3513742383,0.020884,-0.695162,-0.044032,-0.717199,9.84807109832764,0.31171271204948,0.25809091329575,0.83787465095520,0.91553246974945,-0.64222568273544
756,3513759050,0.020791,-0.695175,-0.044048,-0.717189,9.86383533477783,0.35472735762596,0.23270237445831,0.63407444953918,0.47248390316963,-0.59494465589523
757,3513775717,0.020710,-0.695238,-0.044046,-0.717130,9.85718250274658,0.35539275407791,0.26843369007111,0.64903217554092,0.00200419384055,-0.42912802100182
758,3513792384,0.020663,-0.695319,-0.044065,-0.717052,9.83546543121338,0.34275731444359,0.26882442831993,0.87105584144592,-0.17140017449856,-0.35108605027199
759,3513809051,0.020667,-0.695380,-0.044084,-0.716991,9.81892681121826,0.34788542985916,0.27301812171936,1.07220518589020,0.02336518466473,-0.11016022413969
760,3513825718,0.020677,-0.695421,-0.044065,-0.716953,9.79232406616211,0.40045008063316,0.30383646488190,1.01207935810089,0.24503028392792,0.09337750077248
761,3513842385,0.020673,-0.695479,-0.044011,-0.716899,9.82960987091064,0.38681691884995,0.30835860967636,0.70733946561813,0.07731833308935,0.19403539597988
762,3513859052,0.020632,-0.695520,-0.043940,-0.716865,9.79628276824951,0.35899370908737,0.35408383607864,0.42256474494934,0.24855205416679,0.09144374728203
763,3513875719,0.020532,-0.695526,-0.043877,-0.716867,9.83403396606445,0.35219183564186,0.30899509787560,0.22110801935196,0.58119696378708,-0.25763812661171
