sep=,
DeviceTag:,E
FirmwareVersion:,3.0.0
AppVersion:,2023.6.0
StartTime: ,2024-03-14_11:53:59_000 EDT
© Movella Technologies B. V. 2005-2024

PacketCounter,SampleTimeFine,Quat_W,Quat_X,Quat_Y,Quat_Z,Acc_X,Acc_Y,Acc_Z,Gyr_X,Gyr_Y,Gyr_Z
0,3501142131,0.538695,-0.057039,0.345942,0.766080,0.00000000000000,0.00000000000000,0.00000000000000,0.00000000000000,0.00000000000000,0.00000000000000
1,3501158798,0.538705,-0.057072,0.345917,0.766082,-4.46933412551880,4.52230405807495,7.28705692291260,1.21643674373627,-0.21887974441051,0.02210376225412
2,3501175465,0.538727,-0.057075,0.345917,0.766066,-4.44983482360840,4.50165796279907,7.28624916076660,1.50975346565247,-0.30574518442154,-0.01573260128498
3,3501192132,0.538765,-0.057101,0.345914,0.766039,-4.44157361984253,4.53883028030396,7.29141521453857,1.44149553775787,-0.22642269730568,-0.19982388615608
4,3501208799,0.538813,-0.057150,0.345894,0.766010,-4.46298599243164,4.51990652084351,7.27955293655396,1.27391171455383,-0.19471415877342,-0.32129213213921
5,3501225466,0.538852,-0.057212,0.345856,0.765995,-4.46708202362061,4.53217315673828,7.31432437896729,1.09594178199768,-0.17399346828461,-0.25864341855049
6,3501242133,0.538868,-0.057225,0.345866,0.765979,-4.46174812316895,4.51825857162476,7.28263711929321,1.52277731895447,-0.20485676825047,-0.00692183244973
7,3501258800,0.538864,-0.057242,0.345853,0.765986,-4.47535896301270,4.56331777572632,7.27162694931030,1.31882357597351,-0.22433522343636,0.16298641264439
8,3501275467,0.538841,-0.057259,0.345808,0.766021,-4.47287988662720,4.52632999420166,7.28082418441772,1.08690059185028,-0.30890837311745,0.36075487732887
9,3501292134,0.538827,-0.057263,0.345756,0.766054,-4.47025060653687,4.51987266540527,7.29921960830688,1.09962999820709,-0.42506200075150,0.32648506760597
10,3501308801,0.538809,-0.057276,0.345720,0.766083,-4.46689796447754,4.48074340820312,7.29605388641357,1.16215074062347,-0.30897241830826,0.32239988446236
11,3501325468,0.538801,-0.057272,0.345714,0.766091,-4.45741033554077,4.52866601943970,7.29272508621216,1.43195474147797,-0.30214661359787,0.24224491417408
12,3501342135,0.538789,-0.057297,0.345670,0.766118,-4.45979309082031,4.53460216522217,7.27583837509155,1.07956242561340,-0.28893044590950,0.25105565786362
13,3501358802,0.538763,-0.057322,0.345642,0.766146,-4.45417881011963,4.51822948455811,7.28840875625610,1.20469343662262,-0.24011266231537,0.25415483117104
14,3501375469,0.538794,-0.057337,0.345582,0.766150,-4.47306299209595,4.52032566070557,7.32604026794434,0.98487228155136,-0.37705093622208,0.14603079855442
15,3501392136,0.538733,-0.057378,0.345562,0.766200,-4.45012998580933,4.50592279434204,7.30001544952393,1.24325323104858,-0.17724628746510,0.28943631052971
16,3501408803,0.538744,-0.057427,0.345536,0.766200,-4.46859359741211,4.53912162780762,7.27736711502075,1.03590559959412,-0.01000175904483,0.18300272524357
17,3501425470,0.538745,-0.057469,0.345492,0.766216,-4.46963644027710,4.52073574066162,7.27016782760620,0.87904059886932,-0.05831370875239,0.37924721837044
18,3501442137,0.538655,-0.057553,0.345470,0.766283,-4.45269918441772,4.51818704605103,7.27922677993774,1.09600591659546,0.02796906977892,0.27912721037865
19,3501458804,0.538603,-0.057631,0.345426,0.766333,-4.44881391525269,4.50953292846680,7.27857065200806,0.81436860561371,0.08203747123480,0.41895973682404
20,3501475471,0.538575,-0.057686,0.345401,0.766359,-4.46812057495117,4.51664972305298,7.30458259582520,0.98598647117615,0.05574603751302,0.39651018381119
21,3501492138,0.538531,-0.057740,0.345366,0.766403,-4.44899463653564,4.49768495559692,7.30772447586060,0.97233486175537,-0.03541595488787,0.41067400574684
22,3501508805,0.538466,-0.057780,0.345369,0.766444,-4.45696115493774,4.49557352066040,7.30508804321289,1.32933747768402,-0.03412252292037,0.37856855988503
23,3501525472,0.538470,-0.057762,0.345357,0.766448,-4.47467756271362,4.51901769638062,7.33253812789917,1.34995579719543,-0.29985430836678,0.39683037996292
24,3501542139,0.538432,-0.057716,0.345337,0.766487,-4.46021509170532,4.49820947647095,7.29935359954834,1.39158916473389,-0.47453284263611,0.67465138435364
25,3501558806,0.538420,-0.057713,0.345357,0.766486,-4.47227096557617,4.51981306076050,7.28491067886353,1.50561690330505,-0.11179301887751,0.36226600408554
26,3501575473,0.538439,-0.057695,0.345316,0.766493,-4.45371055603027,4.51671218872070,7.29945564270020,1.13611531257629,-0.38655331730843,0.40962392091751
27,3501592140,0.538414,-0.057691,0.345317,0.766511,-4.45603847503662,4.52056503295898,7.27048206329346,1.42158174514771,-0.21302723884583,0.41618075966835
28,3501608807,0.538412,-0.057660,0.345287,0.766528,-4.46624231338501,4.51306724548340,7.28549480438232,1.26129734516144,-0.42744392156601,0.49972936511040
29,3501625474,0.538374,-0.057624,0.345279,0.766561,-4.45599555969238,4.49911260604858,7.30754709243774,1.45072901248932,-0.39299488067627,0.59756988286972
30,3501642141,0.538367,-0.057600,0.345282,0.766566,-4.45951223373413,4.51416778564453,7.29776716232300,1.45172774791718,-0.26972091197968,0.45472791790962
31,3501658808,0.538335,-0.057584,0.345256,0.766601,-4.45351076126099,4.50430440902710,7.29192924499512,1.32529079914093,-0.41235807538033,0.45273011922836
32,3501675475,0.538352,-0.057580,0.345224,0.766604,-4.46318387985229,4.51091861724854,7.30169391632080,1.24759459495544,-0.37988117337227,0.20372341573238
33,3501692142,0.538320,-0.057601,0.345208,0.766632,-4.45112657546997,4.50815916061401,7.30103969573975,1.28291451931000,-0.21529394388199,0.29051205515862
34,3501708809,0.538325,-0.057621,0.345181,0.766640,-4.45301151275635,4.54014205932617,7.30117607116699,1.22004818916321,-0.26277986168861,0.14736266434193
35,3501725476,0.538352,-0.057644,0.345140,0.766637,-4.45249223709106,4.46290540695190,7.30358839035034,1.07331287860870,-0.24584989249706,0.13228958845139
36,3501742143,0.538353,-0.057649,0.345168,0.766624,-4.45913648605347,4.51794815063477,7.29579687118530,1.63585758209229,-0.14861129224300,0.10091403871775
37,3501758810,0.538340,-0.057678,0.345125,0.766650,-4.45624017715454,4.50699329376221,7.28466033935547,1.16700422763824,-0.35079792141914,0.09887782484293
38,3501775477,0.538348,-0.057657,0.345149,0.766635,-4.44437074661255,4.49637699127197,7.27822208404541,1.61107718944550,-0.20912128686905,0.28556877374649
39,3501792144,0.538318,-0.057654,0.345158,0.766652,-4.46951675415039,4.50863265991211,7.30918931961060,1.47573971748352,-0.18897689878941,0.40523135662079
40,3501808811,0.538249,-0.057676,0.345156,0.766700,-4.45307111740112,4.50838184356689,7.28525972366333,1.43232619762421,-0.21268147230148,0.34408101439476
41,3501825478,0.538234,-0.057702,0.345165,0.766705,-4.45262432098389,4.53644609451294,7.30693435668945,1.37482571601868,-0.03279065713286,0.25748443603516
42,3501842145,0.538207,-0.057734,0.345169,0.766719,-4.44662666320801,4.50655269622803,7.30300569534302,1.28039169311523,0.01577742397785,0.36382842063904
43,3501858812,0.538169,-0.057742,0.345164,0.766748,-4.46814918518066,4.50626897811890,7.31589698791504,1.38859248161316,-0.22967547178268,0.36354666948318
44,3501875479,0.538112,-0.057729,0.345173,0.766785,-4.44671535491943,4.47221326828003,7.27972507476807,1.49940586090088,-0.23096893727779,0.55988079309464
45,3501892146,0.538145,-0.057712,0.345218,0.766742,-4.45881319046021,4.54692888259888,7.28442430496216,1.61700654029846,0.01535481214523,0.33655086159706
46,3501908813,0.538155,-0.057780,0.345151,0.766761,-4.45364427566528,4.51482200622559,7.30274772644043,0.70972794294357,-0.07361730933189,0.19140370190144
47,3501925480,0.538135,-0.057840,0.345145,0.766773,-4.46772098541260,4.48666334152222,7.30064630508423,1.21529698371887,0.03378314897418,0.11097982525826
48,3501942147,0.538099,-0.057880,0.345116,0.766808,-4.47882175445557,4.52236652374268,7.32494020462036,1.16682517528534,-0.19685281813145,0.22842687368393
49,3501958814,0.538104,-0.057859,0.345091,0.766817,-4.45402097702026,4.50097656250000,7.31904125213623,1.35477101802826,-0.44287559390068,0.28558158874512
50,3501975481,0.538140,-0.057852,0.345021,0.766824,-4.46291637420654,4.50339269638062,7.30418348312378,1.05400109291077,-0.58485954999924,0.11509066075087
51,3501992148,0.538173,-0.057855,0.344972,0.766823,-4.45075273513794,4.47222805023193,7.31395292282104,1.19300115108490,-0.48983651399612,0.00028173971805
52,3502008815,0.538189,-0.057827,0.344953,0.766822,-4.45516109466553,4.52405166625977,7.30917787551880,1.49088954925537,-0.53470993041992,0.12354285269976
53,3502025482,0.538128,-0.057838,0.344917,0.766880,-4.45652961730957,4.51731681823730,7.28550338745117,1.32027065753937,-0.46892371773720,0.26556527614594
54,3502042149,0.538099,-0.057838,0.344901,0.766908,-4.45593500137329,4.51089000701904,7.30222082138062,1.37369859218597,-0.34219205379486,0.31134796142578
55,3502058816,0.538084,-0.057838,0.344865,0.766935,-4.45624065399170,4.52382230758667,7.31928348541260,1.18403673171997,-0.35736760497093,0.37354841828346
56,3502075483,0.538067,-0.057822,0.344882,0.766940,-4.43658924102783,4.49769926071167,7.30303764343262,1.55054163932800,-0.20581725239754,0.40523132681847
57,3502092150,0.538038,-0.057837,0.344868,0.766965,-4.45430326461792,4.51208829879761,7.27138233184814,1.28128814697266,-0.19654545187950,0.36001211404800
58,3502108817,0.537996,-0.057867,0.344879,0.766988,-4.44779014587402,4.48318338394165,7.31039667129517,1.38076782226562,-0.01349148899317,0.34893456101418
59,3502125484,0.537939,-0.057885,0.344921,0.767008,-4.47218799591064,4.53044605255127,7.32632684707642,1.54334449768066,0.12186522036791,0.54328382015228
60,3502142151,0.537924,-0.057889,0.344932,0.767013,-4.45197772979736,4.51682758331299,7.30550527572632,1.28779375553131,0.03260497003794,0.59984946250916
61,3502158818,0.537903,-0.057875,0.344944,0.767023,-4.46224164962769,4.51075029373169,7.33259391784668,1.39781308174133,-0.10021608322859,0.61014568805695
62,3502175485,0.537842,-0.057875,0.344946,0.767065,-4.47144031524658,4.47666025161743,7.30235910415649,1.34825253486633,-0.12805709242821,0.65446853637695
63,3502192152,0.537763,-0.057856,0.345010,0.767093,-4.44200134277344,4.50659513473511,7.31494331359863,1.84825074672699,-0.02792424522340,0.65271401405334
64,3502208819,0.537733,-0.057842,0.345015,0.767113,-4.45299482345581,4.50930643081665,7.30494642257690,1.39471387863159,-0.16203233599663,0.59557205438614
65,3502225486,0.537693,-0.057871,0.345036,0.767129,-4.43539524078369,4.49935913085938,7.28840684890747,1.38887429237366,0.07635145634413,0.43686297535896
66,3502242153,0.537645,-0.057934,0.345064,0.767145,-4.44653177261353,4.49808883666992,7.32559156417847,1.37802731990814,0.22503317892551,0.26372116804123
67,3502258820,0.537679,-0.057962,0.345122,0.767094,-4.43911933898926,4.51603937149048,7.29912137985229,1.59085595607758,0.24438355863094,0.10617745667696
68,3502275487,0.537700,-0.058001,0.345157,0.767060,-4.47591066360474,4.55045366287231,7.31824874877930,1.45163810253143,0.18192701041698,0.09782771021128
69,3502292154,0.537697,-0.058032,0.345175,0.767052,-4.48478984832764,4.50944375991821,7.31211709976196,1.40647017955780,0.03113223612309,0.19665431976318
70,3502308821,0.537684,-0.058030,0.345218,0.767042,-4.46811008453369,4.51145315170288,7.32245969772339,1.59120178222656,0.04906112328172,0.43839979171753
71,3502325488,0.537652,-0.058041,0.345237,0.767055,-4.46033811569214,4.51334953308105,7.30787944793701,1.47105264663696,-0.05743007734418,0.39270669221878
72,3502342155,0.537602,-0.058070,0.345274,0.767071,-4.44293975830078,4.50788354873657,7.29260396957397,1.57633376121521,0.04434838891029,0.30225548148155
73,3502358822,0.537596,-0.058065,0.345297,0.767065,-4.45472049713135,4.49893474578857,7.28409910202026,1.52304625511169,-0.09135409444571,0.36831063032150
74,3502375489,0.537587,-0.058069,0.345322,0.767060,-4.44546937942505,4.50451469421387,7.29416799545288,1.59176540374756,-0.12657156586647,0.20620785653591
75,3502392156,0.537573,-0.058073,0.345323,0.767069,-4.47054815292358,4.50640678405762,7.30324745178223,1.43715417385101,-0.22235025465488,0.26690995693207
76,3502408823,0.537566,-0.058066,0.345324,0.767074,-4.46569681167603,4.50894546508789,7.30795669555664,1.48110568523407,-0.28305235505104,0.25045379996300
77,3502425490,0.537514,-0.058070,0.345332,0.767106,-4.45619916915894,4.52909803390503,7.31542587280273,1.52144563198090,-0.23878079652786,0.34821745753288
78,3502442157,0.537512,-0.058053,0.345311,0.767119,-4.47301721572876,4.49708604812622,7.29268264770508,1.33134806156158,-0.37628254294395,0.36542922258377
79,3502458824,0.537527,-0.058020,0.345309,0.767112,-4.45452785491943,4.52624368667603,7.30282211303711,1.49456501007080,-0.36964887380600,0.31889092922211
80,3502475491,0.537528,-0.058026,0.345282,0.767122,-4.45049381256104,4.51053142547607,7.27695941925049,1.25764751434326,-0.32673478126526,0.21870683133602
81,3502492158,0.537505,-0.058043,0.345262,0.767147,-4.45778131484985,4.49387311935425,7.26704883575439,1.32132077217102,-0.30386269092560,0.18484684824944
82,3502508825,0.537468,-0.058056,0.345227,0.767187,-4.45859718322754,4.52182435989380,7.29040622711182,1.21680808067322,-0.34981188178062,0.32694613933563
83,3502525492,0.537465,-0.058076,0.345189,0.767205,-4.46439313888550,4.51623296737671,7.30952787399292,1.09667170047760,-0.24827028810978,0.27986997365952
84,3502542159,0.537445,-0.058084,0.345172,0.767226,-4.45766878128052,4.52255582809448,7.31573343276978,1.24090969562531,-0.20107892155647,0.40626865625381
85,3502558826,0.537442,-0.058107,0.345160,0.767232,-4.46207380294800,4.51201868057251,7.30457448959351,1.25937628746033,-0.14278438687325,0.23036061227322
86,3502575493,0.537429,-0.058165,0.345139,0.767246,-4.44613027572632,4.49901628494263,7.30274677276611,1.10526490211487,-0.01556611992419,0.13897451758385
87,3502592160,0.537410,-0.058172,0.345144,0.767256,-4.45323944091797,4.49063873291016,7.27644348144531,1.40917229652405,-0.14480778574944,0.34525918960571
88,3502608827,0.537406,-0.058197,0.345147,0.767256,-4.44010734558105,4.49263000488281,7.31309413909912,1.35196626186371,-0.08087849617004,0.20496562123299
89,3502625494,0.537418,-0.058203,0.345178,0.767233,-4.45243692398071,4.50335931777954,7.29536104202271,1.50415706634521,0.03122188150883,0.28997415304184
90,3502642161,0.537379,-0.058206,0.345197,0.767251,-4.45584821701050,4.49507188796997,7.29737901687622,1.51957607269287,-0.11806814372540,0.41674423217773
91,3502658828,0.537389,-0.058190,0.345212,0.767239,-4.46420240402222,4.52147245407104,7.31463575363159,1.49949550628662,-0.17747679352760,0.34588670730591
92,3502675495,0.537359,-0.058175,0.345219,0.767258,-4.47667741775513,4.50296020507812,7.31825542449951,1.52523624897003,-0.27804505825043,0.40596124529839
93,3502692162,0.537346,-0.058135,0.345224,0.767268,-4.44762516021729,4.49023532867432,7.30621719360352,1.57981681823730,-0.40647992491722,0.42811626195908
94,3502708829,0.537353,-0.058102,0.345223,0.767266,-4.45227622985840,4.51108503341675,7.30380153656006,1.59130406379700,-0.45431163907051,0.20894838869572
95,3502725496,0.537357,-0.058096,0.345202,0.767273,-4.45279788970947,4.49865055084229,7.26962375640869,1.38115215301514,-0.41263979673386,0.16223084926605
96,3502742163,0.537374,-0.058090,0.345202,0.767262,-4.45338678359985,4.49941587448120,7.29358959197998,1.54937624931335,-0.36388602852821,0.01394611597061
97,3502758830,0.537387,-0.058071,0.345222,0.767245,-4.46713542938232,4.51125049591064,7.28756856918335,1.70268106460571,-0.33782514929771,0.06459523737431
98,3502775497,0.537392,-0.058092,0.345217,0.767242,-4.47231626510620,4.53697872161865,7.28524398803711,1.38207411766052,-0.19486783444881,0.06925674527884
99,3502792164,0.537391,-0.058129,0.345213,0.767242,-4.46552944183350,4.52229022979736,7.29200983047485,1.31539142131805,-0.09287805110216,0.07590322941542
100,3502808831,0.537409,-0.058143,0.345231,0.767220,-4.46067714691162,4.51693630218506,7.28555631637573,1.37897503376007,0.03799644112587,0.29496866464615
101,3502825498,0.537351,-0.058195,0.345254,0.767246,-4.45048713684082,4.51828718185425,7.31272220611572,1.36633503437042,0.15732601284981,0.37083348631859
102,3502842165,0.537289,-0.058228,0.345270,0.767280,-4.45874214172363,4.52008247375488,7.30023384094238,1.37816822528839,0.04637179151177,0.46056762337685
103,3502858832,0.537248,-0.058254,0.345276,0.767304,-4.45483684539795,4.50724124908447,7.31383895874023,1.29752647876740,0.00913092680275,0.47652426362038
104,3502875499,0.537240,-0.058257,0.345285,0.767305,-4.46905517578125,4.51639699935913,7.32480192184448,1.34419286251068,-0.04318941384554,0.46791845560074
105,3502892166,0.537195,-0.058267,0.345325,0.767318,-4.47837781906128,4.49956130981445,7.29129505157471,1.63642096519470,-0.00506491120905,0.38647001981735
106,3502908833,0.537191,-0.058283,0.345315,0.767324,-4.45832824707031,4.50578165054321,7.27803897857666,1.21017456054688,-0.08761464804411,0.38577851653099
107,3502925500,0.537245,-0.058276,0.345350,0.767271,-4.44727754592896,4.51293897628784,7.29778718948364,1.56056904792786,-0.01333781424910,0.16041234135628
108,3502942167,0.537302,-0.058290,0.345314,0.767247,-4.44386386871338,4.49257612228394,7.28450155258179,1.08162415027618,-0.22386136651039,0.10469190776348
109,3502958834,0.537325,-0.058278,0.345370,0.767206,-4.43175029754639,4.49901866912842,7.30898809432983,1.87702655792236,-0.12552143633366,0.01590548641980
110,3502975501,0.537419,-0.058295,0.345290,0.767175,-4.46557235717773,4.52421045303345,7.31232452392578,0.88968271017075,-0.48321560025215,-0.17924408614635
111,3502992168,0.537489,-0.058226,0.345338,0.767109,-4.48064136505127,4.49971437454224,7.31099891662598,1.99898123741150,-0.43292498588562,0.00992491934448
112,3503008835,0.537529,-0.058212,0.345333,0.767085,-4.48697757720947,4.54103183746338,7.29683589935303,1.44348061084747,-0.31949922442436,0.10353933274746
113,3503025502,0.537492,-0.058182,0.345349,0.767105,-4.45667314529419,4.52350759506226,7.27898693084717,1.60740196704865,-0.29103073477745,0.51637774705887
114,3503042169,0.537434,-0.058195,0.345303,0.767166,-4.46783208847046,4.56805086135864,7.28949689865112,1.15771961212158,-0.41538035869598,0.40518012642860
115,3503058836,0.537433,-0.058189,0.345296,0.767171,-4.42891168594360,4.44444608688354,7.27008104324341,1.38080632686615,-0.25799033045769,0.30712187290192
116,3503075503,0.537424,-0.058180,0.345345,0.767156,-4.46600294113159,4.53879165649414,7.32433748245239,1.74747776985168,-0.06517791748047,0.28152200579643
117,3503092170,0.537409,-0.058156,0.345330,0.767175,-4.44896936416626,4.47520875930786,7.28905296325684,1.34082472324371,-0.33508452773094,0.50752842426300
118,3503108837,0.537382,-0.058129,0.345377,0.767174,-4.45711421966553,4.53407049179077,7.30626344680786,1.80232703685760,-0.17190603911877,0.40265724062920
119,3503125504,0.537375,-0.058158,0.345363,0.767183,-4.47195720672607,4.50382900238037,7.28582859039307,1.21790945529938,-0.10175284743309,0.25273329019547
120,3503142171,0.537351,-0.058145,0.345407,0.767181,-4.47200727462769,4.52256345748901,7.31253194808960,1.75486707687378,-0.13270580768585,0.31722611188889
121,3503158838,0.537362,-0.058130,0.345413,0.767172,-4.46707868576050,4.50414514541626,7.28453922271729,1.38030672073364,-0.14578108489513,0.45070663094521
122,3503175505,0.537311,-0.058116,0.345479,0.767179,-4.46830701828003,4.52663850784302,7.29575204849243,1.84554851055145,0.01260144729167,0.51043546199799
123,3503192172,0.537285,-0.058139,0.345477,0.767197,-4.46279048919678,4.50416707992554,7.29283237457275,1.18973553180695,0.02666282281280,0.53312832117081
124,3503208839,0.537258,-0.058132,0.345536,0.767189,-4.45563650131226,4.51122045516968,7.29530715942383,1.70909714698792,0.09194960445166,0.49888423085213
125,3503225506,0.537260,-0.058170,0.345555,0.767177,-4.45847558975220,4.52519989013672,7.28455066680908,1.37093257904053,0.08093613386154,0.17432004213333
126,3503242173,0.537250,-0.058182,0.345581,0.767171,-4.45859575271606,4.49039936065674,7.29747724533081,1.51762926578522,-0.02453056536615,0.27620732784271
127,3503258840,0.537228,-0.058191,0.345631,0.767163,-4.48115301132202,4.54853916168213,7.31916427612305,1.70627975463867,0.01673790067434,0.25959756970406
128,3503275507,0.537239,-0.058176,0.345626,0.767159,-4.46080303192139,4.51030826568604,7.29004859924316,1.42863810062408,-0.31036832928658,0.26327294111252
129,3503292174,0.537238,-0.058169,0.345639,0.767154,-4.45476579666138,4.51380443572998,7.29638814926147,1.57977843284607,-0.25838732719421,0.17037568986416
130,3503308841,0.537215,-0.058158,0.345633,0.767174,-4.45860004425049,4.53057956695557,7.29411268234253,1.50084018707275,-0.37749916315079,0.26761427521706
131,3503325508,0.537222,-0.058115,0.345670,0.767155,-4.45631504058838,4.51732254028320,7.26436901092529,1.78040266036987,-0.27951779961586,0.33696067333221
132,3503342175,0.537222,-0.058109,0.345669,0.767157,-4.45839023590088,4.51139116287231,7.27443265914917,1.45409703254700,-0.28198942542076,0.22703097760677
133,3503358842,0.537211,-0.058116,0.345657,0.767168,-4.46224355697632,4.52015781402588,7.29978466033936,1.40068805217743,-0.30545702576637,0.16910143196583
134,3503375509,0.537196,-0.058143,0.345646,0.767183,-4.46621036529541,4.53644895553589,7.31343698501587,1.34136271476746,-0.21610075235367,0.11868925392628
135,3503392176,0.537216,-0.058136,0.345653,0.767165,-4.46968364715576,4.49364519119263,7.27734184265137,1.47077095508575,-0.20527938008308,0.20442776381969
136,3503408843,0.537193,-0.058149,0.345673,0.767172,-4.45216464996338,4.50829219818115,7.29920911788940,1.51773166656494,-0.09058571606874,0.26752462983131
137,3503425510,0.537179,-0.058158,0.345674,0.767181,-4.46276569366455,4.52369022369385,7.28856515884399,1.39984917640686,-0.18247126042843,0.27575913071632
138,3503442177,0.537147,-0.058155,0.345680,0.767200,-4.45466804504395,4.50704574584961,7.28824853897095,1.50242805480957,-0.24396733939648,0.34460607171059
139,3503458844,0.537139,-0.058148,0.345701,0.767197,-4.45836400985718,4.51610326766968,7.28611707687378,1.58251893520355,-0.18408487737179,0.27524685859680
140,3503475511,0.537110,-0.058144,0.345694,0.767221,-4.45581865310669,4.54106712341309,7.31340122222900,1.38950181007385,-0.25670966506004,0.40488553047180
141,3503492178,0.537091,-0.058128,0.345707,0.767229,-4.47383785247803,4.50999498367310,7.25778388977051,1.51505517959595,-0.21347545087337,0.43761858344078
142,3503508845,0.537032,-0.058110,0.345742,0.767257,-4.45708608627319,4.50892591476440,7.28421020507812,1.65664231777191,-0.13408890366554,0.59485495090485
143,3503525512,0.536998,-0.058126,0.345765,0.767268,-4.46489524841309,4.53936719894409,7.31123161315918,1.47078371047974,-0.00097968580667,0.39511430263519
144,3503542179,0.536942,-0.058143,0.345782,0.767299,-4.46368360519409,4.53205966949463,7.28030824661255,1.41753482818604,-0.01532279793173,0.52504754066467
145,3503558846,0.536901,-0.058159,0.345806,0.767315,-4.46005582809448,4.52633762359619,7.28244447708130,1.47421562671661,0.00170324451756,0.43120262026787
146,3503575513,0.536876,-0.058193,0.345789,0.767338,-4.46834373474121,4.52006769180298,7.30473518371582,1.16194581985474,-0.07488513737917,0.34272351861000
147,3503592180,0.536847,-0.058201,0.345819,0.767344,-4.45393562316895,4.51060962677002,7.28223752975464,1.55269312858582,-0.03781075030565,0.36031946539879
148,3503608847,0.536827,-0.058231,0.345812,0.767359,-4.47446203231812,4.53559970855713,7.29129457473755,1.31699216365814,-0.13618913292885,0.19287642836571
149,3503625514,0.536815,-0.058237,0.345808,0.767369,-4.47181034088135,4.50256919860840,7.29174709320068,1.36002159118652,-0.18131870031357,0.32492268085480
150,3503642181,0.536791,-0.058234,0.345821,0.767379,-4.45121145248413,4.51592731475830,7.28822565078735,1.53537881374359,-0.21050439774990,0.31379398703575
151,3503658848,0.536786,-0.058231,0.345846,0.767372,-4.45660018920898,4.53915929794312,7.28845405578613,1.55693209171295,-0.11235650628805,0.29709452390671
152,3503675515,0.536774,-0.058254,0.345833,0.767385,-4.45567798614502,4.51420164108276,7.28034925460815,1.27014660835266,-0.16148166358471,0.24006783962250
153,3503692182,0.536756,-0.058263,0.345832,0.767398,-4.45745277404785,4.50762510299683,7.28632783889771,1.33890390396118,-0.13666296005249,0.38661089539528
154,3503708849,0.536763,-0.058257,0.345829,0.767394,-4.46224451065063,4.53242635726929,7.30202245712280,1.43668019771576,-0.27517640590668,0.21846351027489
155,3503725516,0.536798,-0.058230,0.345833,0.767370,-4.45790481567383,4.51859426498413,7.29272127151489,1.41368007659912,-0.21775275468826,0.36750382184982
156,3503742183,0.536823,-0.058242,0.345805,0.767364,-4.46250486373901,4.52293729782104,7.29086923599243,1.19885361194611,-0.26126873493195,0.15325358510017
157,3503758850,0.536843,-0.058288,0.345769,0.767363,-4.46396303176880,4.49945306777954,7.29873323440552,1.07331287860870,-0.16578459739685,0.00352174579166
158,3503775517,0.536854,-0.058301,0.345780,0.767350,-4.48132228851318,4.52830410003662,7.31605625152588,1.51610541343689,-0.17958985269070,0.03989177942276
159,3503792184,0.536865,-0.058303,0.345799,0.767333,-4.46737623214722,4.53483772277832,7.27980518341064,1.56272053718567,-0.16251899302006,0.12757685780525
160,3503808851,0.536867,-0.058319,0.345775,0.767342,-4.46231794357300,4.52282094955444,7.26459884643555,1.18997883796692,-0.21132400631905,0.25943106412888
161,3503825518,0.536850,-0.058327,0.345758,0.767360,-4.45044231414795,4.52326393127441,7.29811477661133,1.28464341163635,-0.24517115950584,0.33062154054642
162,3503842185,0.536838,-0.058324,0.345755,0.767370,-4.46133899688721,4.51094293594360,7.29280757904053,1.47935116291046,-0.31214836239815,0.21450637280941
163,3503858852,0.536830,-0.058297,0.345761,0.767375,-4.46166753768921,4.49573183059692,7.27223539352417,1.56990480422974,-0.35854580998421,0.31679069995880
164,3503875519,0.536802,-0.058284,0.345751,0.767400,-4.47146177291870,4.51918411254883,7.29732751846313,1.43942081928253,-0.36067163944244,0.36942479014397
165,3503892186,0.536811,-0.058237,0.345774,0.767387,-4.48232078552246,4.51041650772095,7.29544353485107,1.70506310462952,-0.36033868789673,0.34712892770767
166,3503908853,0.536841,-0.058169,0.345785,0.767366,-4.45352745056152,4.51575565338135,7.29362726211548,1.63549911975861,-0.44512948393822,0.43204787373543
167,3503925520,0.536807,-0.058132,0.345786,0.767392,-4.44789934158325,4.53273248672485,7.29876899719238,1.54162847995758,-0.39656785130501,0.52754479646683
168,3503942187,0.536812,-0.058120,0.345771,0.767396,-4.45363092422485,4.51927471160889,7.28797054290771,1.32516264915466,-0.29574346542358,0.34771803021431
169,3503958854,0.536810,-0.058115,0.345762,0.767402,-4.45887041091919,4.49423742294312,7.28085279464722,1.31534028053284,-0.21658737957478,0.39814943075180
170,3503975521,0.536796,-0.058098,0.345810,0.767392,-4.46311712265015,4.53038358688354,7.29822635650635,1.76794207096100,-0.10587649047375,0.32270720601082
171,3503992188,0.536792,-0.058119,0.345787,0.767403,-4.46599340438843,4.53715324401855,7.27378368377686,1.15450525283813,-0.14971263706684,0.32672840356827
172,3504008855,0.536770,-0.058120,0.345810,0.767408,-4.46136140823364,4.51373672485352,7.25952529907227,1.57892048358917,-0.14401379227638,0.28585052490234
173,3504025522,0.536761,-0.058139,0.345839,0.767400,-4.45168352127075,4.50864458084106,7.29913282394409,1.47281980514526,0.05214745923877,0.30471429228783
174,3504042189,0.536737,-0.058156,0.345859,0.767407,-4.46681308746338,4.52804040908813,7.29509210586548,1.51358246803284,-0.07338038086891,0.25323274731636
175,3504058856,0.536711,-0.058169,0.345875,0.767417,-4.48647832870483,4.53941917419434,7.28826665878296,1.48695802688599,-0.10136225074530,0.29827266931534
176,3504075523,0.536683,-0.058163,0.345908,0.767421,-4.47632598876953,4.51019716262817,7.29402780532837,1.52743887901306,0.00249723787419,0.54716408252716
177,3504092190,0.536655,-0.058174,0.345945,0.767424,-4.46522235870361,4.54229784011841,7.30556869506836,1.51271176338196,0.08256254345179,0.47420638799667
178,3504108857,0.536586,-0.058198,0.345972,0.767458,-4.45229673385620,4.50496721267700,7.28054857254028,1.52723407745361,-0.00930381286889,0.42746317386627
179,3504125524,0.536560,-0.058218,0.345977,0.767472,-4.45832157135010,4.52265596389771,7.29019355773926,1.39071834087372,-0.09869214147329,0.30461183190346
180,3504142191,0.536567,-0.058228,0.345967,0.767471,-4.45443153381348,4.50908613204956,7.30705356597900,1.29967796802521,-0.19222970306873,0.23166686296463
181,3504158858,0.536569,-0.058226,0.345985,0.767462,-4.48223590850830,4.50784969329834,7.28463840484619,1.59573519229889,-0.21661302447319,0.14001181721687
182,3504175525,0.536598,-0.058249,0.345977,0.767443,-4.47509002685547,4.53503990173340,7.29314327239990,1.30304598808289,-0.14329664409161,0.04824151843786
183,3504192192,0.536643,-0.058252,0.345960,0.767420,-4.46933984756470,4.54181528091431,7.30260944366455,1.29517030715942,-0.26435509324074,0.07389264553785
184,3504208859,0.536682,-0.058262,0.345956,0.767394,-4.47075986862183,4.53023004531860,7.30301094055176,1.32526504993439,-0.14893144369125,0.11909905076027
185,3504225526,0.536686,-0.058278,0.345944,0.767394,-4.45426797866821,4.51909399032593,7.28932619094849,1.30526149272919,-0.19167903065681,0.18104335665703
186,3504242193,0.536678,-0.058295,0.345965,0.767389,-4.46871185302734,4.51366233825684,7.27268457412720,1.47819840908051,-0.03654291480780,0.23906889557838
187,3504258860,0.536660,-0.058331,0.345952,0.767406,-4.44943046569824,4.50856208801270,7.28479909896851,1.19442272186279,-0.06827706098557,0.28257212042809
188,3504275527,0.536624,-0.058352,0.345974,0.767419,-4.46527576446533,4.52668190002441,7.27160263061523,1.45655584335327,0.00695384852588,0.37091034650803
189,3504292194,0.536639,-0.058360,0.345969,0.767410,-4.47708034515381,4.52841949462891,7.28753614425659,1.33219337463379,-0.16273666918278,0.21968013048172
190,3504308861,0.536582,-0.058384,0.345961,0.767451,-4.47030496597290,4.50552606582642,7.27608823776245,1.32381796836853,-0.16235250234604,0.39969900250435
191,3504325528,0.536532,-0.058369,0.346010,0.767466,-4.46947574615479,4.53310632705688,7.28303670883179,1.79432320594788,-0.12029644101858,0.43964195251465
192,3504342195,0.536505,-0.058372,0.346020,0.767480,-4.45885753631592,4.52576112747192,7.29590797424316,1.43075108528137,-0.12645630538464,0.41276150941849
193,3504358862,0.536469,-0.058386,0.346008,0.767509,-4.49213361740112,4.51586151123047,7.28917551040649,1.30774605274200,-0.20466469228268,0.37301057577133
194,3504375529,0.536433,-0.058381,0.346026,0.767527,-4.46809005737305,4.51746749877930,7.28824234008789,1.55839192867279,-0.18978372216225,0.38881361484528
195,3504392196,0.536448,-0.058373,0.346027,0.767517,-4.47235250473022,4.51414966583252,7.28848934173584,1.32942712306976,-0.13093851506710,0.41406771540642
196,3504408863,0.536398,-0.058392,0.346032,0.767548,-4.46186971664429,4.51963233947754,7.26964473724365,1.39046216011047,-0.09943490475416,0.41026419401169
197,3504425530,0.536369,-0.058393,0.346048,0.767560,-4.46844959259033,4.51648283004761,7.29300451278687,1.51350557804108,-0.15099325776100,0.36632564663887
198,3504442197,0.536348,-0.058416,0.346040,0.767578,-4.46802759170532,4.52244615554810,7.29295778274536,1.29047036170959,-0.13695751130581,0.28378874063492
199,3504458864,0.536338,-0.058435,0.346052,0.767578,-4.46043395996094,4.51636075973511,7.28550195693970,1.46254920959473,-0.10510810464621,0.17771372199059
200,3504475531,0.536328,-0.058471,0.346052,0.767581,-4.48275232315063,4.51839780807495,7.28374862670898,1.33248782157898,-0.06152811273932,0.14816947281361
201,3504492198,0.536312,-0.058488,0.346036,0.767599,-4.48000288009644,4.50247859954834,7.30790567398071,1.28050696849823,-0.21342423558235,0.27014994621277
202,3504508865,0.536310,-0.058480,0.346050,0.767594,-4.45753860473633,4.52772808074951,7.29248523712158,1.57881808280945,-0.25902763009071,0.18295150995255
203,3504525532,0.536295,-0.058494,0.346046,0.767605,-4.45993375778198,4.52714157104492,7.29954576492310,1.36958801746368,-0.18550638854504,0.25062027573586
204,3504542199,0.536282,-0.058504,0.346059,0.767608,-4.45919609069824,4.50828123092651,7.31485462188721,1.49154281616211,-0.14300210773945,0.22833719849586
205,3504558866,0.536266,-0.058507,0.346066,0.767616,-4.46599054336548,4.50861835479736,7.26300430297852,1.47672581672668,-0.19394576549530,0.27698853611946
206,3504575533,0.536260,-0.058531,0.346064,0.767619,-4.47608661651611,4.54849243164062,7.28017807006836,1.35903537273407,-0.14255388081074,0.14508312940598
207,3504592200,0.536233,-0.058569,0.346081,0.767627,-4.45921897888184,4.50515842437744,7.29582262039185,1.39767217636108,0.05049543827772,0.26219722628593
208,3504608867,0.536219,-0.058614,0.346098,0.767626,-4.46585130691528,4.52922868728638,7.30941200256348,1.39345884323120,0.06054842844605,0.13217434287071
209,3504625534,0.536197,-0.058624,0.346117,0.767632,-4.44957399368286,4.52716493606567,7.29727125167847,1.51397955417633,-0.10238035768270,0.28664451837540
210,3504642201,0.536184,-0.058663,0.346124,0.767635,-4.47370958328247,4.54614210128784,7.31396150588989,1.34903383255005,-0.01395251881331,0.16288396716118
211,3504658868,0.536130,-0.058718,0.346110,0.767675,-4.47710418701172,4.51018333435059,7.28062438964844,1.19832849502563,-0.03928348049521,0.27009871602058
212,3504675535,0.536115,-0.058767,0.346129,0.767673,-4.47796106338501,4.51728248596191,7.27650928497314,1.39132034778595,0.09465173631907,0.13227677345276
213,3504692202,0.536079,-0.058810,0.346172,0.767675,-4.45005464553833,4.54427289962769,7.28268575668335,1.52095890045166,0.19423390924931,0.27710381150246
214,3504708869,0.536038,-0.058874,0.346158,0.767705,-4.47377586364746,4.53460550308228,7.28851890563965,1.07326173782349,0.10230993479490,0.33998298645020
215,3504725536,0.535963,-0.058921,0.346208,0.767731,-4.46577310562134,4.49118614196777,7.30307483673096,1.47125756740570,0.32297614216805,0.56303119659424
216,3504742203,0.535902,-0.058961,0.346434,0.767669,-4.48423242568970,4.48587179183960,7.29295253753662,2.64367890357971,0.94065207242966,0.25626787543297
217,3504758870,0.535861,-0.058969,0.346479,0.767677,-4.47350502014160,4.53560447692871,7.26962041854858,1.64050626754761,0.02958266995847,0.41251817345619
218,3504775537,0.535870,-0.059002,0.346477,0.767669,-4.48055315017700,4.51437807083130,7.26301050186157,1.36363303661346,-0.12735274434090,0.00846499763429
219,3504792204,0.535862,-0.059027,0.346458,0.767681,-4.49041557312012,4.50400257110596,7.27814722061157,1.24744093418121,-0.19932444393635,0.18779230117798
220,3504808871,0.535835,-0.059026,0.346506,0.767678,-4.47530269622803,4.54672431945801,7.26825475692749,1.73208451271057,-0.03491651266813,0.31754624843597
221,3504825538,0.535810,-0.059040,0.346492,0.767701,-4.48191404342651,4.54995584487915,7.27192449569702,1.27857315540314,-0.20073312520981,0.34589949250221
222,3504842205,0.535785,-0.059049,0.346489,0.767719,-4.48755693435669,4.52669143676758,7.28846073150635,1.37166237831116,-0.18847744166851,0.34093064069748
223,3504858872,0.535751,-0.059067,0.346464,0.767753,-4.48379802703857,4.51766061782837,7.28434181213379,1.17758226394653,-0.20316632091999,0.41573250293732
224,3504875539,0.535724,-0.059080,0.346491,0.767759,-4.46955823898315,4.51344585418701,7.28457736968994,1.54485547542572,-0.04189597070217,0.31255173683167
225,3504892206,0.535710,-0.059095,0.346506,0.767761,-4.47219800949097,4.54169082641602,7.25089979171753,1.42268311977386,-0.03651730343699,0.33104413747787
226,3504908873,0.535719,-0.059109,0.346503,0.767755,-4.47311830520630,4.51997661590576,7.25167942047119,1.29437613487244,-0.09983190149069,0.27055975794792
227,3504925540,0.535690,-0.059150,0.346492,0.767776,-4.47503232955933,4.52580976486206,7.27791118621826,1.24569928646088,-0.09027836471796,0.20940944552422
228,3504942207,0.535636,-0.059188,0.346488,0.767813,-4.48017597198486,4.52708053588867,7.28204298019409,1.39644289016724,-0.16981860995293,0.18414251506329
229,3504958874,0.535636,-0.059180,0.346471,0.767822,-4.49784612655640,4.53068876266479,7.30013608932495,1.32304954528809,-0.31496575474739,0.31968489289284
230,3504975541,0.535627,-0.059159,0.346389,0.767866,-4.49837827682495,4.53532648086548,7.29058218002319,1.00652790069580,-0.68590164184570,0.39202797412872
231,3504992208,0.535627,-0.059097,0.346344,0.767892,-4.46802186965942,4.49402809143066,7.27802324295044,1.40489506721497,-0.77837640047073,0.39460209012032
232,3505008875,0.535639,-0.059036,0.346277,0.767918,-4.45998477935791,4.52959203720093,7.27225875854492,1.28340125083923,-0.88075023889542,0.31640648841858
233,3505025542,0.535692,-0.058990,0.346183,0.767927,-4.45523166656494,4.51176214218140,7.26258611679077,1.14620673656464,-0.98952740430832,-0.00833053048700
234,3505042209,0.535729,-0.059003,0.346099,0.767938,-4.46002435684204,4.52436542510986,7.29174470901489,0.96846747398376,-0.60908919572830,-0.05112935230136
235,3505058876,0.535826,-0.059018,0.345998,0.767914,-4.48664474487305,4.51976060867310,7.25889205932617,0.87113922834396,-0.67085421085358,-0.32927048206329
236,3505075543,0.535913,-0.059108,0.345848,0.767914,-4.48084449768066,4.53228855133057,7.30464315414429,0.31429344415665,-0.49033591151237,-0.45701384544373
237,3505092210,0.535946,-0.059124,0.345763,0.767929,-4.50678873062134,4.52094697952271,7.30520200729370,0.94770830869675,-0.58976435661316,-0.02244312688708
238,3505108877,0.535991,-0.059195,0.345663,0.767937,-4.46271705627441,4.53290700912476,7.28701210021973,0.68005555868149,-0.37907433509827,-0.24888502061367
239,3505125544,0.535997,-0.059252,0.345604,0.767955,-4.47845602035522,4.50833702087402,7.26394462585449,0.91054427623749,-0.21243812143803,0.03693350777030
240,3505142211,0.535990,-0.059308,0.345530,0.767989,-4.44956207275391,4.53344726562500,7.28841781616211,0.79241842031479,-0.24519677460194,0.17040127515793
241,3505158878,0.535950,-0.059346,0.345474,0.768039,-4.46565961837769,4.51155185699463,7.26516771316528,0.90055531263351,-0.20832727849483,0.44900339841843
242,3505175545,0.535900,-0.059368,0.345445,0.768085,-4.47736787796021,4.51621007919312,7.28106403350830,1.10954213142395,-0.16152009367943,0.53339725732803
243,3505192212,0.535831,-0.059388,0.345430,0.768138,-4.47147893905640,4.52054214477539,7.32503986358643,1.16418671607971,-0.08215912431479,0.67294794321060
244,3505208879,0.535761,-0.059391,0.345388,0.768206,-4.48690032958984,4.51316928863525,7.30324840545654,1.05101704597473,-0.27194923162460,0.75965982675552
245,3505225546,0.535664,-0.059356,0.345364,0.768287,-4.47440528869629,4.48655271530151,7.29021215438843,1.26736760139465,-0.37879261374474,1.00742435455322
246,3505242213,0.535597,-0.059299,0.345334,0.768351,-4.47268247604370,4.51013708114624,7.30398368835449,1.33475446701050,-0.54206073284149,0.90159255266190
247,3505258880,0.535549,-0.059216,0.345307,0.768404,-4.47098541259766,4.50581693649292,7.29158544540405,1.43852436542511,-0.66926622390747,0.88335639238358
248,3505275547,0.535534,-0.059151,0.345224,0.768456,-4.45766973495483,4.49345827102661,7.30250263214111,1.07059800624847,-0.82803928852081,0.68813639879227
249,3505292214,0.535515,-0.059083,0.345166,0.768500,-4.46170568466187,4.49204683303833,7.30643129348755,1.33817410469055,-0.85575240850449,0.50998729467392
250,3505308881,0.535544,-0.059071,0.345082,0.768519,-4.48058938980103,4.51752662658691,7.29880857467651,1.04924988746643,-0.72918719053268,0.06412139534950
251,3505325548,0.535581,-0.059098,0.344979,0.768538,-4.46619272232056,4.48180437088013,7.27103376388550,0.74153894186020,-0.55034649372101,0.03151642903686
252,3505342215,0.535595,-0.059124,0.344939,0.768543,-4.46146202087402,4.49263668060303,7.28969287872314,1.11990249156952,-0.27995321154594,0.09238500148058
253,3505358882,0.535543,-0.059100,0.344979,0.768564,-4.47448778152466,4.48579931259155,7.31244754791260,1.71562838554382,-0.15351611375809,0.57412147521973
254,3505375549,0.535546,-0.059120,0.344957,0.768570,-4.45613431930542,4.57260608673096,7.28341388702393,1.26379466056824,-0.25640234351158,0.12128894031048
255,3505392216,0.535561,-0.059204,0.344797,0.768625,-4.45733070373535,4.51808738708496,7.30370521545410,0.16585503518581,-0.44845911860466,0.07238148152828
256,3505408883,0.535593,-0.059236,0.344706,0.768641,-4.45783185958862,4.47433948516846,7.26819419860840,0.67741745710373,-0.34489417076111,0.22405987977982
257,3505425550,0.535571,-0.059272,0.344652,0.768678,-4.45540666580200,4.47359323501587,7.27916383743286,0.92205721139908,-0.20835290849209,0.37591758370399
258,3505442217,0.535524,-0.059296,0.344617,0.768725,-4.45530939102173,4.51452493667603,7.29674816131592,1.13829243183136,-0.25807997584343,0.39458930492401
259,3505458884,0.535500,-0.059319,0.344574,0.768759,-4.45277595520020,4.52608442306519,7.28801393508911,1.04880154132843,-0.24755313992500,0.38976123929024
260,3505475551,0.535486,-0.059339,0.344524,0.768790,-4.45174455642700,4.49544000625610,7.28257513046265,0.91131263971329,-0.18125468492508,0.52530366182327
261,3505492218,0.535430,-0.059361,0.344505,0.768835,-4.46380996704102,4.51128196716309,7.32909345626831,1.10582828521729,-0.05785268917680,0.65987277030945
262,3505508885,0.535364,-0.059344,0.344496,0.768886,-4.45605802536011,4.49166822433472,7.30067920684814,1.20834314823151,-0.12598246335983,0.95988714694977
263,3505525552,0.535231,-0.059335,0.344518,0.768969,-4.46201610565186,4.51164340972900,7.30605792999268,1.50481009483337,-0.09336469322443,0.98295140266418
264,3505542219,0.535134,-0.059308,0.344498,0.769048,-4.45479536056519,4.50910520553589,7.29492425918579,1.16408431529999,-0.21679228544235,1.15912830829620
265,3505558886,0.535039,-0.059296,0.344480,0.769124,-4.43893051147461,4.48311996459961,7.29175329208374,1.18274319171906,-0.19372805953026,0.99163401126862
266,3505575553,0.534953,-0.059280,0.344488,0.769181,-4.46844387054443,4.48584747314453,7.32493209838867,1.40597069263458,-0.15265808999538,0.86914134025574
267,3505592220,0.534875,-0.059236,0.344528,0.769220,-4.47150135040283,4.46222209930420,7.30400896072388,1.72087872028351,-0.18622352182865,0.84462994337082
268,3505608887,0.534815,-0.059216,0.344534,0.769261,-4.45378494262695,4.55770587921143,7.33035802841187,1.45464766025543,-0.23241601884365,0.68667650222778
269,3505625554,0.534749,-0.059225,0.344517,0.769314,-4.46557235717773,4.46903228759766,7.29797554016113,1.20315659046173,-0.15448941290379,0.68466591835022
270,3505642221,0.534670,-0.059222,0.344547,0.769356,-4.43647623062134,4.49155569076538,7.30060338973999,1.50939464569092,-0.01086618658155,0.75568985939026
271,3505658888,0.534581,-0.059259,0.344578,0.769401,-4.44629240036011,4.46339368820190,7.28944921493530,1.35588514804840,0.23258891701698,0.73061507940292
272,3505675555,0.534532,-0.059215,0.344576,0.769439,-4.44890451431274,4.54266262054443,7.32126188278198,1.51315999031067,-0.41801846027374,0.67165470123291
273,3505692222,0.534515,-0.059209,0.344519,0.769477,-4.45453929901123,4.46370744705200,7.30161142349243,1.01962876319885,-0.40833687782288,0.51464879512787
274,3505708889,0.534466,-0.059176,0.344562,0.769494,-4.47592830657959,4.48306798934937,7.33235692977905,1.75879836082458,-0.18245846033096,0.58482748270035
275,3505725556,0.534407,-0.059109,0.344578,0.769534,-4.46371078491211,4.55585384368896,7.29971361160278,1.68472623825073,-0.44616675376892,0.79380142688751
276,3505742223,0.534343,-0.059092,0.344570,0.769583,-4.44031000137329,4.46566772460938,7.27538871765137,1.35174858570099,-0.25670966506004,0.72147136926651
277,3505758890,0.534299,-0.059043,0.344631,0.769590,-4.45623588562012,4.52547979354858,7.31164693832397,1.93824100494385,-0.21456398069859,0.56752616167068
278,3505775557,0.534236,-0.059031,0.344632,0.769634,-4.44793796539307,4.49008798599243,7.29293012619019,1.39224231243134,-0.20180886983871,0.69387370347977
279,3505792224,0.534198,-0.058960,0.344690,0.769639,-4.47379064559937,4.54330492019653,7.31285667419434,2.01487421989441,-0.34814703464508,0.57590162754059
280,3505808891,0.534141,-0.058961,0.344667,0.769690,-4.41407251358032,4.47959423065186,7.30051088333130,1.20199120044708,-0.23835821449757,0.64382648468018
281,3505825558,0.534097,-0.058906,0.344780,0.769673,-4.43489217758179,4.54503679275513,7.31492471694946,2.29245209693909,-0.03568489477038,0.51277905702591
282,3505842225,0.534041,-0.058900,0.344878,0.769669,-4.47540998458862,4.48140335083008,7.29367494583130,2.00037741661072,0.18410407006741,0.50476223230362
283,3505858892,0.533979,-0.058860,0.344903,0.769704,-4.44452381134033,4.58355331420898,7.30095005035400,1.64925289154053,-0.25802874565125,0.72622251510620
284,3505875559,0.533901,-0.058858,0.344931,0.769746,-4.47397804260254,4.46693086624146,7.30308008193970,1.49547421932220,-0.01605276018381,0.75206565856934
285,3505892226,0.533797,-0.058828,0.345093,0.769748,-4.43256330490112,4.50719356536865,7.25329542160034,2.39451837539673,0.40824082493782,0.86220026016235
286,3505908893,0.533690,-0.058820,0.345186,0.769780,-4.46805953979492,4.55594635009766,7.28710746765137,1.87362039089203,0.26441270112991,0.90635663270950
287,3505925560,0.533607,-0.058873,0.345132,0.769858,-4.41615295410156,4.52294445037842,7.31868648529053,0.77181303501129,-0.02446652762592,0.74155169725418
288,3505942227,0.533559,-0.058893,0.345137,0.769888,-4.44412851333618,4.46851491928101,7.30494832992554,1.33635556697845,-0.04888824746013,0.48715358972549
289,3505958894,0.533511,-0.058862,0.345225,0.769883,-4.46328401565552,4.50639247894287,7.28335428237915,2.04405355453491,0.00359218148515,0.51364350318909
290,3505975561,0.533481,-0.058851,0.345232,0.769902,-4.44021940231323,4.55608606338501,7.29135131835938,1.49332273006439,-0.24670790135860,0.42345467209816
291,3505992228,0.533459,-0.058831,0.345216,0.769926,-4.45318222045898,4.55056190490723,7.29058265686035,1.39723682403564,-0.39426273107529,0.41450315713882
292,3506008895,0.533437,-0.058825,0.345206,0.769946,-4.43616151809692,4.51600503921509,7.30428457260132,1.38294470310211,-0.30107083916664,0.36627432703972
293,3506025562,0.533418,-0.058810,0.345227,0.769951,-4.44702768325806,4.52448415756226,7.30675029754639,1.62072050571442,-0.23205746710300,0.33174848556519
294,3506042229,0.533400,-0.058827,0.345250,0.769952,-4.44450712203979,4.52414655685425,7.28848791122437,1.52246999740601,-0.05904366448522,0.23385673761368
295,3506058896,0.533381,-0.058859,0.345289,0.769946,-4.44175291061401,4.51474285125732,7.28338623046875,1.56711304187775,0.08610989898443,0.18792039155960
296,3506075563,0.533354,-0.058895,0.345334,0.769941,-4.44325971603394,4.52223110198975,7.28803205490112,1.57483530044556,0.15070512890816,0.22256156802177
297,3506092230,0.533331,-0.058939,0.345405,0.769922,-4.44162893295288,4.52928924560547,7.28667545318604,1.72733318805695,0.27766725420952,0.14250905811787
298,3506108897,0.533290,-0.058990,0.345463,0.769920,-4.45155763626099,4.53511047363281,7.30629253387451,1.57889473438263,0.30978554487228,0.28049743175507
299,3506125564,0.533257,-0.059056,0.345502,0.769921,-4.45493125915527,4.53294801712036,7.29211235046387,1.42168414592743,0.29890021681786,0.20371061563492
300,3506142231,0.533212,-0.059119,0.345551,0.769925,-4.46147680282593,4.50677680969238,7.29812479019165,1.47459983825684,0.33894562721252,0.29072973132133
301,3506158898,0.533171,-0.059168,0.345606,0.769925,-4.45638608932495,4.51751804351807,7.31061363220215,1.57063472270966,0.28951314091682,0.29165181517601
302,3506175565,0.533149,-0.059187,0.345648,0.769919,-4.46730709075928,4.51013326644897,7.29315900802612,1.63158011436462,0.03266899660230,0.23351097106934
303,3506192232,0.533134,-0.059212,0.345674,0.769916,-4.44679069519043,4.51223564147949,7.27399826049805,1.51760351657867,-0.01192911434919,0.18622991442680
304,3506208899,0.533137,-0.059216,0.345719,0.769894,-4.44867324829102,4.51904773712158,7.26971864700317,1.74472439289093,-0.08247930556536,0.07948902249336
305,3506225566,0.533148,-0.059260,0.345704,0.769890,-4.43953132629395,4.52531909942627,7.29546833038330,1.25461232662201,-0.12162831425667,-0.01665465719998
306,3506242233,0.533153,-0.059285,0.345724,0.769875,-4.46693515777588,4.50617218017578,7.29503536224365,1.51536250114441,-0.07304101437330,0.03156765550375
307,3506258900,0.533139,-0.059295,0.345790,0.769854,-4.47871017456055,4.54885292053223,7.27233266830444,1.83343386650085,0.06221324577928,0.17019636929035
308,3506275567,0.533114,-0.059304,0.345806,0.769864,-4.46068811416626,4.52560949325562,7.29305267333984,1.48972415924072,-0.11381644755602,0.31755906343460
309,3506292234,0.533089,-0.059302,0.345835,0.769869,-4.45286178588867,4.54335927963257,7.27781295776367,1.61367690563202,-0.12142340838909,0.33990618586540
310,3506308901,0.533067,-0.059279,0.345854,0.769877,-4.45826005935669,4.51585483551025,7.29135704040527,1.56882894039154,-0.21234844624996,0.47804820537567
311,3506325568,0.533029,-0.059249,0.345878,0.769895,-4.44741106033325,4.54584121704102,7.30620002746582,1.68183219432831,-0.29054406285286,0.46271902322769
312,3506342235,0.533002,-0.059230,0.345889,0.769910,-4.45919752120972,4.52731132507324,7.28261899948120,1.50495111942291,-0.22653792798519,0.49577221274376
313,3506358902,0.532948,-0.059217,0.345920,0.769935,-4.46367692947388,4.51650524139404,7.27636766433716,1.66474866867065,-0.17487712204456,0.48381111025810
314,3506375569,0.532922,-0.059193,0.345951,0.769941,-4.46488809585571,4.52828502655029,7.28706502914429,1.61767256259918,-0.14692085981369,0.53567683696747
315,3506392236,0.532887,-0.059185,0.345990,0.769948,-4.46513509750366,4.54084920883179,7.26431846618652,1.64884316921234,-0.06575420498848,0.45073229074478
316,3506408903,0.532842,-0.059203,0.346010,0.769968,-4.45059919357300,4.52261734008789,7.26483488082886,1.47311437129974,-0.02517087943852,0.41340181231499
317,3506425570,0.532817,-0.059197,0.346038,0.769974,-4.46101713180542,4.52744531631470,7.27817153930664,1.62714922428131,-0.15825445950031,0.33235040307045
318,3506442237,0.532780,-0.059219,0.346027,0.770002,-4.44239664077759,4.52739572525024,7.29051637649536,1.28674352169037,-0.15446378290653,0.34952366352081
319,3506458904,0.532772,-0.059229,0.346023,0.770009,-4.45865964889526,4.53113031387329,7.28512573242188,1.41867458820343,-0.24583707749844,0.16719971597195
320,3506475571,0.532737,-0.059249,0.346022,0.770032,-4.45812416076660,4.53388690948486,7.31467819213867,1.47956895828247,-0.25727316737175,0.14195838570595
321,3506492238,0.532739,-0.059249,0.346053,0.770017,-4.46904611587524,4.51541137695312,7.28243875503540,1.56135010719299,-0.04161423072219,0.29536563158035
322,3506508905,0.532713,-0.059236,0.346144,0.769995,-4.48201179504395,4.55183601379395,7.27877950668335,2.04124236106873,0.06031790003181,0.29037117958069
323,3506525572,0.532707,-0.059268,0.346050,0.770039,-4.42543983459473,4.58469724655151,7.28869342803955,0.71967840194702,-0.41083410382271,0.30324155092239
324,3506542239,0.532708,-0.059286,0.346040,0.770042,-4.45481824874878,4.48359155654907,7.26344919204712,1.37200808525085,-0.24875693023205,0.08827415853739
325,3506558906,0.532715,-0.059298,0.346045,0.770033,-4.44100809097290,4.54138374328613,7.30528402328491,1.42197859287262,-0.14619088172913,0.15685215592384
326,3506575573,0.532740,-0.059295,0.346072,0.770004,-4.45324659347534,4.52939367294312,7.27520322799683,1.58805143833160,-0.11544283479452,0.15032093226910
327,3506592240,0.532720,-0.059334,0.346088,0.770008,-4.45819711685181,4.55695581436157,7.28221750259399,1.44943547248840,-0.01737181469798,0.11345145851374
328,3506608907,0.532742,-0.059380,0.346074,0.769996,-4.47368812561035,4.52311420440674,7.26932001113892,1.11252593994141,0.02444732002914,0.13742493093014
329,3506625574,0.532704,-0.059438,0.346135,0.769989,-4.48024463653564,4.55449199676514,7.28871583938599,1.48531877994537,0.44992554187775,0.39060646295547
330,3506642241,0.532679,-0.059563,0.346099,0.770014,-4.48238229751587,4.53494930267334,7.28997707366943,0.72189396619797,0.34112274646759,0.13743774592876
331,3506658908,0.532627,-0.059637,0.346143,0.770024,-4.46738243103027,4.50402688980103,7.25950050354004,1.34670293331146,0.44811981916428,0.40001916885376
332,3506675575,0.532562,-0.059734,0.346170,0.770049,-4.45735502243042,4.54285812377930,7.30949497222900,1.19311630725861,0.45703297853470,0.34132760763168
333,3506692242,0.532524,-0.059850,0.346289,0.770013,-4.43110418319702,4.49735212326050,7.28089094161987,1.65723097324371,0.96999126672745,0.15739002823830
334,3506708909,0.532456,-0.059962,0.346473,0.769969,-4.46125316619873,4.51419401168823,7.22245407104492,2.06068229675293,1.23111295700073,0.26397728919983
335,3506725576,0.532390,-0.060094,0.346601,0.769946,-4.43943691253662,4.56311178207397,7.29685831069946,1.70238649845123,1.04625296592712,0.15621183812618
336,3506742243,0.532328,-0.060148,0.346711,0.769935,-4.50291252136230,4.51257371902466,7.28405141830444,1.81364786624908,0.61857229471207,0.45504802465439
337,3506758910,0.532328,-0.060185,0.346777,0.769903,-4.45301771163940,4.55982828140259,7.29658794403076,1.65593802928925,0.28131708502769,0.15668569505215
338,3506775577,0.532295,-0.060221,0.346817,0.769905,-4.49565458297729,4.50815582275391,7.28654384613037,1.52495455741882,0.15479035675526,0.30591809749603
339,3506792244,0.532260,-0.060222,0.346889,0.769897,-4.47851753234863,4.55174493789673,7.30422544479370,1.78249001502991,0.15277972817421,0.46620225906372
340,3506808911,0.532217,-0.060211,0.346949,0.769900,-4.48213911056519,4.52341651916504,7.26275444030762,1.78507697582245,0.00486641284078,0.48295301198959
341,3506825578,0.532170,-0.060190,0.347049,0.769889,-4.46278190612793,4.56524038314819,7.25751733779907,2.04102492332458,0.14882259070873,0.55186402797699
342,3506842245,0.532093,-0.060192,0.347105,0.769917,-4.47256994247437,4.53258800506592,7.25946331024170,1.66108608245850,0.10885398089886,0.68470436334610
343,3506858912,0.532029,-0.060174,0.347197,0.769921,-4.48239231109619,4.55939483642578,7.26492786407471,2.00521802902222,0.10709949582815,0.57951289415359
344,3506875579,0.532020,-0.060155,0.347252,0.769904,-4.49040699005127,4.53904581069946,7.24576044082642,1.63324511051178,0.10042740404606,0.61298882961273
345,3506892246,0.531943,-0.060181,0.347329,0.769920,-4.48905706405640,4.54573059082031,7.26827430725098,1.74796426296234,0.28655490279198,0.54827827215195
346,3506908913,0.531879,-0.060214,0.347382,0.769938,-4.48005390167236,4.53363370895386,7.27523708343506,1.53081977367401,0.26660257577896,0.56048268079758
347,3506925580,0.531836,-0.060209,0.347466,0.769930,-4.48524904251099,4.55194234848022,7.26882839202881,1.81436502933502,0.23760896921158,0.61510175466537
348,3506942247,0.531827,-0.060199,0.347512,0.769917,-4.46763944625854,4.54385995864868,7.27143716812134,1.56279718875885,0.08888886123896,0.56520825624466
349,3506958914,0.531828,-0.060189,0.347542,0.769904,-4.48051977157593,4.52258110046387,7.26849031448364,1.54235827922821,-0.04762040823698,0.41623196005821
350,3506975581,0.531825,-0.060145,0.347565,0.769898,-4.47930479049683,4.53092336654663,7.28834676742554,1.69333255290985,-0.34479179978371,0.38483083248138
351,3506992248,0.531799,-0.060063,0.347626,0.769895,-4.46772527694702,4.53970003128052,7.24625730514526,2.08975291252136,-0.41539317369461,0.52596962451935
352,3507008915,0.531741,-0.060038,0.347690,0.769908,-4.46212863922119,4.56674432754517,7.24549674987793,2.01182627677917,-0.20568917691708,0.34089222550392
353,3507025582,0.531696,-0.060075,0.347717,0.769924,-4.47743225097656,4.58266067504883,7.24767160415649,1.54435610771179,0.00417486997321,0.19233855605125
354,3507042249,0.531667,-0.060106,0.347750,0.769927,-4.48862934112549,4.54627370834351,7.24253940582275,1.47562444210052,0.11028827726841,0.33630755543709
355,3507058916,0.531590,-0.060083,0.347823,0.769949,-4.49394893646240,4.56968212127686,7.25706005096436,1.86095464229584,0.04702491685748,0.73750483989716
356,3507075583,0.531500,-0.060016,0.347884,0.769989,-4.49588775634766,4.57309293746948,7.25455904006958,1.91183447837830,-0.21398772299290,0.97143852710724
357,3507092250,0.531415,-0.059904,0.347939,0.770032,-4.48362636566162,4.56890439987183,7.25554513931274,1.93885588645935,-0.38080328702927,1.21755099296570
358,3507108917,0.531312,-0.059783,0.348016,0.770078,-4.49119758605957,4.54118251800537,7.26959419250488,2.11907958984375,-0.35197612643242,1.28899753093719
359,3507125584,0.531205,-0.059684,0.348103,0.770119,-4.47283697128296,4.54927921295166,7.24112176895142,2.13036203384399,-0.21854677796364,1.19223284721375
360,3507142251,0.531095,-0.059608,0.348203,0.770156,-4.48607921600342,4.55285787582397,7.23125457763672,2.08857488632202,-0.00255486671813,1.19750905036926
361,3507158918,0.531001,-0.059619,0.348257,0.770195,-4.47413396835327,4.55194330215454,7.26519155502319,1.63886678218842,0.13606745004654,0.72074127197266
362,3507175585,0.530931,-0.059604,0.348312,0.770220,-4.46496868133545,4.53077316284180,7.25137233734131,1.70747041702271,0.02781538665295,0.72302085161209
363,3507192252,0.530945,-0.059592,0.348374,0.770183,-4.45548915863037,4.55150890350342,7.27235078811646,1.75503337383270,0.06081736087799,0.32385978102684
364,3507208919,0.530943,-0.059597,0.348400,0.770172,-4.46976661682129,4.56477689743042,7.23508691787720,1.62308943271637,-0.14520479738712,0.13068878650665
365,3507225586,0.530974,-0.059571,0.348429,0.770140,-4.47708225250244,4.56927156448364,7.25859642028809,1.73020195960999,-0.29259312152863,0.08417613804340
366,3507242253,0.530959,-0.059561,0.348454,0.770139,-4.49046468734741,4.59493589401245,7.24693727493286,1.71004486083984,-0.26412457227707,0.16288396716118
367,3507258920,0.530949,-0.059526,0.348491,0.770133,-4.47667598724365,4.59449720382690,7.22281599044800,1.74327731132507,-0.23995901644230,0.39987832307816
368,3507275587,0.530954,-0.059500,0.348513,0.770121,-4.46765041351318,4.59631443023682,7.25945663452148,1.60792684555054,-0.22004511952400,0.35196974873543
369,3507292254,0.530960,-0.059489,0.348506,0.770120,-4.47235631942749,4.56496047973633,7.21805667877197,1.34964835643768,-0.23998460173607,0.36262461543083
370,3507308921,0.530909,-0.059462,0.348538,0.770144,-4.46039676666260,4.54202604293823,7.24007415771484,1.77969837188721,-0.30653917789459,0.41319683194160
371,3507325588,0.530917,-0.059377,0.348596,0.770118,-4.47588586807251,4.57680320739746,7.24724245071411,1.95058631896973,-0.31254535913467,0.59616124629974
372,3507342255,0.530891,-0.059334,0.348677,0.770103,-4.45354986190796,4.55913209915161,7.23023796081543,1.99598467350006,-0.05517615750432,0.51676183938980
373,3507358922,0.530883,-0.059289,0.348773,0.770069,-4.47792387008667,4.57215785980225,7.27114295959473,2.10363507270813,0.00276617170312,0.43809244036674
374,3507375589,0.530863,-0.059230,0.348840,0.770057,-4.49056482315063,4.62993526458740,7.25534820556641,2.10504388809204,-0.33512297272682,0.33596178889275
375,3507392256,0.530912,-0.059211,0.348836,0.770026,-4.47894525527954,4.57376861572266,7.22591543197632,1.46678817272186,-0.34070652723312,0.07864379137754
376,3507408923,0.530939,-0.059160,0.348882,0.769990,-4.48317337036133,4.56492805480957,7.25763511657715,1.81085622310638,-0.23565603792667,0.33544951677322
377,3507425590,0.530905,-0.059121,0.348982,0.769971,-4.47715282440186,4.59718656539917,7.24638795852661,2.15293979644775,0.00258688279428,0.45360091328621
378,3507442257,0.530914,-0.059087,0.349062,0.769932,-4.46883201599121,4.59153366088867,7.22441196441650,1.89893817901611,0.04959899187088,0.44431629776955
379,3507458924,0.530862,-0.059104,0.349126,0.769937,-4.47354221343994,4.56412601470947,7.21478033065796,1.77718842029572,0.11626887321472,0.35364738106728
380,3507475591,0.530831,-0.059139,0.349211,0.769917,-4.48134708404541,4.59605789184570,7.22475051879883,1.78690838813782,0.34427309036255,0.27406868338585
381,3507492258,0.530784,-0.059178,0.349318,0.769899,-4.49153184890747,4.58220291137695,7.23028469085693,1.89288091659546,0.47250303626060,0.34490057826042
382,3507508925,0.530764,-0.059215,0.349429,0.769859,-4.48724269866943,4.59368562698364,7.23514747619629,1.87328720092773,0.53712385892868,0.31364029645920
383,3507525592,0.530711,-0.059232,0.349551,0.769839,-4.49581289291382,4.60230731964111,7.23762941360474,2.07648563385010,0.39940446615219,0.39177188277245
384,3507542259,0.530617,-0.059245,0.349666,0.769850,-4.49669885635376,4.59177684783936,7.23764657974243,2.05278110504150,0.34943407773972,0.58546799421310
385,3507558926,0.530550,-0.059213,0.349804,0.769836,-4.46972513198853,4.58732128143311,7.23387241363525,2.25385355949402,0.30258843302727,0.72307217121124
386,3507575593,0.530518,-0.059203,0.349934,0.769800,-4.45859861373901,4.59767818450928,7.22111845016479,2.14772748947144,0.36841306090355,0.48251765966415
387,3507592260,0.530484,-0.059202,0.350061,0.769766,-4.48836994171143,4.57679843902588,7.23882198333740,2.12078285217285,0.37869659066200,0.44391936063766
388,3507608927,0.530426,-0.059149,0.350280,0.769710,-4.48758316040039,4.57593584060669,7.23181486129761,2.86827683448792,0.47122249007225,0.58729922771454
389,3507625594,0.530435,-0.059031,0.350443,0.769639,-4.49177312850952,4.61582469940186,7.26135206222534,2.70374059677124,-0.04952855780721,0.60188561677933
390,3507642261,0.530378,-0.059003,0.350589,0.769614,-4.45850992202759,4.55850791931152,7.23693466186523,2.40825986862183,0.22998926043510,0.46576699614525
391,3507658928,0.530288,-0.058898,0.350947,0.769520,-4.54673719406128,4.57641696929932,7.21238374710083,4.05344009399414,0.61303997039795,0.50984638929367
392,3507675595,0.530255,-0.058791,0.351095,0.769484,-4.48126792907715,4.68620061874390,7.20685195922852,2.70771074295044,-0.19489343464375,0.54949486255646
393,3507692262,0.530228,-0.058790,0.351156,0.769475,-4.49691820144653,4.64477968215942,7.19639921188354,1.90969550609589,-0.09435077756643,0.14190715551376
394,3507708929,0.530240,-0.058778,0.351170,0.769461,-4.49043369293213,4.60218477249146,7.21787357330322,1.62625277042389,-0.30081477761269,0.09378089755774
395,3507725596,0.530228,-0.058714,0.351257,0.769434,-4.49283027648926,4.59197330474854,7.24192428588867,2.19849181175232,-0.22778014838696,0.36859235167503
396,3507742263,0.530254,-0.058653,0.351331,0.769387,-4.50713825225830,4.61057710647583,7.22592926025391,2.03704190254211,-0.19380490481853,0.31690591573715
397,3507758930,0.530257,-0.058624,0.351364,0.769372,-4.48779058456421,4.63210773468018,7.22741222381592,1.76349854469299,-0.28403845429420,0.22047413885593
398,3507775597,0.530245,-0.058608,0.351447,0.769344,-4.48842573165894,4.62951421737671,7.21368217468262,2.09032917022705,-0.06950646638870,0.11383565515280
399,3507792264,0.530221,-0.058608,0.351500,0.769337,-4.48434686660767,4.62791776657104,7.17896652221680,1.77023470401764,-0.03722165524960,0.27294173836708
400,3507808931,0.530231,-0.058586,0.351573,0.769298,-4.48338651657104,4.63567256927490,7.19245576858521,1.83809530735016,0.07974513620138,0.37713417410851
401,3507825598,0.530176,-0.058591,0.351607,0.769320,-4.48700761795044,4.62644386291504,7.18964576721191,1.58974182605743,-0.03501896187663,0.48673093318939
402,3507842265,0.530137,-0.058581,0.351657,0.769325,-4.49052858352661,4.62299823760986,7.23791503906250,1.73496568202972,-0.04625013098121,0.45680245757103
403,3507858932,0.530125,-0.058591,0.351668,0.769327,-4.48972225189209,4.61504650115967,7.21983766555786,1.42019867897034,-0.08278665691614,0.32352685928345
404,3507875599,0.530117,-0.058573,0.351702,0.769318,-4.50349283218384,4.60933017730713,7.19844484329224,1.73337781429291,-0.22195324301720,0.23603381216526
405,3507892266,0.530095,-0.058562,0.351739,0.769318,-4.49285364151001,4.62413406372070,7.21039628982544,1.73135459423065,-0.17382700741291,0.27346679568291
406,3507908933,0.530130,-0.058545,0.351742,0.769293,-4.48574638366699,4.62048864364624,7.20018815994263,1.49278497695923,-0.29080018401146,0.15375304222107
407,3507925600,0.530166,-0.058509,0.351718,0.769282,-4.48795270919800,4.61125373840332,7.21322774887085,1.43619370460510,-0.54709368944168,0.15288220345974
408,3507942267,0.530208,-0.058465,0.351677,0.769275,-4.46406698226929,4.59831380844116,7.23135519027710,1.41817522048950,-0.72465366125107,0.05240358039737
409,3507958934,0.530261,-0.058447,0.351644,0.769255,-4.48257303237915,4.60609054565430,7.18431186676025,1.52425026893616,-0.69761949777603,-0.29853525757790
410,3507975601,0.530349,-0.058383,0.351575,0.769231,-4.50775146484375,4.64094543457031,7.21381711959839,1.38414859771729,-1.01866173744202,-0.17394223809242
411,3507992268,0.530412,-0.058310,0.351510,0.769223,-4.50979709625244,4.61713981628418,7.22603130340576,1.44203352928162,-1.04602909088135,-0.04541771858931
412,3508008935,0.530478,-0.058199,0.351453,0.769212,-4.48811912536621,4.62913990020752,7.22559738159180,1.56854724884033,-1.16410350799561,0.12271043658257
413,3508025602,0.530518,-0.058045,0.351521,0.769165,-4.47774553298950,4.64125251770020,7.19619846343994,2.32458329200745,-0.71531790494919,0.50036972761154
414,3508042269,0.530571,-0.057978,0.351460,0.769161,-4.46510457992554,4.68636703491211,7.20207309722900,1.23814344406128,-0.78572720289230,0.30823600292206
415,3508058936,0.530575,-0.057935,0.351398,0.769190,-4.48527669906616,4.58980464935303,7.20552730560303,1.22989630699158,-0.74427300691605,0.33427134156227
416,3508075603,0.530600,-0.057889,0.351412,0.769170,-4.47194910049438,4.61216402053833,7.21957349777222,1.70966064929962,-0.45654004812241,0.18030060827732
417,3508092270,0.530618,-0.057860,0.351431,0.769151,-4.50599336624146,4.63976192474365,7.18921232223511,1.68099999427795,-0.34138530492783,0.16881330311298
418,3508108937,0.530619,-0.057856,0.351432,0.769150,-4.47470331192017,4.63637924194336,7.20789289474487,1.49209344387054,-0.28544715046883,0.18334852159023
419,3508125604,0.530637,-0.057874,0.351420,0.769141,-4.48739528656006,4.61700534820557,7.19910907745361,1.28146743774414,-0.17521008849144,0.12399107962847
420,3508142271,0.530692,-0.057871,0.351442,0.769094,-4.49127101898193,4.63373899459839,7.21683263778687,1.52446806430817,-0.10392993688583,0.06447997689247
421,3508158938,0.530709,-0.057911,0.351409,0.769094,-4.49478149414062,4.63204193115234,7.23623609542847,1.11293590068817,-0.17193165421486,0.05199378356338
422,3508175605,0.530677,-0.057941,0.351413,0.769112,-4.49538230895996,4.60316658020020,7.23549270629883,1.39691674709320,-0.10084360092878,0.22197245061398
423,3508192272,0.530644,-0.057969,0.351440,0.769120,-4.49132633209229,4.64272880554199,7.20428609848022,1.48584401607513,0.04529606178403,0.30452218651772
424,3508208939,0.530681,-0.057994,0.351461,0.769084,-4.45751667022705,4.62407493591309,7.20682907104492,1.31947660446167,0.13901291787624,0.23069356381893
425,3508225606,0.530622,-0.058047,0.351477,0.769113,-4.47150945663452,4.63329267501831,7.21439981460571,1.41844403743744,0.04254269227386,0.23261450231075
426,3508242273,0.530597,-0.058092,0.351482,0.769125,-4.48724889755249,4.58627748489380,7.21542119979858,1.29131543636322,0.03930268809199,0.23412573337555
427,3508258940,0.530635,-0.058103,0.351512,0.769084,-4.46661329269409,4.62773418426514,7.21037435531616,1.53239488601685,-0.00354095548391,0.08550799638033
428,3508275607,0.530634,-0.058147,0.351525,0.769075,-4.49105262756348,4.61175251007080,7.20461559295654,1.43975389003754,-0.02485072053969,-0.01858841627836
429,3508292274,0.530623,-0.058177,0.351529,0.769079,-4.50156688690186,4.63209009170532,7.22776317596436,1.42492413520813,-0.13093852996826,0.08717282861471
430,3508308941,0.530643,-0.058183,0.351534,0.769062,-4.49531078338623,4.61762237548828,7.19977951049805,1.43496429920197,-0.16866602003574,0.13335251808167
431,3508325608,0.530699,-0.058152,0.351563,0.769012,-4.47784185409546,4.62504720687866,7.19562292098999,1.60308599472046,-0.16108466684818,0.22146020829678
432,3508342275,0.530689,-0.058153,0.351581,0.769011,-4.48026990890503,4.63819742202759,7.19891023635864,1.49196529388428,-0.10864267498255,0.33422014117241
433,3508358942,0.530635,-0.058187,0.351577,0.769048,-4.48070478439331,4.60462427139282,7.18521642684937,1.31919491291046,-0.09764202684164,0.34458047151566
434,3508375609,0.530553,-0.058251,0.351610,0.769085,-4.48005628585815,4.61266660690308,7.18652200698853,1.55777728557587,0.09516398608685,0.16914626955986
435,3508392276,0.530547,-0.058290,0.351594,0.769093,-4.49218702316284,4.61452198028564,7.20960330963135,1.16162550449371,-0.04904191195965,0.22769689559937
436,3508408943,0.530526,-0.058312,0.351624,0.769092,-4.50154972076416,4.62704229354858,7.23491668701172,1.51720654964447,0.03456433489919,0.29016625881195
437,3508425610,0.530480,-0.058343,0.351637,0.769116,-4.49696016311646,4.63034486770630,7.22023630142212,1.38551890850067,0.00303510460071,0.36624878644943
438,3508442277,0.530462,-0.058353,0.351658,0.769118,-4.48028564453125,4.62243461608887,7.20037603378296,1.48761129379272,-0.05614944547415,0.33601301908493
439,3508458944,0.530435,-0.058367,0.351667,0.769131,-4.49598312377930,4.63539886474609,7.20337629318237,1.42346417903900,-0.10791270434856,0.32471781969070
440,3508475611,0.530441,-0.058361,0.351659,0.769131,-4.48915576934814,4.60253715515137,7.19845724105835,1.34345018863678,-0.23523345589638,0.32635703682899
441,3508492278,0.530445,-0.058355,0.351667,0.769125,-4.47966480255127,4.62550306320190,7.21775293350220,1.46660876274109,-0.19563618302345,0.28118902444839
442,3508508945,0.530471,-0.058346,0.351657,0.769112,-4.49542808532715,4.62632226943970,7.21802091598511,1.33800745010376,-0.25838732719421,0.25748443603516
443,3508525612,0.530431,-0.058350,0.351662,0.769137,-4.50727748870850,4.61281681060791,7.21322870254517,1.47922289371490,-0.21302720904350,0.35269966721535
444,3508542279,0.530420,-0.058368,0.351678,0.769136,-4.48785114288330,4.62338972091675,7.21281099319458,1.45765709877014,-0.05937663465738,0.23669975996017
445,3508558946,0.530415,-0.058383,0.351681,0.769137,-4.49077129364014,4.64903306961060,7.19922161102295,1.42683231830597,-0.17038208246231,0.16965854167938
446,3508575613,0.530406,-0.058413,0.351631,0.769164,-4.47818088531494,4.60087776184082,7.21637201309204,1.01043391227722,-0.27200049161911,0.24878898262978
447,3508592280,0.530440,-0.058409,0.351643,0.769135,-4.48826742172241,4.60614490509033,7.19337606430054,1.52658081054688,-0.21060684323311,0.06570937484503
448,3508608947,0.530475,-0.058403,0.351626,0.769119,-4.50052690505981,4.64096069335938,7.19165611267090,1.34733033180237,-0.32951378822327,0.11121033877134
449,3508625614,0.530508,-0.058362,0.351555,0.769132,-4.50212574005127,4.61730861663818,7.20473194122314,1.27729249000549,-0.88123691082001,0.03309160843492
450,3508642281,0.530568,-0.058278,0.351440,0.769150,-4.50737142562866,4.59962320327759,7.23455047607422,1.13297784328461,-1.27563416957855,0.09606042504311
451,3508658948,0.530675,-0.058115,0.351352,0.769128,-4.48870897293091,4.61944007873535,7.21610450744629,1.73962748050690,-1.74634444713593,-0.17885990440845
452,3508675615,0.530693,-0.058002,0.351352,0.769125,-4.47350358963013,4.63921642303467,7.17069149017334,1.93678128719330,-0.95734512805939,0.27344119548798
453,3508692282,0.530798,-0.057919,0.351148,0.769152,-4.48088693618774,4.68406581878662,7.21220016479492,0.52336990833282,-1.56435322761536,0.07572394609451
454,3508708949,0.530841,-0.057882,0.351021,0.769183,-4.47193288803101,4.56914567947388,7.19718885421753,0.85824322700500,-1.03241598606110,0.12452895939350
455,3508725616,0.530920,-0.057758,0.351044,0.769127,-4.48936891555786,4.62579345703125,7.21745014190674,1.81789970397949,-0.59696155786514,0.50317430496216
456,3508742283,0.530929,-0.057736,0.351028,0.769130,-4.46306037902832,4.62109899520874,7.20691299438477,1.32703232765198,-0.33375269174576,0.38682860136032
457,3508758950,0.530978,-0.057729,0.351023,0.769098,-4.47922277450562,4.63991785049438,7.24038982391357,1.36838412284851,-0.22424559295177,0.14340551197529
458,3508775617,0.530993,-0.057727,0.351001,0.769098,-4.48583745956421,4.58928012847900,7.22336053848267,1.26451170444489,-0.29404017329216,0.25547385215759
459,3508792284,0.530978,-0.057724,0.351046,0.769088,-4.46411180496216,4.61646652221680,7.20029926300049,1.75751793384552,-0.10230353474617,0.20862825214863
460,3508808951,0.530964,-0.057738,0.351065,0.769089,-4.46861696243286,4.62205171585083,7.20389318466187,1.45946300029755,-0.04660871252418,0.29683840274811
461,3508825618,0.530963,-0.057752,0.351082,0.769080,-4.46726608276367,4.66172266006470,7.20840501785278,1.42021143436432,-0.01518192794174,0.30781343579292
462,3508842285,0.530914,-0.057805,0.351057,0.769122,-4.46595525741577,4.59318447113037,7.22165060043335,1.14087939262390,-0.10344328731298,0.25295105576515
463,3508858952,0.530949,-0.057819,0.351093,0.769080,-4.47053003311157,4.62762308120728,7.23298311233521,1.60172855854034,-0.00506491120905,0.01787766441703
464,3508875619,0.530971,-0.057825,0.351099,0.769061,-4.49178886413574,4.60640001296997,7.22206783294678,1.41913568973541,-0.14829112589359,0.15572522580624
465,3508892286,0.530949,-0.057824,0.351138,0.769059,-4.49094438552856,4.63095903396606,7.21644353866577,1.66213607788086,-0.06214280799031,0.32447442412376
466,3508908953,0.530945,-0.057821,0.351160,0.769052,-4.47507572174072,4.63860893249512,7.19681358337402,1.47945368289948,-0.05718676000834,0.39903303980827
467,3508925620,0.530918,-0.057846,0.351174,0.769062,-4.47596502304077,4.61199522018433,7.20165491104126,1.36025202274323,0.02691894583404,0.38664931058884
468,3508942287,0.530890,-0.057871,0.351185,0.769075,-4.47935819625854,4.60701417922974,7.20187759399414,1.39678871631622,-0.03294433653355,0.31011861562729
469,3508958954,0.530874,-0.057874,0.351214,0.769072,-4.46578693389893,4.60316705703735,7.21689414978027,1.56835532188416,-0.06525476276875,0.32483306527138
470,3508975621,0.530833,-0.057895,0.351246,0.769084,-4.48193645477295,4.61746740341187,7.20589637756348,1.65002131462097,-0.08674380183220,0.17607448995113
471,3508992288,0.530858,-0.057895,0.351275,0.769054,-4.48182725906372,4.64073801040649,7.19387531280518,1.57740938663483,-0.07943138480186,0.15706987679005
472,3509008955,0.530916,-0.057886,0.351245,0.769028,-4.49624156951904,4.61124181747437,7.22744083404541,1.23828423023224,-0.36176013946533,0.08867115527391
473,3509025622,0.530913,-0.057900,0.351245,0.769029,-4.46613597869873,4.61524629592896,7.22121763229370,1.41353929042816,-0.19100031256676,0.15308710932732
474,3509042289,0.530934,-0.057897,0.351256,0.769010,-4.48752927780151,4.63643741607666,7.21936893463135,1.53563523292542,-0.23073841631413,0.10502487421036
475,3509058956,0.530955,-0.057921,0.351240,0.769001,-4.49089479446411,4.61467599868774,7.20480680465698,1.24713349342346,-0.16328735649586,0.09209045767784
476,3509075623,0.530929,-0.057919,0.351248,0.769015,-4.47803306579590,4.61747789382935,7.20271682739258,1.44940996170044,-0.17089433968067,0.41195470094681
477,3509092290,0.530867,-0.057964,0.351253,0.769052,-4.47847366333008,4.64142799377441,7.20835638046265,1.38253509998322,-0.05165441334248,0.27032926678658
478,3509108957,0.530901,-0.057994,0.351241,0.769032,-4.47571897506714,4.60972881317139,7.20069837570190,1.14408087730408,-0.01021306309849,0.18917539715767
479,3509125624,0.530929,-0.058024,0.351229,0.769016,-4.48028993606567,4.61529636383057,7.22207307815552,1.19211769104004,-0.05947909504175,0.13652852177620
480,3509142291,0.530942,-0.058053,0.351225,0.769007,-4.47907400131226,4.61288213729858,7.22688245773315,1.28185153007507,-0.06675309687853,0.14235538244247
481,3509158958,0.530943,-0.058097,0.351221,0.769005,-4.47448301315308,4.61054325103760,7.22437524795532,1.24101221561432,-0.00487281661481,0.12751282751560
482,3509175625,0.530907,-0.058129,0.351230,0.769023,-4.49533414840698,4.62701368331909,7.22472429275513,1.43929278850555,-0.09301891922951,0.20034252107143
483,3509192292,0.530900,-0.058182,0.351216,0.769030,-4.49007844924927,4.62250852584839,7.18333864212036,1.15208470821381,-0.00030094920658,0.14722177386284
484,3509208959,0.530877,-0.058209,0.351221,0.769042,-4.49599361419678,4.61316776275635,7.21539688110352,1.29372310638428,0.01123116910458,0.38210305571556
485,3509225626,0.530852,-0.058254,0.351218,0.769057,-4.48390150070190,4.60742568969727,7.20729064941406,1.31300938129425,-0.06092621386051,0.14533926546574
486,3509242293,0.530843,-0.058262,0.351233,0.769055,-4.48159933090210,4.61152648925781,7.20098257064819,1.45521116256714,-0.08153162896633,0.30509847402573
487,3509258960,0.530821,-0.058300,0.351237,0.769066,-4.47960996627808,4.63205385208130,7.19854307174683,1.33525407314301,-0.02440249919891,0.21220122277737
488,3509275627,0.530819,-0.058325,0.351239,0.769065,-4.49085474014282,4.60260152816772,7.20369052886963,1.29417133331299,-0.03299555927515,0.27387660741806
489,3509292294,0.530791,-0.058351,0.351219,0.769091,-4.49036550521851,4.60694456100464,7.21427202224731,1.24811959266663,-0.20365297794342,0.26068606972694
490,3509308961,0.530801,-0.058357,0.351221,0.769082,-4.48634290695190,4.58803796768188,7.19808244705200,1.35351586341858,-0.11519952118397,0.28558158874512
491,3509325628,0.530837,-0.058368,0.351238,0.769049,-4.48339843750000,4.63284873962402,7.21157646179199,1.45040893554688,-0.05584209412336,0.10884117335081
492,3509342295,0.530855,-0.058381,0.351229,0.769040,-4.49792671203613,4.61076974868774,7.20443248748779,1.28500187397003,-0.15575723350048,0.20135425031185
493,3509358962,0.530850,-0.058385,0.351245,0.769036,-4.48603057861328,4.61934661865234,7.21501255035400,1.49804842472076,-0.12783940136433,0.25247719883919
494,3509375629,0.530846,-0.058401,0.351223,0.769047,-4.49965000152588,4.60927820205688,7.19919443130493,1.26033699512482,-0.25687620043755,0.19962538778782
495,3509392296,0.530829,-0.058407,0.351215,0.769063,-4.49152040481567,4.62235927581787,7.22078561782837,1.36130213737488,-0.23782032728195,0.29866969585419
496,3509408963,0.530824,-0.058436,0.351226,0.769059,-4.49466323852539,4.62286043167114,7.21179056167603,1.43504106998444,-0.06416620314121,0.11925271898508
497,3509425630,0.530804,-0.058462,0.351231,0.769069,-4.49617147445679,4.61608600616455,7.20273876190186,1.37097108364105,-0.07357888668776,0.25569161772728
498,3509442297,0.530784,-0.058488,0.351242,0.769075,-4.49205493927002,4.62883853912354,7.20811033248901,1.41118288040161,-0.04522562026978,0.23353657126427
499,3509458964,0.530768,-0.058523,0.351211,0.769098,-4.48460674285889,4.59415388107300,7.19250345230103,1.11776375770569,-0.17314824461937,0.24901947379112
500,3509475631,0.530766,-0.058546,0.351207,0.769099,-4.47402477264404,4.61965322494507,7.22426271438599,1.35947096347809,-0.16724453866482,0.12509243190289
501,3509492298,0.530766,-0.058588,0.351170,0.769113,-4.50252199172974,4.60326862335205,7.20927143096924,1.08970499038696,-0.19181990623474,0.10934060811996
502,3509508965,0.530739,-0.058599,0.351203,0.769116,-4.48749446868896,4.61767005920410,7.21572113037109,1.59141933917999,-0.02820598334074,0.30621260404587
503,3509525632,0.530739,-0.058647,0.351169,0.769127,-4.51208305358887,4.63895034790039,7.20639753341675,1.08866775035858,-0.14332224428654,0.08308758586645
504,3509542299,0.530717,-0.058700,0.351161,0.769142,-4.48413753509521,4.59618949890137,7.21139049530029,1.19330859184265,0.02202692069113,0.20814161002636
505,3509558966,0.530694,-0.058742,0.351167,0.769152,-4.50333499908447,4.62086248397827,7.22256040573120,1.31227946281433,0.02038770727813,0.23449707031250
506,3509575633,0.530663,-0.058746,0.351160,0.769177,-4.49884939193726,4.58459949493408,7.21380949020386,1.34762501716614,-0.21273270249367,0.41045629978180
507,3509592300,0.530645,-0.058761,0.351165,0.769185,-4.49141216278076,4.61564826965332,7.22470474243164,1.41877710819244,-0.13330769538879,0.25881630182266
508,3509608967,0.530668,-0.058790,0.351123,0.769186,-4.48800945281982,4.60088634490967,7.23727798461914,1.04714953899384,-0.22883026301861,0.13426175713539
509,3509625634,0.530667,-0.058801,0.351142,0.769178,-4.51272916793823,4.62369871139526,7.21300268173218,1.52115106582642,-0.10962875187397,0.17283448576927
510,3509642301,0.530639,-0.058826,0.351132,0.769200,-4.51537990570068,4.61401224136353,7.18886661529541,1.26380741596222,-0.11957930028439,0.33506530523300
511,3509658968,0.530595,-0.058846,0.351151,0.769220,-4.48748540878296,4.61747694015503,7.18355941772461,1.43418312072754,0.00245881895535,0.43256005644798
512,3509675635,0.530547,-0.058884,0.351128,0.769260,-4.47146654129028,4.60178804397583,7.21050691604614,1.09340608119965,-0.05344730615616,0.47357887029648
513,3509692302,0.530516,-0.058905,0.351145,0.769273,-4.46978425979614,4.59337234497070,7.21437597274780,1.44076561927795,-0.03705517575145,0.34090504050255
514,3509708969,0.530528,-0.058950,0.351147,0.769260,-4.47421836853027,4.59401178359985,7.20252227783203,1.35415625572205,-0.05118057876825,-0.05339607223868
515,3509725636,0.530525,-0.058974,0.351182,0.769244,-4.50520038604736,4.61016845703125,7.21750164031982,1.60673582553864,-0.00438617495820,0.08417614549398
516,3509742303,0.530505,-0.059022,0.351181,0.769255,-4.49959707260132,4.62216663360596,7.20044326782227,1.25664865970612,0.02356368489563,0.20373620092869
517,3509758970,0.530461,-0.059044,0.351192,0.769279,-4.50265407562256,4.62975740432739,7.20159053802490,1.37287914752960,-0.02518368698657,0.44244661927223
518,3509775637,0.530432,-0.059091,0.351198,0.769292,-4.51481771469116,4.64941120147705,7.20562696456909,1.28938174247742,0.06035632640123,0.25740763545036
519,3509792304,0.530394,-0.059121,0.351173,0.769327,-4.49699497222900,4.57707023620605,7.21597528457642,1.12945604324341,-0.12553425133228,0.41746142506599
520,3509808971,0.530361,-0.059132,0.351210,0.769332,-4.47723579406738,4.57444286346436,7.18757963180542,1.59996128082275,-0.00179929216392,0.35134220123291
521,3509825638,0.530311,-0.059159,0.351225,0.769358,-4.49580764770508,4.61111640930176,7.20805835723877,1.46125555038452,-0.05912050977349,0.32401341199875
522,3509842305,0.530342,-0.059155,0.351229,0.769335,-4.50036144256592,4.60716056823730,7.19396495819092,1.36099481582642,-0.12383099645376,0.27541333436966
523,3509858972,0.530388,-0.059188,0.351194,0.769317,-4.49913167953491,4.59193420410156,7.22937250137329,1.07583594322205,-0.17709261178970,0.01721173711121
524,3509875639,0.530393,-0.059231,0.351173,0.769320,-4.51515054702759,4.59611368179321,7.20917654037476,1.19854640960693,-0.13355103135109,0.04083945229650
525,3509892306,0.530384,-0.059250,0.351181,0.769321,-4.50894117355347,4.62377929687500,7.21988248825073,1.43710279464722,-0.12189724296331,0.18240082263947
526,3509908973,0.530369,-0.059281,0.351160,0.769339,-4.52279758453369,4.62776327133179,7.20533323287964,1.19859743118286,-0.15804956853390,0.23354941606522
527,3509925640,0.530341,-0.059293,0.351148,0.769362,-4.51435375213623,4.61735630035400,7.19770240783691,1.30270028114319,-0.19504712522030,0.36705562472343
528,3509942307,0.530288,-0.059322,0.351121,0.769409,-4.48502969741821,4.60395622253418,7.20693874359131,1.08310985565186,-0.10935982316732,0.53762340545654
529,3509958974,0.530255,-0.059356,0.351097,0.769440,-4.48895406723022,4.60117197036743,7.21685361862183,1.13548791408539,-0.11078133434057,0.36898937821388
530,3509975641,0.530246,-0.059386,0.351059,0.769461,-4.49077606201172,4.57150697708130,7.21505737304688,1.10174298286438,-0.24391610920429,0.20696340501308
531,3509992308,0.530238,-0.059409,0.351067,0.769461,-4.50189113616943,4.60429525375366,7.20227146148682,1.42681932449341,-0.10408360511065,0.15808157622814
532,3510008975,0.530232,-0.059457,0.351023,0.769481,-4.50760364532471,4.61470365524292,7.23389768600464,1.01149666309357,-0.17305861413479,0.14510875940323
533,3510025642,0.530231,-0.059487,0.351013,0.769484,-4.50310516357422,4.59281635284424,7.22771692276001,1.30532562732697,-0.15016086399555,0.11063406616449
534,3510042309,0.530205,-0.059522,0.350997,0.769507,-4.52483320236206,4.63568449020386,7.21945476531982,1.22843635082245,-0.13289788365364,0.24584351480007
535,3510058976,0.530174,-0.059534,0.350969,0.769540,-4.49981498718262,4.58884906768799,7.21813726425171,1.17773604393005,-0.24049685895443,0.42892310023308
536,3510075643,0.530159,-0.059530,0.350971,0.769550,-4.49098920822144,4.60155248641968,7.20953893661499,1.38104951381683,-0.15888196229935,0.44344544410706
537,3510092310,0.530133,-0.059557,0.350941,0.769580,-4.49059534072876,4.59467077255249,7.21256828308105,1.16422533988953,-0.23303076624870,0.28159883618355
538,3510108977,0.530129,-0.059562,0.350941,0.769582,-4.50226593017578,4.61131954193115,7.21400880813599,1.33324360847473,-0.12007874250412,0.36677387356758
539,3510125644,0.530112,-0.059579,0.350924,0.769600,-4.51454401016235,4.61270666122437,7.22832441329956,1.23491644859314,-0.17045892775059,0.34513115882874
540,3510142311,0.530088,-0.059603,0.350915,0.769619,-4.50659036636353,4.58977365493774,7.21817970275879,1.27793276309967,-0.12673804163933,0.30320313572884
541,3510158978,0.530068,-0.059621,0.350904,0.769636,-4.49998760223389,4.59860849380493,7.20910692214966,1.30038237571716,-0.18040944635868,0.29473811388016
542,3510175645,0.530043,-0.059635,0.350879,0.769664,-4.51276826858521,4.60119438171387,7.22417211532593,1.20918846130371,-0.24120119214058,0.35428771376610
543,3510192312,0.530018,-0.059658,0.350852,0.769691,-4.49419736862183,4.59531259536743,7.22361946105957,1.16599261760712,-0.19836397469044,0.33867675065994
544,3510208979,0.530001,-0.059666,0.350841,0.769708,-4.50186967849731,4.57521247863770,7.20395088195801,1.33971059322357,-0.23835818469524,0.29811903834343
545,3510225646,0.529980,-0.059667,0.350820,0.769731,-4.50408935546875,4.60697269439697,7.22340631484985,1.29304432868958,-0.30402913689613,0.35583725571632
546,3510242313,0.529957,-0.059685,0.350807,0.769751,-4.50466442108154,4.60453796386719,7.19489479064941,1.28058373928070,-0.18083205819130,0.31753346323967
547,3510258980,0.529937,-0.059714,0.350792,0.769770,-4.51137495040894,4.60194540023804,7.23231458663940,1.23056221008301,-0.13356383144855,0.26454079151154
548,3510275647,0.529928,-0.059754,0.350747,0.769794,-4.51285028457642,4.61259889602661,7.24413108825684,1.02523791790009,-0.21127274632454,0.19345270097256
549,3510292314,0.529923,-0.059783,0.350701,0.769816,-4.49595928192139,4.57123613357544,7.21700525283813,1.06826734542847,-0.29019832611084,0.18941871821880
550,3510308981,0.529910,-0.059790,0.350677,0.769835,-4.50658655166626,4.59196710586548,7.21508646011353,1.26485741138458,-0.29275953769684,0.28486442565918
551,3510325648,0.529898,-0.059793,0.350639,0.769860,-4.49668598175049,4.58936786651611,7.20976638793945,1.19688153266907,-0.38013726472855,0.29866969585419
552,3510342315,0.529895,-0.059811,0.350589,0.769884,-4.49699020385742,4.58292627334595,7.23058271408081,1.08258461952209,-0.36005690693855,0.21276469528675
553,3510358982,0.529880,-0.059803,0.350570,0.769904,-4.50709581375122,4.58784532546997,7.22141504287720,1.34393680095673,-0.36389884352684,0.33671736717224
554,3510375649,0.529862,-0.059816,0.350575,0.769913,-4.49742984771729,4.61087846755981,7.21581697463989,1.42236280441284,-0.14594756066799,0.26623117923737
555,3510392316,0.529845,-0.059865,0.350535,0.769939,-4.49776601791382,4.60062074661255,7.20343399047852,1.00838470458984,-0.12854373455048,0.22347079217434
556,3510408983,0.529799,-0.059882,0.350544,0.769965,-4.50551080703735,4.58252716064453,7.19854640960693,1.37476158142090,-0.05069393292069,0.47138893604279
557,3510425650,0.529755,-0.059901,0.350519,0.770005,-4.49309968948364,4.61306810379028,7.21547508239746,1.16079330444336,-0.17564550042152,0.49381285905838
558,3510442317,0.529724,-0.059896,0.350489,0.770041,-4.50278854370117,4.60178661346436,7.22545671463013,1.22738623619080,-0.34850558638573,0.46839222311974
559,3510458984,0.529693,-0.059866,0.350463,0.770076,-4.50794792175293,4.58289575576782,7.24359178543091,1.34911072254181,-0.46780958771706,0.51946401596069
560,3510475651,0.529678,-0.059856,0.350458,0.770090,-4.50856542587280,4.58207511901855,7.22150087356567,1.44048380851746,-0.31376194953918,0.32343715429306
561,3510492318,0.529655,-0.059842,0.350465,0.770103,-4.48824405670166,4.58370065689087,7.21712112426758,1.51642549037933,-0.26922148466110,0.38210305571556
562,3510508985,0.529649,-0.059844,0.350472,0.770104,-4.46948623657227,4.58199167251587,7.19930076599121,1.50072491168976,-0.22683247923851,0.20170001685619
563,3510525652,0.529645,-0.059883,0.350458,0.770110,-4.48324871063232,4.58835744857788,7.21995735168457,1.24067926406860,-0.10973121225834,0.11740861833096
564,3510542319,0.529646,-0.059934,0.350443,0.770113,-4.48547267913818,4.59735012054443,7.23314905166626,1.19724011421204,-0.06399973481894,0.04660231247544
565,3510558986,0.529665,-0.059988,0.350419,0.770106,-4.50084733963013,4.58737230300903,7.23118495941162,1.17034661769867,-0.11896456778049,-0.09360800683498
566,3510575653,0.529700,-0.060021,0.350395,0.770090,-4.52532768249512,4.59599304199219,7.23381519317627,1.28171062469482,-0.26073086261749,-0.16304405033588
567,3510592320,0.529693,-0.060014,0.350407,0.770090,-4.52375698089600,4.59203433990479,7.23156642913818,1.55405056476593,-0.24891060590744,0.23211508989334
568,3510608987,0.529665,-0.060004,0.350443,0.770093,-4.51577234268188,4.62980890274048,7.23739528656006,1.68024444580078,-0.12936334311962,0.36521148681641
569,3510625654,0.529618,-0.060002,0.350432,0.770131,-4.47155380249023,4.58475732803345,7.18941974639893,1.30791234970093,-0.22762648761272,0.56021380424500
570,3510642321,0.529574,-0.060009,0.350460,0.770148,-4.47574424743652,4.56545400619507,7.20614576339722,1.53824746608734,-0.03586417809129,0.46291115880013
571,3510658988,0.529540,-0.060045,0.350459,0.770169,-4.48888492584229,4.58223342895508,7.22398519515991,1.26909649372101,-0.01262065768242,0.34003418684006
572,3510675655,0.529518,-0.060040,0.350506,0.770163,-4.51331043243408,4.58235263824463,7.23626470565796,1.74736249446869,-0.07383501529694,0.29559621214867
573,3510692322,0.529500,-0.060052,0.350525,0.770166,-4.51706027984619,4.59003639221191,7.24503850936890,1.50697433948517,-0.09809023886919,0.25637030601501
574,3510708989,0.529496,-0.060052,0.350565,0.770150,-4.50269222259521,4.58344364166260,7.22925376892090,1.72445189952850,-0.10884758830070,0.14928363263607
575,3510725656,0.529480,-0.060092,0.350578,0.770152,-4.49688959121704,4.57955455780029,7.19692468643188,1.38531398773193,0.01792888902128,0.17286011576653
576,3510742323,0.529521,-0.060100,0.350607,0.770111,-4.50987768173218,4.57785224914551,7.18457078933716,1.54799318313599,-0.03565927967429,0.06567095220089
577,3510758990,0.529539,-0.060114,0.350627,0.770088,-4.50397205352783,4.61710023880005,7.21119832992554,1.49834275245667,-0.07046692818403,0.10425648093224
578,3510775657,0.529520,-0.060153,0.350632,0.770096,-4.51095676422119,4.58859157562256,7.20604133605957,1.35913801193237,-0.03574892506003,0.16434389352798
579,3510792324,0.529465,-0.060175,0.350658,0.770120,-4.51731872558594,4.60185146331787,7.23370218276978,1.51542651653290,-0.00628151465207,0.39937883615494
580,3510808991,0.529451,-0.060212,0.350672,0.770121,-4.49142694473267,4.57928895950317,7.20648479461670,1.40247476100922,0.00826009642333,0.16394689679146
581,3510825658,0.529436,-0.060243,0.350687,0.770122,-4.50006246566772,4.57939720153809,7.21941041946411,1.49890649318695,-0.09404342621565,0.08176854252815
582,3510842325,0.529450,-0.060225,0.350702,0.770106,-4.50744724273682,4.58936214447021,7.23596715927124,1.65584814548492,-0.33577609062195,0.09273077547550
583,3510858992,0.529531,-0.060112,0.350749,0.770038,-4.48782968521118,4.58555746078491,7.22569608688354,2.02698898315430,-0.56337052583694,0.26434865593910
584,3510875659,0.529588,-0.060106,0.350729,0.770009,-4.49929237365723,4.63059282302856,7.18352699279785,1.37759184837341,-0.40116533637047,-0.06511387974024
585,3510892326,0.529601,-0.060151,0.350701,0.770009,-4.51066017150879,4.58811998367310,7.20176887512207,1.08784818649292,-0.08172371983528,0.10935341566801
586,3510908993,0.529614,-0.060139,0.350753,0.769977,-4.52036380767822,4.57492923736572,7.21996355056763,1.72422134876251,-0.01702604070306,0.27253195643425
587,3510925660,0.529585,-0.060145,0.350780,0.769984,-4.50824642181396,4.59849023818970,7.21506166458130,1.55520319938660,-0.07031325995922,0.36325210332870
588,3510942327,0.529549,-0.060168,0.350825,0.769987,-4.49984121322632,4.60812187194824,7.20784711837769,1.67848992347717,0.02397348918021,0.21755430102348
589,3510958994,0.529533,-0.060209,0.350805,0.770004,-4.52041959762573,4.60242080688477,7.23941373825073,1.17042362689972,-0.09922999888659,0.20412041246891
590,3510975661,0.529529,-0.060188,0.350827,0.769998,-4.50388097763062,4.58877754211426,7.22216463088989,1.57529604434967,-0.19074416160583,0.39367994666100
591,3510992328,0.529528,-0.060175,0.350852,0.769988,-4.50627946853638,4.58609437942505,7.20440530776978,1.60463583469391,-0.16694998741150,0.29997593164444
592,3511008995,0.529485,-0.060188,0.350890,0.770000,-4.49687290191650,4.59501981735229,7.19841575622559,1.71710109710693,-0.11093501001596,0.20948626101017
593,3511025662,0.529453,-0.060230,0.350894,0.770017,-4.49813652038574,4.60740947723389,7.23963785171509,1.42313134670258,-0.11144725233316,0.07072947174311
594,3511042329,0.529446,-0.060262,0.350900,0.770016,-4.52071285247803,4.57679128646851,7.21483325958252,1.39155089855194,-0.07275927066803,0.12300498783588
595,3511058996,0.529448,-0.060270,0.350936,0.769998,-4.49982976913452,4.60673761367798,7.22497558593750,1.64849734306335,-0.06593349575996,0.13789877295494
596,3511075663,0.529452,-0.060271,0.350951,0.769988,-4.51286983489990,4.60951852798462,7.19656991958618,1.52810502052307,-0.16778239607811,0.19273556768894
597,3511092330,0.529481,-0.060270,0.350940,0.769973,-4.50811433792114,4.59453868865967,7.22759914398193,1.34569120407104,-0.27000269293785,0.15279255807400
598,3511108997,0.529471,-0.060252,0.350983,0.769962,-4.51955890655518,4.58267593383789,7.20946884155273,1.75430333614349,-0.14442360401154,0.30424043536186
599,3511125664,0.529457,-0.060233,0.351048,0.769944,-4.50143527984619,4.63900232315063,7.21224117279053,1.84260320663452,-0.01988185755908,0.37431678175926
600,3511142331,0.529413,-0.060263,0.351030,0.769979,-4.51628589630127,4.61376619338989,7.19845247268677,1.18586814403534,-0.10558196157217,0.41765350103378
601,3511158998,0.529364,-0.060264,0.351069,0.769995,-4.51670932769775,4.57940959930420,7.22736883163452,1.65285158157349,-0.05657205730677,0.44374004006386
602,3511175665,0.529351,-0.060253,0.351092,0.769994,-4.51643896102905,4.61486721038818,7.21974039077759,1.56214416027069,-0.15000717341900,0.38161638379097
603,3511192332,0.529378,-0.060227,0.351083,0.769982,-4.51477861404419,4.59994935989380,7.21495437622070,1.37107336521149,-0.30410599708557,0.35094520449638
604,3511208999,0.529373,-0.060248,0.351085,0.769983,-4.50196123123169,4.60881805419922,7.21653604507446,1.46092271804810,-0.20658563077450,0.05764137580991
605,3511225666,0.529372,-0.060271,0.351077,0.769985,-4.52104377746582,4.60012722015381,7.20131206512451,1.34161877632141,-0.18026858568192,0.11918869614601
606,3511242333,0.529361,-0.060267,0.351105,0.769981,-4.50623416900635,4.60429382324219,7.19437170028687,1.70095872879028,-0.23495811223984,0.13027259707451
607,3511259000,0.529381,-0.060267,0.351098,0.769970,-4.51306486129761,4.60291242599487,7.20230484008789,1.36411964893341,-0.22811308503151,0.19363200664520
608,3511275667,0.529363,-0.060295,0.351096,0.769981,-4.50894832611084,4.60195541381836,7.22046184539795,1.38391816616058,-0.15684576332569,0.15183208882809
609,3511292334,0.529394,-0.060316,0.351095,0.769959,-4.50468635559082,4.61471939086914,7.22748756408691,1.34718978404999,-0.12655876576900,0.04605163633823
610,3511309001,0.529434,-0.060321,0.351085,0.769935,-4.50642967224121,4.57725191116333,7.22244119644165,1.34143960475922,-0.22794662415981,0.07110085338354
611,3511325668,0.529484,-0.060327,0.351094,0.769896,-4.49979257583618,4.59501981735229,7.20849704742432,1.45962929725647,-0.16089256107807,0.00067873648368
612,3511342335,0.529490,-0.060341,0.351104,0.769887,-4.52808380126953,4.61028289794922,7.18936347961426,1.49872732162476,-0.17066383361816,0.07828522473574
613,3511359002,0.529446,-0.060350,0.351100,0.769918,-4.50137424468994,4.60774326324463,7.21399164199829,1.45147156715393,-0.28224551677704,0.28615784645081
614,3511375669,0.529439,-0.060325,0.351100,0.769925,-4.50980377197266,4.62022924423218,7.22416019439697,1.47602128982544,-0.32518520951271,0.39663824439049
615,3511392336,0.529409,-0.060303,0.351104,0.769945,-4.50103473663330,4.61393070220947,7.21545028686523,1.52878344058990,-0.32763120532036,0.43696537613869
616,3511409003,0.529446,-0.060284,0.351103,0.769922,-4.49101877212524,4.59317398071289,7.21880006790161,1.35267078876495,-0.19723698496819,0.33752414584160
617,3511425670,0.529452,-0.060269,0.351118,0.769912,-4.51886987686157,4.59281015396118,7.21053504943848,1.53791439533234,-0.20539462566376,0.30605891346931
618,3511442337,0.529424,-0.060249,0.351143,0.769921,-4.50345897674561,4.59083509445190,7.23160076141357,1.63886713981628,-0.22925287485123,0.41652655601501
619,3511459004,0.529393,-0.060262,0.351152,0.769937,-4.50435304641724,4.60798025131226,7.21506452560425,1.43081510066986,-0.10458306223154,0.35474872589111
620,3511475671,0.529407,-0.060272,0.351150,0.769929,-4.52012205123901,4.57700872421265,7.21670150756836,1.35007095336914,-0.16054680943489,0.20053462684155
621,3511492338,0.529427,-0.060272,0.351176,0.769903,-4.50785684585571,4.61030960083008,7.21874237060547,1.52139437198639,-0.05023290961981,0.24399939179420
622,3511509005,0.529472,-0.060295,0.351162,0.769876,-4.52123355865479,4.60002946853638,7.19436979293823,1.16854095458984,-0.07155548036098,0.13675899803638
623,3511525672,0.529431,-0.060322,0.351164,0.769901,-4.50445747375488,4.58752775192261,7.17871141433716,1.33510041236877,-0.06342344731092,0.37050053477287
624,3511542339,0.529370,-0.060345,0.351174,0.769937,-4.49879312515259,4.60430383682251,7.21945571899414,1.38120329380035,-0.03154844418168,0.48958680033684
625,3511559006,0.529403,-0.060359,0.351170,0.769915,-4.49771308898926,4.61651515960693,7.21734571456909,1.22287833690643,-0.03568489477038,0.27832043170929
626,3511575673,0.529372,-0.060391,0.351158,0.769939,-4.51111412048340,4.55753803253174,7.20257997512817,1.22680985927582,-0.09504232555628,0.32735589146614
627,3511592340,0.529345,-0.060409,0.351187,0.769943,-4.50885295867920,4.59308624267578,7.22485256195068,1.60537838935852,-0.07069744914770,0.19319657981396
628,3511609007,0.529358,-0.060415,0.351185,0.769934,-4.52493000030518,4.61112594604492,7.20598697662354,1.38047325611115,-0.19260111451149,0.19059690833092
629,3511625674,0.529327,-0.060403,0.351206,0.769947,-4.51225566864014,4.59571313858032,7.22555780410767,1.58998525142670,-0.20288461446762,0.39919957518578
630,3511642341,0.529343,-0.060399,0.351196,0.769941,-4.51264333724976,4.61351728439331,7.21472024917603,1.29506766796112,-0.20273090898991,0.32829076051712
631,3511659008,0.529338,-0.060404,0.351186,0.769949,-4.50517320632935,4.57915067672729,7.19797086715698,1.34074783325195,-0.23242880403996,0.28243124485016
632,3511675675,0.529345,-0.060397,0.351186,0.769944,-4.50175285339355,4.58807945251465,7.17216157913208,1.44515800476074,-0.25825920701027,0.23842859268188
633,3511692342,0.529324,-0.060405,0.351212,0.769947,-4.48789024353027,4.59612417221069,7.18759393692017,1.56227231025696,-0.09109797328711,0.27894791960716
634,3511709009,0.529387,-0.060401,0.351190,0.769913,-4.51336526870728,4.60046482086182,7.21576070785522,1.22079098224640,-0.24291725456715,0.13981974124908
635,3511725676,0.529367,-0.060425,0.351187,0.769927,-4.52408552169800,4.58221960067749,7.21111869812012,1.34398794174194,-0.13440905511379,0.23845423758030
636,3511742343,0.529348,-0.060415,0.351204,0.769933,-4.51656198501587,4.60463857650757,7.20611143112183,1.56635749340057,-0.21318091452122,0.33848464488983
637,3511759010,0.529311,-0.060435,0.351199,0.769959,-4.50773620605469,4.60958290100098,7.20478868484497,1.36175036430359,-0.18242006003857,0.30253723263741
638,3511775677,0.529260,-0.060433,0.351205,0.769992,-4.52448701858521,4.61129617691040,7.19828462600708,1.48296260833740,-0.22920164465904,0.44115316867828
639,3511792344,0.529241,-0.060439,0.351206,0.770004,-4.51044797897339,4.58938837051392,7.19474792480469,1.37363469600677,-0.14757396280766,0.37785133719444
640,3511809011,0.529241,-0.060414,0.351217,0.770001,-4.51442241668701,4.58236026763916,7.21358966827393,1.48279607295990,-0.21962247788906,0.46469122171402
641,3511825678,0.529220,-0.060411,0.351229,0.770009,-4.51611852645874,4.59616613388062,7.22215032577515,1.48868691921234,-0.16755186021328,0.36767029762268
642,3511842345,0.529235,-0.060400,0.351258,0.769987,-4.51395177841187,4.58630514144897,7.20155239105225,1.57624387741089,-0.10226511210203,0.28827095031738
643,3511859012,0.529246,-0.060401,0.351241,0.769987,-4.53417396545410,4.61415672302246,7.22795438766479,1.32532918453217,-0.29707533121109,0.19598838686943
644,3511875679,0.529226,-0.060385,0.351235,0.770005,-4.51714086532593,4.58040952682495,7.20399141311646,1.45831012725830,-0.35285973548889,0.36037066578865
645,3511892346,0.529191,-0.060370,0.351274,0.770012,-4.50882673263550,4.63505268096924,7.21522760391235,1.76032257080078,-0.18933549523354,0.33780589699745
646,3511909013,0.529182,-0.060402,0.351208,0.770046,-4.51013803482056,4.61344099044800,7.19993305206299,0.93340361118317,-0.34988868236542,0.22299697995186
647,3511925680,0.529132,-0.060407,0.351234,0.770068,-4.51256465911865,4.58021974563599,7.19123172760010,1.57199227809906,-0.10763096064329,0.41414454579353
648,3511942347,0.529104,-0.060406,0.351214,0.770097,-4.50126552581787,4.59980487823486,7.20174360275269,1.33795642852783,-0.34275558590889,0.34689843654633
649,3511959014,0.529075,-0.060389,0.351197,0.770126,-4.49991512298584,4.58805274963379,7.20531177520752,1.37892353534698,-0.38776981830597,0.43232950568199
650,3511975681,0.529117,-0.060374,0.351146,0.770122,-4.52183914184570,4.61923027038574,7.22218894958496,1.10126924514771,-0.45031607151031,0.24997994303703
651,3511992348,0.529169,-0.060361,0.351098,0.770109,-4.53980255126953,4.55770301818848,7.21520853042603,1.13992524147034,-0.45118051767349,0.14996877312660
652,3512009015,0.529159,-0.060328,0.351133,0.770102,-4.52511262893677,4.60329151153564,7.19941997528076,1.80067527294159,-0.31018897891045,0.26792165637016
653,3512025682,0.529157,-0.060325,0.351125,0.770107,-4.49840974807739,4.61362934112549,7.17862606048584,1.39999008178711,-0.28767544031143,0.24686798453331
654,3512042349,0.529195,-0.060309,0.351104,0.770092,-4.50278139114380,4.60552120208740,7.21900749206543,1.26882755756378,-0.31586223840714,0.27572074532509
655,3512059016,0.529205,-0.060306,0.351071,0.770100,-4.49459838867188,4.58014249801636,7.20309448242188,1.20256757736206,-0.34454843401909,0.28843742609024
656,3512075683,0.529201,-0.060284,0.351100,0.770092,-4.49114847183228,4.59826374053955,7.21330642700195,1.69857025146484,-0.24550414085388,0.26133918762207
657,3512092350,0.529196,-0.060319,0.351071,0.770105,-4.51655292510986,4.60732889175415,7.23385953903198,1.23282873630524,-0.26444470882416,0.02547183074057
658,3512109017,0.529196,-0.060314,0.351069,0.770107,-4.52610778808594,4.58961200714111,7.23104143142700,1.43483626842499,-0.27006670832634,0.25222104787827
659,3512125684,0.529182,-0.060303,0.351075,0.770114,-4.53152132034302,4.63344764709473,7.22736120223999,1.49319493770599,-0.25563398003578,0.35057386755943
660,3512142351,0.529142,-0.060308,0.351053,0.770151,-4.50840282440186,4.59711885452271,7.18385505676270,1.24432885646820,-0.25800314545631,0.46791839599609
661,3512159018,0.529131,-0.060286,0.351050,0.770162,-4.49753618240356,4.61582326889038,7.20483684539795,1.41765022277832,-0.28172048926353,0.47278484702110
662,3512175685,0.529143,-0.060288,0.351019,0.770168,-4.49693441390991,4.56044197082520,7.20380592346191,1.12797057628632,-0.24638776481152,0.37037244439125
663,3512192352,0.529110,-0.060272,0.351056,0.770175,-4.48704767227173,4.58509206771851,7.21445035934448,1.75354802608490,-0.20688018202782,0.33579531311989
664,3512209019,0.529096,-0.060284,0.351047,0.770188,-4.52508401870728,4.61525201797485,7.19967746734619,1.36050820350647,-0.22982917726040,0.23837742209435
665,3512225686,0.529084,-0.060288,0.351056,0.770192,-4.51918268203735,4.61508846282959,7.20955753326416,1.48344910144806,-0.18309879302979,0.25170883536339
666,3512242353,0.529066,-0.060296,0.351039,0.770211,-4.51514148712158,4.60223293304443,7.23382043838501,1.24941301345825,-0.20813520252705,0.39067053794861
667,3512259020,0.529024,-0.060279,0.351060,0.770232,-4.51095008850098,4.58398580551147,7.18974399566650,1.58980596065521,-0.21119593083858,0.49305728077888
668,3512275687,0.529011,-0.060257,0.351071,0.770237,-4.51542043685913,4.62786817550659,7.21060609817505,1.55873775482178,-0.29211923480034,0.36299601197243
669,3512292354,0.528967,-0.060227,0.351064,0.770273,-4.51249504089355,4.58550739288330,7.20033216476440,1.47230756282806,-0.40185683965683,0.56061071157455
670,3512309021,0.528915,-0.060229,0.351082,0.770301,-4.50068140029907,4.60611486434937,7.21036958694458,1.53165221214294,-0.14580669999123,0.44969496130943
671,3512325688,0.528878,-0.060235,0.351091,0.770321,-4.50609445571899,4.60188865661621,7.19767618179321,1.42560291290283,-0.11822182685137,0.44796612858772
672,3512342355,0.528893,-0.060236,0.351098,0.770308,-4.51331377029419,4.59767389297485,7.19016122817993,1.45868158340454,-0.18628756701946,0.18363025784492
673,3512359022,0.528905,-0.060250,0.351097,0.770299,-4.49954462051392,4.60305309295654,7.22263193130493,1.36577153205872,-0.15326002240181,0.15827368199825
674,3512375689,0.528912,-0.060247,0.351102,0.770292,-4.50493288040161,4.58748817443848,7.22131586074829,1.46457254886627,-0.21364191174507,0.22350922226906
675,3512392356,0.528932,-0.060245,0.351106,0.770277,-4.50762176513672,4.60949420928955,7.19474267959595,1.47471523284912,-0.24309651553631,0.13373671472073
676,3512409023,0.528968,-0.060234,0.351099,0.770256,-4.51086521148682,4.59401464462280,7.22311544418335,1.43584787845612,-0.33236959576607,0.08421455323696
677,3512425690,0.528977,-0.060240,0.351084,0.770256,-4.51195621490479,4.60861253738403,7.21435689926147,1.38003790378571,-0.32110002636909,0.10462787747383
678,3512442357,0.528980,-0.060219,0.351083,0.770256,-4.49766349792480,4.58606433868408,7.19447231292725,1.46567392349243,-0.31529873609543,0.33090329170227
679,3512459024,0.529038,-0.060164,0.351129,0.770200,-4.49312019348145,4.61193084716797,7.20717954635620,1.79090380668640,-0.23121222853661,0.26541158556938
680,3512475691,0.529048,-0.060173,0.351109,0.770201,-4.50649595260620,4.61274147033691,7.20056390762329,1.33133530616760,-0.31217396259308,0.09750754386187
681,3512492358,0.529048,-0.060167,0.351132,0.770191,-4.50263071060181,4.59954452514648,7.22700023651123,1.55922424793243,-0.13892967998981,0.28637558221817
682,3512509025,0.529060,-0.060177,0.351147,0.770176,-4.50102186203003,4.62709760665894,7.20526504516602,1.50328612327576,-0.13771308958530,0.11900940537453
683,3512525692,0.529037,-0.060194,0.351155,0.770186,-4.52182149887085,4.58034086227417,7.19587230682373,1.42692184448242,-0.11558370292187,0.27563107013702
684,3512542359,0.529023,-0.060210,0.351187,0.770180,-4.49471378326416,4.61330842971802,7.21409225463867,1.53703093528748,0.02586882561445,0.29038396477699
685,3512559026,0.529001,-0.060255,0.351179,0.770195,-4.50730991363525,4.60198640823364,7.19612407684326,1.19364166259766,0.00510973343626,0.27314665913582
686,3512575693,0.529030,-0.060256,0.351206,0.770163,-4.50897884368896,4.60001182556152,7.20558881759644,1.46554589271545,0.00838815979660,0.28777149319649
687,3512592360,0.529011,-0.060254,0.351256,0.770153,-4.50595283508301,4.61468124389648,7.21966743469238,1.68471384048462,0.03091453015804,0.38857027888298
688,3512609027,0.528960,-0.060264,0.351299,0.770168,-4.51141214370728,4.60715293884277,7.21795940399170,1.66917991638184,-0.01522034779191,0.38011810183525
689,3512625694,0.528947,-0.060268,0.351330,0.770163,-4.52319860458374,4.59564208984375,7.19888925552368,1.57530903816223,-0.04826073348522,0.31584301590919
690,3512642361,0.528922,-0.060280,0.351383,0.770155,-4.48927831649780,4.60013866424561,7.19965696334839,1.68172991275787,0.07403350621462,0.32097837328911
691,3512659028,0.528901,-0.060326,0.351392,0.770161,-4.51300764083862,4.61846065521240,7.18298578262329,1.26917326450348,0.11503943800926,0.29746586084366
692,3512675695,0.528818,-0.060382,0.351387,0.770216,-4.51151704788208,4.57142829895020,7.19652748107910,1.26713716983795,-0.01856280490756,0.35696423053741
693,3512692362,0.528792,-0.060371,0.351453,0.770205,-4.50990819931030,4.62047672271729,7.20460510253906,1.84394788742065,0.01235812716186,0.38668775558472
694,3512709029,0.528781,-0.060404,0.351456,0.770208,-4.52966594696045,4.62316036224365,7.19991254806519,1.30905222892761,-0.01528437808156,0.23894086480141
695,3512725696,0.528764,-0.060457,0.351461,0.770213,-4.51686906814575,4.60893154144287,7.20339345932007,1.25029671192169,0.09647023677826,0.20337764918804
696,3512742363,0.528712,-0.060494,0.351481,0.770237,-4.53798627853394,4.60945081710815,7.21350717544556,1.41914856433868,0.05700106546283,0.36046034097672
697,3512759030,0.528680,-0.060470,0.351481,0.770261,-4.50769090652466,4.59555768966675,7.20882558822632,1.46162712574005,-0.30846014618874,0.52745515108109
698,3512775697,0.528683,-0.060448,0.351476,0.770263,-4.50441932678223,4.61135959625244,7.19601249694824,1.42055702209473,-0.31774473190308,0.38262811303139
699,3512792364,0.528685,-0.060456,0.351429,0.770283,-4.51719808578491,4.58726835250854,7.19894599914551,1.14432418346405,-0.40345761179924,0.20613099634647
700,3512809031,0.528700,-0.060466,0.351415,0.770278,-4.53416013717651,4.61761856079102,7.20594024658203,1.33101511001587,-0.25805434584618,0.12007232755423
701,3512825698,0.528682,-0.060488,0.351401,0.770294,-4.51942014694214,4.60988378524780,7.19988775253296,1.26866114139557,-0.16972896456718,0.26749905943871
702,3512842365,0.528642,-0.060524,0.351382,0.770328,-4.51891326904297,4.62728404998779,7.21846675872803,1.17703163623810,-0.10459586232901,0.35346806049347
703,3512859032,0.528617,-0.060552,0.351347,0.770359,-4.50183820724487,4.57918024063110,7.20888996124268,1.04600977897644,-0.15954789519310,0.41775593161583
704,3512875699,0.528620,-0.060549,0.351320,0.770369,-4.50038146972656,4.60644531250000,7.22447729110718,1.28644907474518,-0.36322009563446,0.24184793233871
705,3512892366,0.528630,-0.060542,0.351215,0.770411,-4.49657440185547,4.59141206741333,7.23773431777954,0.89041274785995,-0.78421604633331,0.16201312839985
706,3512909033,0.528627,-0.060540,0.351175,0.770431,-4.50245523452759,4.57519149780273,7.19492292404175,1.30574822425842,-0.52112233638763,0.10730441659689
707,3512925700,0.528601,-0.060511,0.351144,0.770466,-4.52678918838501,4.62562608718872,7.19703292846680,1.35464286804199,-0.53296828269958,0.43117696046829
708,3512942367,0.528548,-0.060463,0.351124,0.770515,-4.49730730056763,4.63079357147217,7.21817541122437,1.42022418975830,-0.51211953163147,0.71120071411133
709,3512959034,0.528538,-0.060431,0.351079,0.770545,-4.49781179428101,4.62111425399780,7.22885322570801,1.19283473491669,-0.51988017559052,0.51494336128235
710,3512975701,0.528473,-0.060422,0.351036,0.770610,-4.50881481170654,4.57927942276001,7.21249151229858,1.21121180057526,-0.47235581278801,0.56007295846939
711,3512992368,0.528469,-0.060383,0.351044,0.770611,-4.48666715621948,4.59263324737549,7.20419406890869,1.53619861602783,-0.32474982738495,0.47890630364418
712,3513009035,0.528409,-0.060379,0.351020,0.770665,-4.51484251022339,4.58944749832153,7.19493770599365,1.36534893512726,-0.42735433578491,0.43090805411339
713,3513025702,0.528402,-0.060366,0.351024,0.770668,-4.48432922363281,4.60408687591553,7.21454000473022,1.48862278461456,-0.26972088217735,0.32420548796654
714,3513042369,0.528404,-0.060393,0.350974,0.770687,-4.51686286926270,4.60574626922607,7.21667385101318,1.05332219600677,-0.31390285491943,0.15984885394573
715,3513059036,0.528407,-0.060413,0.350962,0.770689,-4.51547002792358,4.58915567398071,7.22239780426025,1.29304432868958,-0.18261215090752,0.16594469547272
716,3513075703,0.528395,-0.060453,0.350949,0.770700,-4.51303100585938,4.61596632003784,7.22461652755737,1.31394433975220,-0.17707981169224,0.02782819792628
717,3513092370,0.528396,-0.060473,0.350928,0.770708,-4.52238798141479,4.59461593627930,7.20967674255371,1.24325299263000,-0.21453836560249,0.18414247035980
718,3513109037,0.528378,-0.060490,0.350935,0.770715,-4.49510860443115,4.62450504302979,7.21704149246216,1.37554275989532,-0.07433445751667,0.33487319946289
719,3513125704,0.528366,-0.060507,0.350923,0.770728,-4.50298452377319,4.58752059936523,7.20346450805664,1.23063921928406,-0.11969456076622,0.36262464523315
720,3513142371,0.528325,-0.060563,0.350914,0.770756,-4.49463462829590,4.59901762008667,7.19516563415527,1.17788970470428,0.02832764387131,0.27807706594467
721,3513159038,0.528323,-0.060608,0.350900,0.770760,-4.49841070175171,4.57996845245361,7.19334983825684,1.19588255882263,-0.04746673256159,0.14197118580341
722,3513175705,0.528302,-0.060665,0.350914,0.770763,-4.50259923934937,4.59601306915283,7.20783281326294,1.42309260368347,0.02047735266387,-0.00816404819489
723,3513192372,0.528295,-0.060723,0.350908,0.770766,-4.52858543395996,4.60444116592407,7.20940732955933,1.24550712108612,-0.00291344453581,0.03922584652901
724,3513209039,0.528292,-0.060757,0.350921,0.770760,-4.53369474411011,4.59403944015503,7.21509647369385,1.43401670455933,-0.04253628849983,0.08078245073557
725,3513225706,0.528284,-0.060791,0.350913,0.770766,-4.51335954666138,4.61200046539307,7.20904922485352,1.25669991970062,-0.06857159733772,0.19975344836712
726,3513242373,0.528253,-0.060802,0.350929,0.770779,-4.50766420364380,4.59431982040405,7.19230651855469,1.43861413002014,-0.05751972645521,0.42111122608185
727,3513259040,0.528227,-0.060814,0.350947,0.770788,-4.50570631027222,4.61375331878662,7.21462345123291,1.50262022018433,-0.10376343876123,0.30216583609581
728,3513275707,0.528223,-0.060825,0.350922,0.770801,-4.51157283782959,4.58147859573364,7.18996429443359,1.19566488265991,-0.22999562323093,0.31022104620934
729,3513292374,0.528195,-0.060833,0.350924,0.770819,-4.51702022552490,4.60124158859253,7.20545578002930,1.41335999965668,-0.18193340301514,0.34888336062431
730,3513309041,0.528176,-0.060856,0.350900,0.770841,-4.50376749038696,4.58745145797729,7.20331621170044,1.25109076499939,-0.25434052944183,0.19806301593781
731,3513325708,0.528178,-0.060850,0.350907,0.770837,-4.52107095718384,4.58949804306030,7.20996236801147,1.48857164382935,-0.22347721457481,0.25557634234428
732,3513342375,0.528186,-0.060862,0.350894,0.770837,-4.51511144638062,4.58382034301758,7.20942354202271,1.25152611732483,-0.17088150978088,0.26489934325218
733,3513359042,0.528194,-0.060872,0.350906,0.770825,-4.51128864288330,4.59383773803711,7.18735694885254,1.42847168445587,-0.08406728506088,0.23795479536057
734,3513375709,0.528173,-0.060904,0.350893,0.770842,-4.51793479919434,4.60972595214844,7.21041393280029,1.25567543506622,-0.12932492792606,0.23229436576366
735,3513392376,0.528144,-0.060913,0.350865,0.770874,-4.51803493499756,4.58335733413696,7.22571802139282,1.18965852260590,-0.26234447956085,0.41666737198830
736,3513409043,0.528090,-0.060912,0.350885,0.770902,-4.51031970977783,4.60137462615967,7.21795892715454,1.51862823963165,-0.11968175321817,0.52746796607971
737,3513425710,0.528079,-0.060906,0.350885,0.770910,-4.50923395156860,4.59268140792847,7.20742511749268,1.37186741828918,-0.18377752602100,0.43768262863159
738,3513442377,0.528039,-0.060918,0.350882,0.770938,-4.50683641433716,4.60529088973999,7.20167493820190,1.33638119697571,-0.14590916037560,0.43879681825638
739,3513459044,0.528051,-0.060918,0.350863,0.770939,-4.51104974746704,4.59840583801270,7.21734428405762,1.25410020351410,-0.24432595074177,0.30362576246262
740,3513475711,0.528067,-0.060917,0.350841,0.770938,-4.51104307174683,4.59235620498657,7.20495557785034,1.23577451705933,-0.26854276657104,0.28595298528671
741,3513492378,0.528029,-0.060960,0.350830,0.770966,-4.51561975479126,4.59006214141846,7.20057153701782,1.29921710491180,-0.13341015577316,0.16627764701843
742,3513509045,0.527987,-0.060987,0.350813,0.771000,-4.50088787078857,4.58716821670532,7.21659660339355,1.28439998626709,-0.20780222117901,0.28355816006660
743,3513525712,0.528048,-0.060974,0.350805,0.770963,-4.51060867309570,4.60827398300171,7.20590257644653,1.34312987327576,-0.25256040692329,0.13500453531742
744,3513542379,0.528062,-0.060994,0.350796,0.770955,-4.51575565338135,4.59041929244995,7.20317792892456,1.31887471675873,-0.17350681126118,0.11402773857117
745,3513559046,0.528032,-0.061041,0.350793,0.770974,-4.51434040069580,4.60375595092773,7.20196580886841,1.28281223773956,-0.02535016834736,0.19459250569344
746,3513575713,0.528041,-0.061075,0.350787,0.770967,-4.51544570922852,4.58470916748047,7.19691514968872,1.24897766113281,-0.04194719716907,0.16749425232410
747,3513592380,0.528041,-0.061071,0.350794,0.770965,-4.49945354461670,4.61134243011475,7.20994901657104,1.43168604373932,-0.17805308103561,0.32344999909401
748,3513609047,0.528048,-0.061055,0.350758,0.770978,-4.50281715393066,4.60786294937134,7.21814680099487,1.16600537300110,-0.36300241947174,0.43681180477142
749,3513625714,0.528054,-0.061040,0.350724,0.770990,-4.53374385833740,4.58846664428711,7.23563003540039,1.23515963554382,-0.41142323613167,0.34525921940804
750,3513642381,0.528063,-0.061038,0.350712,0.770990,-4.54498529434204,4.58545017242432,7.22580432891846,1.33603513240814,-0.26057720184326,0.25914928317070
751,3513659048,0.528101,-0.060990,0.350712,0.770967,-4.50284051895142,4.59431505203247,7.21078443527222,1.49834287166595,-0.39364793896675,0.34602755308151
752,3513675715,0.528090,-0.060991,0.350710,0.770976,-4.48811292648315,4.61484766006470,7.19067573547363,1.44929468631744,-0.26342019438744,0.24132286012173
753,3513692382,0.528081,-0.061006,0.350695,0.770988,-4.48616695404053,4.58294868469238,7.20125961303711,1.28253030776978,-0.21277108788490,0.25972557067871
754,3513709049,0.528080,-0.061028,0.350705,0.770982,-4.48724460601807,4.58491277694702,7.22051143646240,1.47194898128510,-0.12650752067566,0.09048966318369
755,3513725716,0.528095,-0.061041,0.350688,0.770978,-4.51634263992310,4.60217285156250,7.20612287521362,1.32032167911530,-0.27670034766197,0.07819557189941
756,3513742383,0.528124,-0.061036,0.350687,0.770960,-4.52245569229126,4.59056520462036,7.20801639556885,1.52843773365021,-0.35641989111900,-0.01349148899317
757,3513759050,0.528115,-0.061030,0.350682,0.770968,-4.53842067718506,4.59575557708740,7.22936439514160,1.48718869686127,-0.35241150856018,0.18984133005142
758,3513775717,0.528074,-0.060990,0.350711,0.770986,-4.52257394790649,4.61661958694458,7.21190452575684,1.69266641139984,-0.26626321673393,0.59385597705841
759,3513792384,0.528019,-0.060957,0.350737,0.771015,-4.51399421691895,4.62899112701416,7.21748447418213,1.62209081649780,-0.22219660878181,0.68307793140411
760,3513809051,0.527955,-0.060936,0.350732,0.771062,-4.50280427932739,4.58941364288330,7.18103837966919,1.37701547145844,-0.26706999540329,0.73167794942856
761,3513825718,0.527907,-0.060935,0.350754,0.771085,-4.47662830352783,4.57436323165894,7.20605945587158,1.51878201961517,-0.09437640011311,0.52345961332321
762,3513842385,0.527873,-0.060934,0.350794,0.771091,-4.52034854888916,4.57956314086914,7.19810819625854,1.65940845012665,-0.05159038305283,0.39443561434746
763,3513859052,0.527847,-0.060929,0.350822,0.771096,-4.50367021560669,4.60264968872070,7.23567771911621,1.61468851566315,-0.13877601921558,0.35207214951515
764,3513875719,0.527856,-0.060942,0.350833,0.771084,-4.51683425903320,4.59652423858643,7.20989131927490,1.43802499771118,-0.10390432178974,0.17610011994839
765,3513892386,0.527869,-0.060973,0.350853,0.771063,-4.51942491531372,4.58534240722656,7.21975660324097,1.51894855499268,-0.05717395246029,-0.03250892087817
766,3513909053,0.527882,-0.061020,0.350847,0.771053,-4.52449131011963,4.60926008224487,7.22774124145508,1.29613065719604,-0.07780497521162,-0.04945171996951
767,3513925720,0.527894,-0.061046,0.350849,0.771042,-4.52118301391602,4.59454488754272,7.20508146286011,1.41904604434967,-0.15410521626472,0.00938705448061
768,3513942387,0.527887,-0.061059,0.350848,0.771047,-4.50908994674683,4.60487890243530,7.20751857757568,1.40421628952026,-0.18759381771088,0.19452846050262
