sep=,
DeviceTag:,A
FirmwareVersion:,3.0.0
AppVersion:,2023.6.0
StartTime: ,2024-03-14_11:33:25_000 EDT
© Movella Technologies B. V. 2005-2024

PacketCounter,SampleTimeFine,Quat_W,Quat_X,Quat_Y,Quat_Z,Acc_X,Acc_Y,Acc_Z,Gyr_X,Gyr_Y,Gyr_Z
0,2267718526,0.814243,-0.086596,0.296727,-0.491389,0.00000000000000,0.00000000000000,0.00000000000000,0.00000000000000,0.00000000000000,0.00000000000000
1,2267735193,0.814243,-0.086613,0.296732,-0.491382,-3.96994376182556,-4.29681587219238,8.03684711456299,0.88609701395035,0.62496268749237,0.90619015693665
2,2267751860,0.814225,-0.086656,0.296774,-0.491379,-3.94488692283630,-4.30030059814453,8.04466438293457,0.54925155639648,0.71750134229660,0.92835783958435
3,2267768527,0.814236,-0.086663,0.296770,-0.491363,-3.95204114913940,-4.32761001586914,8.07021236419678,0.93130344152451,0.54961007833481,1.07038044929504
4,2267785194,0.814271,-0.086636,0.296734,-0.491331,-3.94412255287170,-4.29587888717651,8.08648490905762,1.35124933719635,0.58030694723129,1.00218665599823
5,2267801861,0.814268,-0.086655,0.296754,-0.491320,-3.97555184364319,-4.31780767440796,8.06385421752930,0.68561351299286,0.56954962015152,1.19137465953827
6,2267818528,0.814277,-0.086627,0.296756,-0.491308,-3.96503901481628,-4.31609010696411,8.03498363494873,1.10828721523285,0.70582205057144,1.12225890159607
7,2267835195,0.814276,-0.086637,0.296775,-0.491298,-3.95926260948181,-4.31297731399536,8.05646133422852,0.81206345558167,0.66390681266785,1.06419491767883
8,2267851862,0.814273,-0.086609,0.296760,-0.491317,-3.97070622444153,-4.28916025161743,8.06031608581543,1.22980654239655,0.66637837886810,0.87814426422119
9,2267868529,0.814234,-0.086657,0.296788,-0.491356,-3.95801973342896,-4.30301523208618,8.05037498474121,0.51774793863297,0.55163353681564,0.85986959934235
10,2267885196,0.814220,-0.086681,0.296794,-0.491371,-3.95606398582458,-4.30625772476196,8.05617046356201,0.81587970256805,0.58708143234253,0.84702473878860
11,2267901863,0.814206,-0.086677,0.296787,-0.491399,-3.97712182998657,-4.28172159194946,8.07509708404541,1.05441093444824,0.62048047780991,0.81235802173615
12,2267918530,0.814193,-0.086741,0.296823,-0.491388,-3.95576739311218,-4.27943897247314,8.05784702301025,0.47596079111099,0.64089375734329,0.86039453744888
13,2267935197,0.814188,-0.086766,0.296845,-0.491379,-3.95361042022705,-4.30613756179810,8.04210662841797,0.73272812366486,0.66002649068832,0.98478275537491
14,2267951864,0.814196,-0.086794,0.296853,-0.491356,-3.94995546340942,-4.30552625656128,8.04259872436523,0.74240964651108,0.53625309467316,1.08965384960175
15,2267968531,0.814192,-0.086807,0.296872,-0.491347,-3.97851967811584,-4.28278923034668,8.05385017395020,0.84844624996185,0.71419733762741,0.93326264619827
16,2267985198,0.814203,-0.086927,0.296926,-0.491276,-3.95156168937683,-4.34855031967163,8.04869270324707,-0.05374184995890,0.41733333468437,1.26796972751617
17,2268001865,0.814200,-0.086867,0.296908,-0.491302,-3.95631814002991,-4.34417724609375,8.04223537445068,1.38768315315247,0.71479922533035,0.99491244554520
18,2268018532,0.814221,-0.086803,0.296872,-0.491300,-3.97631406784058,-4.27855443954468,8.07385730743408,1.43080198764801,0.55461734533310,1.23933434486389
19,2268035199,0.814204,-0.086898,0.296934,-0.491274,-3.96683764457703,-4.29156589508057,8.04598999023438,0.13834698498249,0.63064867258072,0.97123348712921
20,2268051866,0.814222,-0.086920,0.296930,-0.491244,-3.95199418067932,-4.35148859024048,8.04541206359863,0.86496651172638,0.53141230344772,1.04033660888672
21,2268068533,0.814231,-0.086853,0.296902,-0.491257,-3.95899176597595,-4.29350376129150,8.06836509704590,1.43756389617920,0.63236469030380,1.13940656185150
22,2268085200,0.814212,-0.086914,0.296947,-0.491251,-3.96785640716553,-4.34475469589233,8.04430389404297,0.41810172796249,0.65692740678787,0.93027889728546
23,2268101867,0.814229,-0.086838,0.296905,-0.491261,-3.95229983329773,-4.30313777923584,8.06747722625732,1.61179411411285,0.66167837381363,1.02388036251068
24,2268118534,0.814198,-0.086850,0.296935,-0.491292,-3.95705151557922,-4.28165388107300,8.05206871032715,0.75933974981308,0.72810506820679,0.86923104524612
25,2268135201,0.814190,-0.086862,0.296971,-0.491282,-3.95737266540527,-4.33050775527954,8.02654170989990,0.67865973711014,0.71066278219223,1.16756784915924
26,2268151868,0.814197,-0.086733,0.296938,-0.491314,-3.94766187667847,-4.30849123001099,8.03928279876709,1.82814502716064,0.81882530450821,1.16472482681274
27,2268168535,0.814204,-0.086749,0.296942,-0.491297,-3.97646665573120,-4.30034255981445,8.06280422210693,0.85755157470703,0.58335489034653,1.03007864952087
28,2268185202,0.814178,-0.086768,0.296972,-0.491317,-3.97891879081726,-4.32578849792480,8.08451652526855,0.70287644863129,0.69336134195328,0.93219983577728
29,2268201869,0.814173,-0.086779,0.296956,-0.491334,-3.97401833534241,-4.31470394134521,8.07151508331299,1.06121087074280,0.58293229341507,0.70151901245117
30,2268218536,0.814129,-0.086870,0.297007,-0.491360,-3.97093749046326,-4.30783224105835,8.05940723419189,0.24999274313450,0.62911194562912,0.67808336019516
31,2268235203,0.814135,-0.086922,0.297046,-0.491316,-3.95029020309448,-4.33725118637085,8.02299118041992,0.52818506956100,0.69475722312927,1.02735102176666
32,2268251870,0.814178,-0.086849,0.297008,-0.491281,-3.94840192794800,-4.31541204452515,8.03611564636230,1.57475852966309,0.66176813840866,1.21504080295563
33,2268268537,0.814189,-0.086806,0.296994,-0.491280,-3.95993947982788,-4.29657220840454,8.04676914215088,1.21961283683777,0.61456400156021,1.19846963882446
34,2268285204,0.814196,-0.086790,0.296996,-0.491269,-3.95803642272949,-4.31243038177490,8.06216621398926,1.03517568111420,0.66389399766922,1.10530328750610
35,2268301871,0.814208,-0.086742,0.296957,-0.491281,-3.97456002235413,-4.29478025436401,8.06966590881348,1.37467217445374,0.51978415250778,1.07310819625854
36,2268318538,0.814221,-0.086803,0.296968,-0.491242,-3.96298646926880,-4.29020690917969,8.07267475128174,0.59714734554291,0.49723216891289,0.97830259799957
37,2268335205,0.814236,-0.086838,0.296968,-0.491212,-3.97274065017700,-4.32967376708984,8.05565071105957,0.79655492305756,0.53426814079285,0.98341244459152
38,2268351872,0.814241,-0.086834,0.296950,-0.491214,-3.95720791816711,-4.30811834335327,8.04555034637451,1.09864401817322,0.55527061223984,0.91512900590897
39,2268368539,0.814232,-0.086851,0.296970,-0.491214,-3.97398662567139,-4.30665254592896,8.05301952362061,0.79984623193741,0.68767541646957,0.93062472343445
40,2268385206,0.814205,-0.086828,0.296961,-0.491269,-3.95957541465759,-4.31027698516846,8.07781982421875,1.08860361576080,0.58758097887039,0.89793008565903
41,2268401873,0.814227,-0.086831,0.296944,-0.491243,-3.96223998069763,-4.30961084365845,8.05790901184082,1.03050124645233,0.51774787902832,1.07016253471375
42,2268418540,0.814222,-0.086823,0.296936,-0.491257,-3.94188475608826,-4.29866886138916,8.03722572326660,1.04029810428619,0.58462262153625,0.96371632814407
43,2268435207,0.814215,-0.086829,0.296938,-0.491266,-3.95394206047058,-4.30399227142334,8.05218029022217,0.88792824745178,0.56990814208984,1.00392806529999
44,2268451874,0.814213,-0.086869,0.296963,-0.491247,-3.97311854362488,-4.34028434753418,8.05761909484863,0.58343166112900,0.57574784755707,1.09458434581757
45,2268468541,0.814224,-0.086840,0.296946,-0.491244,-3.95974922180176,-4.34753465652466,8.03544425964355,1.18129622936249,0.58598023653030,1.09628772735596
46,2268485208,0.814236,-0.086815,0.296925,-0.491242,-3.95872616767883,-4.31354188919067,8.03806781768799,1.20833051204681,0.57775849103928,1.03621304035187
47,2268501875,0.814249,-0.086813,0.296914,-0.491227,-3.98400306701660,-4.28974390029907,8.07981204986572,1.09317564964294,0.63076394796371,0.90852093696594
48,2268518542,0.814222,-0.086849,0.296931,-0.491255,-3.97139334678650,-4.29186248779297,8.06985282897949,0.70683366060257,0.61899489164352,0.76428294181824
49,2268535209,0.814194,-0.086886,0.296967,-0.491274,-3.95287275314331,-4.32279109954834,8.04534816741943,0.54926437139511,0.63621950149536,0.95981019735336
50,2268551876,0.814191,-0.086877,0.296964,-0.491281,-3.95202589035034,-4.32859706878662,8.04500484466553,1.05596041679382,0.66037225723267,0.92533558607101
51,2268568543,0.814192,-0.086792,0.296923,-0.491320,-3.96538424491882,-4.30183982849121,8.04545688629150,1.63887953758240,0.66288220882416,0.97215545177460
52,2268585210,0.814172,-0.086817,0.296957,-0.491328,-3.94992208480835,-4.28658008575439,8.03174209594727,0.69080013036728,0.73699265718460,0.90407717227936
53,2268601877,0.814158,-0.086804,0.296973,-0.491344,-3.96433639526367,-4.32454538345337,8.06233406066895,0.98310500383377,0.76311749219894,0.93682289123535
54,2268618544,0.814147,-0.086796,0.296957,-0.491373,-3.96110653877258,-4.31268072128296,8.06922340393066,1.09367513656616,0.55871546268463,0.85078990459442
55,2268635211,0.814174,-0.086831,0.296955,-0.491324,-3.99025630950928,-4.29253721237183,8.04543113708496,0.87569826841354,0.59719854593277,0.90910995006561
56,2268651878,0.814138,-0.086846,0.296985,-0.491362,-3.95271015167236,-4.30454778671265,8.05634212493896,0.75243705511093,0.73923373222351,0.80937409400940
57,2268668545,0.814137,-0.086836,0.296989,-0.491363,-3.96626615524292,-4.34135532379150,8.03721618652344,1.03508603572845,0.69587147235870,0.95997679233551
58,2268685212,0.814147,-0.086755,0.296957,-0.491381,-3.96132731437683,-4.28514003753662,8.03915405273438,1.59720766544342,0.72809213399887,1.01924443244934
59,2268701879,0.814146,-0.086796,0.296994,-0.491352,-3.96715641021729,-4.30261325836182,8.07644176483154,0.58860546350479,0.70413154363632,1.00619482994080
60,2268718546,0.814163,-0.086745,0.296961,-0.491353,-3.97709131240845,-4.30397510528564,8.05062198638916,1.46523845195770,0.66167843341827,0.94640201330185
61,2268735213,0.814158,-0.086706,0.296954,-0.491373,-3.96278715133667,-4.31204319000244,8.07435798645020,1.12873888015747,0.60609900951385,1.16674816608429
62,2268751880,0.814169,-0.086688,0.296951,-0.491358,-3.96008300781250,-4.33362102508545,8.05929374694824,1.08581197261810,0.65635097026825,1.08814275264740
63,2268768547,0.814172,-0.086635,0.296938,-0.491371,-3.97008538246155,-4.30323743820190,8.06005573272705,1.32673788070679,0.71346729993820,1.04225754737854
64,2268785214,0.814176,-0.086669,0.296973,-0.491338,-3.95425415039062,-4.30572414398193,8.05576610565186,0.62275999784470,0.69217050075531,1.08810436725616
65,2268801881,0.814191,-0.086658,0.296976,-0.491313,-3.95712327957153,-4.32556724548340,8.06239604949951,1.01506960391998,0.66905492544174,1.11773812770844
66,2268818548,0.814218,-0.086576,0.296917,-0.491318,-3.96753048896790,-4.30661153793335,8.04240512847900,1.70412826538086,0.56052118539810,1.09085786342621
67,2268835215,0.814215,-0.086616,0.296940,-0.491303,-3.96844244003296,-4.28789472579956,8.05134010314941,0.66146075725555,0.64017659425735,0.92400366067886
68,2268851882,0.814198,-0.086656,0.296984,-0.491298,-3.96130037307739,-4.31934309005737,8.04301452636719,0.54952049255371,0.73354774713516,0.94960355758667
69,2268868549,0.814195,-0.086624,0.296981,-0.491310,-3.97053885459900,-4.31270408630371,8.05608558654785,1.15919244289398,0.69263148307800,1.02972018718719
70,2268885216,0.814180,-0.086608,0.297016,-0.491317,-3.97523212432861,-4.30749559402466,8.08182144165039,0.91491132974625,0.87220203876495,1.00199437141418
71,2268901883,0.814173,-0.086565,0.297016,-0.491335,-3.96198129653931,-4.30652141571045,8.05605220794678,1.21504080295563,0.75727784633636,1.00693762302399
72,2268918550,0.814165,-0.086540,0.297015,-0.491353,-3.96916484832764,-4.29653120040894,8.05173206329346,1.11712348461151,0.69172209501266,0.95614749193192
73,2268935217,0.814151,-0.086581,0.297057,-0.491344,-3.95475196838379,-4.32479286193848,8.05508518218994,0.56413257122040,0.73098647594452,0.94300848245621
74,2268951884,0.814148,-0.086518,0.297029,-0.491378,-3.96573996543884,-4.31002092361450,8.05818271636963,1.43061006069183,0.64469724893570,1.00605404376984
75,2268968551,0.814160,-0.086541,0.297052,-0.491340,-3.98166298866272,-4.29144954681396,8.06158924102783,0.73875993490219,0.66266459226608,1.10846650600433
76,2268985218,0.814167,-0.086552,0.297061,-0.491321,-3.97496557235718,-4.30550813674927,8.04768753051758,0.88216537237167,0.64998626708984,1.01535141468048
77,2269001885,0.814157,-0.086556,0.297081,-0.491323,-3.98032283782959,-4.31563615798950,8.07159137725830,0.85286444425583,0.70784538984299,0.99863916635513
78,2269018552,0.814144,-0.086543,0.297082,-0.491348,-3.98565769195557,-4.29387712478638,8.04033374786377,1.05205428600311,0.68033725023270,0.88245981931686
79,2269035219,0.814128,-0.086563,0.297088,-0.491366,-3.97089743614197,-4.29297733306885,8.05970096588135,0.83768898248672,0.59646856784821,0.84703755378723
80,2269051886,0.814100,-0.086655,0.297140,-0.491365,-3.96886563301086,-4.31852626800537,8.04531383514404,0.22833719849586,0.62050604820251,0.79546636343002
81,2269068553,0.814103,-0.086649,0.297140,-0.491363,-3.97865748405457,-4.33629083633423,8.04340839385986,1.03164112567902,0.65884828567505,0.95773565769196
82,2269085220,0.814096,-0.086547,0.297094,-0.491418,-3.96490645408630,-4.26651620864868,8.05404567718506,1.79399037361145,0.74553453922272,0.85382497310638
83,2269101887,0.814062,-0.086658,0.297189,-0.491398,-3.97551345825195,-4.31029558181763,8.05287361145020,-0.13749536871910,0.72045958042145,1.01360964775085
84,2269118554,0.814078,-0.086515,0.297134,-0.491430,-3.95879101753235,-4.30624485015869,8.02911567687988,2.05926108360291,0.80957901477814,1.05610120296478
85,2269135221,0.814080,-0.086513,0.297173,-0.491404,-3.97609710693359,-4.25993394851685,8.05238056182861,0.85098183155060,0.87331616878510,1.06173586845398
86,2269151888,0.814074,-0.086646,0.297259,-0.491337,-3.98561716079712,-4.37627506256104,8.05467128753662,-0.16627123951912,0.66699314117432,1.04072070121765
87,2269168555,0.814067,-0.086495,0.297154,-0.491439,-4.00829744338989,-4.30066299438477,8.06102371215820,2.39928245544434,0.63976681232452,0.58258640766144
88,2269185222,0.814027,-0.086609,0.297195,-0.491460,-3.99411940574646,-4.26720905303955,8.09074687957764,0.20058585703373,0.54231047630310,0.54181098937988
89,2269201889,0.813979,-0.086713,0.297267,-0.491478,-3.95903134346008,-4.35448932647705,8.02231311798096,0.08046229183674,0.70146781206131,0.69427055120468
90,2269218556,0.813992,-0.086615,0.297200,-0.491515,-3.95042943954468,-4.32094240188599,8.03777885437012,1.82188272476196,0.56401729583740,0.99633413553238
91,2269235223,0.813991,-0.086578,0.297191,-0.491527,-3.97064185142517,-4.25774431228638,8.05873203277588,1.19374406337738,0.66284394264221,1.04940366744995
92,2269251890,0.814018,-0.086639,0.297217,-0.491458,-3.97920966148376,-4.31321001052856,8.06759929656982,0.46070843935013,0.50590205192566,1.26170718669891
93,2269268557,0.814056,-0.086628,0.297186,-0.491415,-3.97370815277100,-4.34602785110474,8.05041599273682,1.10226821899414,0.41543799638748,1.28492522239685
94,2269285224,0.814086,-0.086498,0.297098,-0.491442,-3.99050998687744,-4.30737495422363,8.04978942871094,1.99748325347900,0.44028231501579,1.29109776020050
95,2269301891,0.814082,-0.086511,0.297096,-0.491447,-3.98336696624756,-4.26701545715332,8.07120323181152,0.82579189538956,0.47889348864555,1.09069120883942
96,2269318558,0.814097,-0.086553,0.297124,-0.491399,-3.97939467430115,-4.32610654830933,8.02850914001465,0.59582817554474,0.63207018375397,1.13101840019226
97,2269335225,0.814125,-0.086477,0.297069,-0.491399,-3.98238015174866,-4.34720325469971,8.04429817199707,1.63017129898071,0.53654754161835,1.14454185962677
98,2269351892,0.814161,-0.086429,0.297024,-0.491374,-3.98676538467407,-4.29214000701904,8.07213973999023,1.53923344612122,0.63093036413193,0.94842547178268
99,2269368559,0.814154,-0.086499,0.297047,-0.491359,-3.98090171813965,-4.29139661788940,8.07565593719482,0.53462672233582,0.58600586652756,0.78016287088394
100,2269385226,0.814133,-0.086486,0.297026,-0.491409,-3.96520829200745,-4.31283044815063,8.05724620819092,1.18176996707916,0.59876090288162,0.68634349107742
101,2269401893,0.814141,-0.086455,0.297013,-0.491410,-3.95196437835693,-4.29142665863037,8.02655887603760,1.21351683139801,0.65074187517166,1.01149666309357
102,2269418560,0.814159,-0.086409,0.297021,-0.491384,-3.94390845298767,-4.30128097534180,8.04389381408691,1.16856646537781,0.77520680427551,1.27058184146881
103,2269435227,0.814192,-0.086305,0.296978,-0.491373,-3.98904275894165,-4.30216360092163,8.05558586120605,1.73925614356995,0.70445168018341,1.24768435955048
104,2269451894,0.814187,-0.086284,0.296977,-0.491384,-3.98423027992249,-4.29542493820190,8.08545398712158,1.10826158523560,0.69583302736282,0.95554584264755
105,2269468561,0.814164,-0.086303,0.296989,-0.491413,-3.97835659980774,-4.29738664627075,8.05192279815674,0.85324877500534,0.66535389423370,0.74399781227112
106,2269485228,0.814182,-0.086305,0.296970,-0.491394,-3.96832871437073,-4.30318927764893,8.04027271270752,1.07920384407043,0.55147981643677,0.94677340984344
107,2269501895,0.814186,-0.086244,0.296937,-0.491418,-3.97915101051331,-4.31342077255249,8.04652214050293,1.46867048740387,0.64564490318298,0.97723966836929
108,2269518562,0.814201,-0.086170,0.296909,-0.491423,-3.97017288208008,-4.29727125167847,8.05395793914795,1.51281380653381,0.69155561923981,1.12001764774323
109,2269535229,0.814203,-0.086114,0.296910,-0.491429,-3.95767235755920,-4.27922058105469,8.04254245758057,1.22541403770447,0.74427944421768,1.19210457801819
110,2269551896,0.814237,-0.086077,0.296904,-0.491383,-3.95475411415100,-4.29284143447876,8.05936336517334,1.21341443061829,0.70616769790649,1.25167977809906
111,2269568563,0.814285,-0.086073,0.296912,-0.491300,-3.96821498870850,-4.32082223892212,8.06456565856934,0.98866307735443,0.70578354597092,1.28300404548645
112,2269585230,0.814285,-0.085991,0.296886,-0.491329,-3.99665021896362,-4.31308460235596,8.07460498809814,1.55005490779877,0.73144739866257,1.03392064571381
113,2269601897,0.814251,-0.085983,0.296889,-0.491385,-3.99126458168030,-4.29217863082886,8.08409500122070,1.00446593761444,0.66331768035889,0.76283580064774
114,2269618564,0.814228,-0.086010,0.296904,-0.491409,-3.98367238044739,-4.30906963348389,8.07336902618408,0.81225556135178,0.68300098180771,0.69724172353745
115,2269635231,0.814217,-0.086005,0.296892,-0.491435,-3.96810221672058,-4.31424999237061,8.03471469879150,1.06497609615326,0.58390551805496,0.84957331418991
116,2269651898,0.814237,-0.085972,0.296868,-0.491423,-3.96511411666870,-4.27385616302490,8.05175590515137,1.34026134014130,0.67022031545639,0.92575830221176
117,2269668565,0.814260,-0.085991,0.296867,-0.491382,-3.95184063911438,-4.28403568267822,8.05227947235107,0.93910247087479,0.63285142183304,0.95507198572159
118,2269685232,0.814266,-0.085949,0.296855,-0.491387,-3.97663187980652,-4.29348039627075,8.05846786499023,1.27444958686829,0.69675511121750,1.02663385868073
119,2269701899,0.814279,-0.085922,0.296866,-0.491364,-3.96824073791504,-4.30559110641479,8.06407260894775,1.00874340534210,0.69069772958755,1.29041910171509
120,2269718566,0.814287,-0.085895,0.296848,-0.491365,-3.97933793067932,-4.30219554901123,8.06776142120361,1.14461874961853,0.53972363471985,1.14022624492645
121,2269735233,0.814304,-0.085884,0.296838,-0.491345,-3.99230504035950,-4.28936862945557,8.04870319366455,1.00359511375427,0.52719902992249,1.21418285369873
122,2269751900,0.814317,-0.085887,0.296838,-0.491323,-3.97718429565430,-4.29110431671143,8.06138992309570,0.94930899143219,0.59717291593552,1.08610665798187
123,2269768567,0.814339,-0.085909,0.296856,-0.491272,-3.96818041801453,-4.31425333023071,8.03104400634766,0.76172167062759,0.64036864042282,1.16747808456421
124,2269785234,0.814346,-0.085807,0.296818,-0.491302,-3.98021554946899,-4.28473043441772,8.04620647430420,1.68488037586212,0.69991832971573,1.12497377395630
125,2269801901,0.814340,-0.085809,0.296846,-0.491294,-3.96941113471985,-4.25332260131836,8.05187320709229,0.84081357717514,0.77326011657715,1.02151119709015
126,2269818568,0.814321,-0.085836,0.296876,-0.491303,-3.95841932296753,-4.31003808975220,8.05591201782227,0.65577477216721,0.66555881500244,0.95987433195114
127,2269835235,0.814326,-0.085807,0.296877,-0.491300,-3.98518991470337,-4.28417491912842,8.04845237731934,1.18604743480682,0.77545017004013,0.95925962924957
128,2269851902,0.814338,-0.085843,0.296885,-0.491268,-3.99036717414856,-4.32753086090088,8.06709384918213,0.71638721227646,0.53061830997467,1.06639754772186
129,2269868569,0.814320,-0.085808,0.296848,-0.491326,-3.97695422172546,-4.26962471008301,8.07474136352539,1.36857616901398,0.56782072782516,0.69798445701599
130,2269885236,0.814295,-0.085859,0.296912,-0.491320,-3.96920847892761,-4.27578830718994,8.05328559875488,0.41264620423317,0.82732862234116,0.91863781213760
131,2269901903,0.814260,-0.085929,0.296973,-0.491328,-3.94755697250366,-4.35096788406372,8.03959655761719,0.30055221915245,0.72960335016251,0.83624178171158
132,2269918570,0.814264,-0.085798,0.296911,-0.491382,-3.99670982360840,-4.28370904922485,8.06008243560791,2.03410959243774,0.74595707654953,0.90898197889328
133,2269935237,0.814250,-0.085828,0.296964,-0.491368,-3.97035622596741,-4.25086402893066,8.08857059478760,0.56029063463211,0.80388015508652,1.03661000728607
134,2269951904,0.814254,-0.085887,0.297036,-0.491308,-3.97811245918274,-4.32427453994751,8.04306888580322,0.26980414986610,0.77274793386459,1.25773727893829
135,2269968571,0.814263,-0.085770,0.296998,-0.491336,-3.98630428314209,-4.27620887756348,8.05593776702881,1.78325867652893,0.75661194324493,1.14095616340637
136,2269985238,0.814259,-0.085871,0.297066,-0.491285,-3.99122571945190,-4.27509546279907,8.05907726287842,0.13944832980633,0.70825511217117,0.95098668336868
137,2270001905,0.814245,-0.085944,0.297103,-0.491273,-3.99719953536987,-4.34867286682129,8.05274009704590,0.37056452035904,0.57013869285583,0.92846029996872
138,2270018572,0.814226,-0.085910,0.297056,-0.491338,-3.98660683631897,-4.31383419036865,8.04950332641602,1.42949604988098,0.53192454576492,0.62359249591827
139,2270035239,0.814211,-0.085942,0.297063,-0.491354,-3.97384643554688,-4.25797510147095,8.05206394195557,0.81203776597977,0.60883951187134,0.73445695638657
140,2270051906,0.814191,-0.085967,0.297097,-0.491361,-3.95787906646729,-4.27805900573730,8.04743194580078,0.69991832971573,0.75721389055252,0.87469935417175
141,2270068573,0.814204,-0.086000,0.297161,-0.491295,-3.94728064537048,-4.29849624633789,8.05815601348877,0.47042843699455,0.82658582925797,1.30713117122650
142,2270085240,0.814233,-0.085929,0.297154,-0.491265,-3.97015905380249,-4.31102991104126,8.03152465820312,1.35208153724670,0.74552160501480,1.38357234001160
143,2270101907,0.814256,-0.085891,0.297147,-0.491236,-3.99467039108276,-4.28056907653809,8.07177162170410,1.19398701190948,0.68275761604309,1.21815264225006
144,2270118574,0.814257,-0.085933,0.297173,-0.491211,-3.99034881591797,-4.28429412841797,8.06599807739258,0.62657624483109,0.62881737947464,1.00113642215729
145,2270135241,0.814250,-0.085987,0.297191,-0.491204,-3.97621774673462,-4.29114866256714,8.05253505706787,0.60173195600510,0.56249332427979,0.86796319484711
146,2270151908,0.814250,-0.086022,0.297212,-0.491185,-3.98803329467773,-4.30594444274902,8.06047058105469,0.66289508342743,0.60381937026978,1.02796578407288
147,2270168575,0.814241,-0.086033,0.297222,-0.491192,-3.97955870628357,-4.33364057540894,8.06966400146484,0.87362354993820,0.64582419395447,0.91693454980850
148,2270185242,0.814231,-0.085973,0.297186,-0.491239,-3.98638629913330,-4.28731012344360,8.05916881561279,1.48723971843719,0.63999730348587,0.83899521827698
149,2270201909,0.814208,-0.086076,0.297221,-0.491240,-3.98132658004761,-4.27702283859253,8.05214309692383,0.23723760247231,0.48208227753639,0.76178580522537
150,2270218576,0.814180,-0.086153,0.297259,-0.491249,-3.98132991790771,-4.32830142974854,8.01937007904053,0.38461306691170,0.60139894485474,0.75104117393494
151,2270235243,0.814176,-0.086086,0.297233,-0.491284,-3.96676063537598,-4.28717899322510,8.01985263824463,1.47846722602844,0.70128840208054,0.94664525985718
152,2270251910,0.814182,-0.086125,0.297284,-0.491236,-3.96944999694824,-4.30630445480347,8.05787849426270,0.49581062793732,0.74790364503860,1.18873667716980
153,2270268577,0.814186,-0.086070,0.297295,-0.491232,-3.98996829986572,-4.31966066360474,8.07390022277832,1.16756772994995,0.77959930896759,1.27930319309235
154,2270285244,0.814182,-0.086010,0.297271,-0.491265,-4.00204753875732,-4.26274204254150,8.06443023681641,1.43397819995880,0.69811254739761,0.92157053947449
155,2270301911,0.814182,-0.086126,0.297338,-0.491202,-3.98232769966125,-4.31030321121216,8.04488754272461,0.06259743869305,0.66828650236130,0.93546539545059
156,2270318578,0.814175,-0.086108,0.297322,-0.491226,-3.98311281204224,-4.31170749664307,8.04882144927979,1.18006670475006,0.63287705183029,0.82027238607407
157,2270335245,0.814175,-0.086126,0.297330,-0.491220,-3.99119997024536,-4.29597711563110,8.04156875610352,0.85031598806381,0.61336010694504,0.95262604951859
158,2270351912,0.814152,-0.086140,0.297355,-0.491239,-3.97307896614075,-4.29384803771973,8.07129478454590,0.73402154445648,0.66813284158707,0.97435837984085
159,2270368579,0.814154,-0.086111,0.297355,-0.491242,-3.97944092750549,-4.30232191085815,8.04800891876221,1.08992290496826,0.65624862909317,1.12848281860352
160,2270385246,0.814149,-0.086094,0.297356,-0.491253,-3.98275828361511,-4.28751850128174,8.05946350097656,1.00368487834930,0.62124890089035,1.08839893341064
161,2270401913,0.814136,-0.086153,0.297413,-0.491228,-3.98239541053772,-4.29944658279419,8.08028888702393,0.37859416007996,0.73454660177231,1.01419889926910
162,2270418580,0.814129,-0.086167,0.297425,-0.491232,-3.98676872253418,-4.33035993576050,8.04535007476807,0.80270200967789,0.59719854593277,1.01422441005707
163,2270435247,0.814113,-0.086135,0.297416,-0.491269,-3.96859335899353,-4.29975891113281,8.04991054534912,1.17704451084137,0.65773415565491,0.91615343093872
164,2270451914,0.814111,-0.086150,0.297432,-0.491260,-3.98571515083313,-4.27814674377441,8.05575466156006,0.83642107248306,0.67840355634689,0.95610928535461
165,2270468581,0.814091,-0.086180,0.297443,-0.491280,-3.98513603210449,-4.29617118835449,8.04973316192627,0.79500538110733,0.63793545961380,0.74106508493423
166,2270485248,0.814100,-0.086198,0.297459,-0.491252,-3.98538613319397,-4.32426595687866,8.03032398223877,0.84601312875748,0.69687032699585,0.96906936168671
167,2270501915,0.814096,-0.086179,0.297440,-0.491274,-3.97941827774048,-4.30494976043701,8.03715229034424,1.18356299400330,0.59566169977188,0.86957687139511
168,2270518582,0.814085,-0.086163,0.297426,-0.491303,-3.99685049057007,-4.29632186889648,8.06111907958984,1.16610777378082,0.64148283004761,0.79161167144775
169,2270535249,0.814078,-0.086210,0.297446,-0.491295,-3.98206090927124,-4.29232645034790,8.03941154479980,0.68065750598907,0.64510715007782,0.79409623146057
170,2270551916,0.814089,-0.086204,0.297448,-0.491276,-3.97771930694580,-4.30180788040161,8.04975509643555,1.01006233692169,0.66577649116516,1.03823649883270
171,2270568583,0.814105,-0.086188,0.297453,-0.491251,-3.98344802856445,-4.29406309127808,8.06323623657227,1.01083087921143,0.65986001491547,1.19003009796143
172,2270585250,0.814117,-0.086155,0.297445,-0.491242,-3.98217463493347,-4.30615282058716,8.03731441497803,1.15456926822662,0.63733363151550,1.16767024993896
173,2270601917,0.814126,-0.086135,0.297445,-0.491229,-3.98820996284485,-4.28264713287354,8.08417320251465,1.05223381519318,0.65441733598709,1.13753700256348
174,2270618584,0.814130,-0.086136,0.297442,-0.491225,-3.98344755172729,-4.30792760848999,8.05180358886719,0.95412427186966,0.56747508049011,1.04154050350189
175,2270635251,0.814135,-0.086123,0.297430,-0.491226,-3.98216891288757,-4.31212615966797,8.05115127563477,1.09569847583771,0.59731376171112,0.98756158351898
176,2270651918,0.814133,-0.086106,0.297432,-0.491231,-3.98877620697021,-4.27025890350342,8.05118465423584,1.05291235446930,0.67348587512970,1.01122772693634
177,2270668585,0.814128,-0.086140,0.297461,-0.491215,-3.97094845771790,-4.33171272277832,8.05112075805664,0.65247076749802,0.67508673667908,0.98177319765091
178,2270685252,0.814133,-0.086055,0.297401,-0.491257,-3.97319507598877,-4.30831193923950,8.05162715911865,1.69194912910461,0.53470343351364,0.99101924896240
179,2270701919,0.814142,-0.086033,0.297370,-0.491265,-3.97998046875000,-4.24814462661743,8.07429790496826,1.27953362464905,0.57261031866074,0.86814248561859
180,2270718586,0.814118,-0.086169,0.297433,-0.491244,-3.97893500328064,-4.31741333007812,8.02444839477539,-0.08780673146248,0.51268935203552,0.84048074483871
181,2270735253,0.814138,-0.086126,0.297391,-0.491244,-3.97484493255615,-4.34652423858643,8.02055358886719,1.37348103523254,0.50340485572815,1.08499240875244
182,2270751920,0.814132,-0.086015,0.297337,-0.491306,-3.97930788993835,-4.27223014831543,8.07673168182373,1.87114846706390,0.70659041404724,0.86115014553070
183,2270768587,0.814120,-0.086124,0.297415,-0.491259,-3.98749089241028,-4.31275987625122,8.05241680145264,-0.04188316687942,0.65102362632751,1.08515894412994
184,2270785254,0.814135,-0.085992,0.297384,-0.491277,-3.95577883720398,-4.31958007812500,8.02058887481689,1.84296202659607,0.84451478719711,1.22441518306732
185,2270801921,0.814153,-0.085941,0.297375,-0.491260,-3.98145818710327,-4.30484294891357,8.02899074554443,1.30864238739014,0.75139981508255,1.12633121013641
186,2270818588,0.814149,-0.085968,0.297403,-0.491246,-4.00096082687378,-4.30663108825684,8.04363155364990,0.74148768186569,0.72916787862778,0.91982895135880
187,2270835255,0.814121,-0.085950,0.297371,-0.491316,-4.01497411727905,-4.30086851119995,8.08852577209473,1.27669060230255,0.56321048736572,0.57212364673615
188,2270851922,0.814092,-0.086015,0.297390,-0.491340,-3.98525667190552,-4.29143095016479,8.05156040191650,0.58665889501572,0.59320294857025,0.58676141500473
189,2270868589,0.814074,-0.086044,0.297415,-0.491349,-3.96914768218994,-4.30533361434937,8.04511070251465,0.72085666656494,0.69170939922333,0.84953474998474
190,2270885256,0.814084,-0.085964,0.297386,-0.491364,-3.97509646415710,-4.28664541244507,8.02787876129150,1.56711292266846,0.73073029518127,1.04727745056152
191,2270901923,0.814087,-0.085906,0.297373,-0.491377,-3.96573066711426,-4.28025531768799,8.03528881072998,1.30670857429504,0.67833948135376,1.14744889736176
192,2270918590,0.814105,-0.085890,0.297375,-0.491349,-3.97518038749695,-4.28742885589600,8.05032920837402,1.02336835861206,0.64704084396362,1.18858301639557
193,2270935257,0.814111,-0.085851,0.297346,-0.491364,-3.99109363555908,-4.29267168045044,8.07106685638428,1.31240761280060,0.57239264249802,0.99910032749176
194,2270951924,0.814124,-0.085830,0.297324,-0.491360,-3.99219417572021,-4.28608417510986,8.05903339385986,1.11761009693146,0.49373596906662,1.15782201290131
195,2270968591,0.814113,-0.085817,0.297314,-0.491386,-3.99040675163269,-4.30226850509644,8.04258441925049,1.04616355895996,0.56665539741516,0.96892851591110
196,2270985258,0.814116,-0.085843,0.297335,-0.491364,-3.97294092178345,-4.32527351379395,8.04039192199707,0.68926334381104,0.59768515825272,1.11867308616638
197,2271001925,0.814111,-0.085785,0.297303,-0.491401,-3.96823382377625,-4.30488967895508,8.04456233978271,1.44830822944641,0.63570708036423,0.91350239515305
198,2271018592,0.814106,-0.085800,0.297302,-0.491407,-3.97515964508057,-4.29556798934937,8.04864120483398,0.87035787105560,0.55388736724854,0.94464749097824
199,2271035259,0.814091,-0.085823,0.297299,-0.491430,-3.99031281471252,-4.29694032669067,8.07201671600342,0.86701548099518,0.53741842508316,0.80485349893570
200,2271051926,0.814080,-0.085806,0.297278,-0.491464,-3.97898197174072,-4.27449464797974,8.03642654418945,1.17092299461365,0.56978017091751,0.82088708877563
201,2271068593,0.814099,-0.085825,0.297298,-0.491417,-3.97213888168335,-4.29833841323853,8.04212379455566,0.79129159450531,0.68832844495773,1.10956764221191
202,2271085260,0.814113,-0.085766,0.297299,-0.491404,-3.98636031150818,-4.31374835968018,8.04634761810303,1.32124364376068,0.83012026548386,1.14385020732880
203,2271101927,0.814092,-0.085678,0.297256,-0.491481,-4.00499343872070,-4.28104734420776,8.06306266784668,1.62836563587189,0.62889420986176,0.87760633230209
204,2271118594,0.814073,-0.085725,0.297280,-0.491488,-3.98000001907349,-4.26561117172241,8.06745624542236,0.63095605373383,0.64333987236023,0.78847414255142
205,2271135261,0.814058,-0.085809,0.297334,-0.491467,-3.97872900962830,-4.33513402938843,8.05250930786133,0.27785938978195,0.66338181495667,0.88507252931595
206,2271151928,0.814047,-0.085698,0.297285,-0.491533,-3.98767638206482,-4.29242467880249,8.04312515258789,1.81426286697388,0.70352965593338,0.91352820396423
207,2271168595,0.814038,-0.085706,0.297317,-0.491527,-3.98287677764893,-4.27376699447632,8.06009960174561,0.79450583457947,0.78481143712997,0.98240065574646
208,2271185262,0.814045,-0.085711,0.297345,-0.491499,-3.96915435791016,-4.33277702331543,8.07159423828125,0.81229400634766,0.74320369958878,1.13228631019592
209,2271201929,0.814055,-0.085550,0.297275,-0.491553,-3.96549224853516,-4.27466249465942,8.04524421691895,2.20403695106506,0.76391160488129,1.03854382038116
210,2271218596,0.814039,-0.085562,0.297304,-0.491559,-3.98415327072144,-4.24847364425659,8.07602882385254,0.73348373174667,0.68712472915649,1.03853106498718
211,2271235263,0.814010,-0.085678,0.297380,-0.491540,-3.97436523437500,-4.32567977905273,8.02437019348145,-0.03929628804326,0.65658152103424,0.88140976428986
212,2271251930,0.814010,-0.085618,0.297326,-0.491584,-3.98709845542908,-4.31483888626099,8.05302524566650,1.60555768013000,0.56568205356598,0.77674347162247
213,2271268597,0.813990,-0.085624,0.297332,-0.491612,-3.98199200630188,-4.28040695190430,8.06422805786133,0.93930727243423,0.67092466354370,0.78595131635666
214,2271285264,0.813983,-0.085670,0.297364,-0.491597,-3.98361325263977,-4.30406713485718,8.04175949096680,0.62480908632278,0.70459258556366,0.84382325410843
215,2271301931,0.813978,-0.085643,0.297343,-0.491621,-3.97979426383972,-4.29373311996460,8.04370498657227,1.27794563770294,0.65982151031494,0.78921687602997
216,2271318598,0.813968,-0.085668,0.297348,-0.491631,-3.97543501853943,-4.30252408981323,8.03321170806885,0.85087949037552,0.60639345645905,0.79673427343369
217,2271335265,0.813956,-0.085691,0.297343,-0.491650,-3.98724222183228,-4.28388690948486,8.06129455566406,0.86196982860565,0.51649290323257,0.84250408411026
218,2271351932,0.813946,-0.085724,0.297349,-0.491658,-3.98864316940308,-4.28792667388916,8.05312919616699,0.79842460155487,0.59169179201126,0.78309541940689
219,2271368599,0.813935,-0.085765,0.297364,-0.491659,-3.98642802238464,-4.31689405441284,8.06266403198242,0.64228963851929,0.54599869251251,0.94341820478439
220,2271385266,0.813944,-0.085693,0.297324,-0.491681,-3.98381185531616,-4.30220270156860,8.03856086730957,1.56036388874054,0.63361966609955,1.01135587692261
221,2271401933,0.813960,-0.085673,0.297310,-0.491667,-3.98877048492432,-4.27778434753418,8.05169963836670,1.13357985019684,0.58928418159485,1.08875751495361
222,2271418600,0.813987,-0.085698,0.297322,-0.491611,-3.98924946784973,-4.29930114746094,8.03452014923096,0.82882696390152,0.66454708576202,1.06512975692749
223,2271435267,0.813993,-0.085675,0.297300,-0.491618,-3.98643183708191,-4.30353641510010,8.05157661437988,1.19439709186554,0.56397879123688,0.98736947774887
224,2271451934,0.814008,-0.085673,0.297293,-0.491598,-3.98187708854675,-4.29741048812866,8.02966976165771,1.06090366840363,0.63692378997803,0.95289486646652
225,2271468601,0.813998,-0.085680,0.297284,-0.491619,-3.97290134429932,-4.29682159423828,8.05108070373535,0.97867399454117,0.55680727958679,0.85310775041580
226,2271485268,0.813989,-0.085729,0.297286,-0.491624,-3.99623274803162,-4.29161930084229,8.04626083374023,0.73122972249985,0.52824908494949,0.73823475837708
227,2271501935,0.813990,-0.085811,0.297288,-0.491606,-3.97414350509644,-4.31749486923218,8.06036853790283,0.59934997558594,0.47552534937859,0.65483987331390
228,2271518602,0.813985,-0.085842,0.297254,-0.491630,-3.97657895088196,-4.32053232192993,8.05603885650635,0.96970969438553,0.36119031906128,0.71286553144455
229,2271535269,0.813997,-0.085906,0.297216,-0.491621,-3.97169637680054,-4.28885889053345,8.07140922546387,0.81837695837021,0.25137582421303,0.73874706029892
230,2271551936,0.813998,-0.085967,0.297194,-0.491622,-3.96516895294189,-4.29396390914917,8.05453968048096,0.72863006591797,0.31340983510017,0.79528719186783
231,2271568603,0.814008,-0.086035,0.297163,-0.491612,-3.97159838676453,-4.30295944213867,8.06127452850342,0.72103583812714,0.23555999994278,0.81757020950317
232,2271585270,0.814039,-0.086009,0.297088,-0.491611,-3.96350049972534,-4.29790735244751,8.05978107452393,1.40805828571320,0.24465252459049,1.05562746524811
233,2271601937,0.814038,-0.086066,0.297104,-0.491594,-3.97170877456665,-4.30739164352417,8.02705287933350,0.52011710405350,0.46463999152184,1.04242408275604
234,2271618604,0.814059,-0.086021,0.297076,-0.491584,-3.95812439918518,-4.30834484100342,8.02898788452148,1.28701221942902,0.54634445905685,1.22064995765686
235,2271635271,0.814087,-0.085963,0.297076,-0.491547,-3.97413778305054,-4.30530929565430,8.04057884216309,1.29718065261841,0.78988277912140,1.28204357624054
236,2271651938,0.814083,-0.085968,0.297121,-0.491525,-3.98311233520508,-4.33292007446289,8.03938579559326,0.70579636096954,0.81256288290024,1.16979598999023
237,2271668605,0.814073,-0.085894,0.297090,-0.491574,-4.00619506835938,-4.32591676712036,8.07546424865723,1.58326172828674,0.74777555465698,0.80512237548828
238,2271685272,0.814028,-0.085891,0.297093,-0.491647,-3.99062395095825,-4.25672769546509,8.10023403167725,1.08063817024231,0.76014655828476,0.46219399571419
239,2271701939,0.813972,-0.085986,0.297151,-0.491688,-3.93969392776489,-4.29919958114624,8.02910041809082,0.24570260941982,0.70767885446548,0.49682229757309
240,2271718606,0.813947,-0.085975,0.297170,-0.491720,-3.95827746391296,-4.29364204406738,8.02805995941162,1.01153516769409,0.82654738426208,0.75155347585678
241,2271735273,0.813943,-0.085940,0.297188,-0.491722,-3.97692608833313,-4.27899551391602,8.04515361785889,1.14148116111755,0.87784969806671,0.97832834720612
242,2271751940,0.813957,-0.085907,0.297196,-0.491700,-3.98170733451843,-4.28322410583496,8.06878852844238,1.15253305435181,0.80478948354721,1.08991003036499
243,2271768607,0.813966,-0.085877,0.297173,-0.491704,-3.97536683082581,-4.30262756347656,8.05324935913086,1.25402343273163,0.59552091360092,0.98519271612167
244,2271785274,0.813995,-0.085858,0.297155,-0.491670,-3.98648047447205,-4.28425312042236,8.05981731414795,1.15791177749634,0.57993555068970,1.14013659954071
245,2271801941,0.813991,-0.085873,0.297168,-0.491667,-3.98456883430481,-4.30468654632568,8.06353664398193,0.72974425554276,0.53839182853699,1.16997539997101
246,2271818608,0.813995,-0.085891,0.297193,-0.491641,-3.96971154212952,-4.30614852905273,8.05704116821289,0.71880751848221,0.65647906064987,1.14400398731232
247,2271835275,0.814026,-0.085862,0.297166,-0.491612,-3.96773695945740,-4.30627489089966,8.05705070495605,1.24221587181091,0.55423313379288,1.16294455528259
248,2271851942,0.814037,-0.085834,0.297155,-0.491606,-3.97648358345032,-4.30042362213135,8.05789566040039,1.12446165084839,0.58329087495804,1.17388129234314
249,2271868609,0.814025,-0.085864,0.297154,-0.491621,-3.98830270767212,-4.29359483718872,8.06744194030762,0.75328230857849,0.46666339039803,0.94181746244431
250,2271885276,0.814007,-0.085923,0.297196,-0.491615,-3.97474741935730,-4.30536651611328,8.05036735534668,0.45864662528038,0.66438066959381,0.89787888526917
251,2271901943,0.813994,-0.085925,0.297210,-0.491626,-3.95631265640259,-4.29509878158569,8.04621887207031,0.93990916013718,0.73523819446564,0.84133869409561
252,2271918610,0.813993,-0.085889,0.297235,-0.491620,-3.96625971794128,-4.31168413162231,8.03285408020020,1.02098631858826,0.82748234272003,1.20065927505493
253,2271935277,0.813990,-0.085846,0.297260,-0.491616,-3.99550533294678,-4.33041000366211,8.03413867950439,1.12884151935577,0.91760069131851,1.07281351089478
254,2271951944,0.813975,-0.085819,0.297253,-0.491650,-3.98689866065979,-4.28056478500366,8.04496192932129,1.20697283744812,0.71928149461746,0.78116172552109
255,2271968611,0.813937,-0.085946,0.297344,-0.491636,-3.98935651779175,-4.29114866256714,8.06356716156006,-0.08475882560015,0.78824371099472,0.68492203950882
256,2271985278,0.813899,-0.085944,0.297353,-0.491695,-3.98415970802307,-4.32408857345581,8.04673385620117,1.01417326927185,0.74983739852905,0.61012011766434
257,2272001945,0.813883,-0.085952,0.297374,-0.491707,-3.97464013099670,-4.30275869369507,8.05024528503418,0.87127995491028,0.75232183933258,0.83738166093826
258,2272018612,0.813883,-0.085942,0.297386,-0.491701,-3.96689915657043,-4.29245328903198,8.04018497467041,1.05398821830750,0.80531460046768,0.87404626607895
259,2272035279,0.813883,-0.085910,0.297389,-0.491706,-3.96656131744385,-4.28474235534668,8.05393600463867,1.15723299980164,0.75097709894180,1.00657904148102
260,2272051946,0.813881,-0.085928,0.297428,-0.491681,-3.97322654724121,-4.28333425521851,8.04734039306641,0.65549302101135,0.73514848947525,1.15651583671570
261,2272068613,0.813882,-0.085940,0.297447,-0.491666,-3.99116086959839,-4.29681015014648,8.05144882202148,0.80746603012085,0.67680275440216,1.04717528820038
262,2272085280,0.813878,-0.085968,0.297489,-0.491642,-3.99210333824158,-4.31573677062988,8.03157901763916,0.59812057018280,0.72950094938278,1.10692965984344
263,2272101947,0.813905,-0.085964,0.297485,-0.491602,-3.98885989189148,-4.33271884918213,8.03117752075195,1.00660479068756,0.60148864984512,1.17158901691437
264,2272118614,0.813902,-0.085889,0.297458,-0.491635,-3.99379706382751,-4.27814006805420,8.06385040283203,1.54329288005829,0.73609608411789,0.93319851160049
265,2272135281,0.813912,-0.085932,0.297490,-0.491592,-3.98072099685669,-4.27621698379517,8.03198814392090,0.56524664163589,0.63642436265945,1.11595809459686
266,2272151948,0.813927,-0.085976,0.297510,-0.491548,-3.96605443954468,-4.31459665298462,8.04611682891846,0.64593952894211,0.60041296482086,1.05514085292816
267,2272168615,0.813945,-0.085909,0.297480,-0.491548,-3.98343944549561,-4.27941608428955,8.03870010375977,1.45991098880768,0.64664381742477,1.14806354045868
268,2272185282,0.813937,-0.085973,0.297524,-0.491522,-3.98017168045044,-4.30177593231201,8.04422855377197,0.40693455934525,0.64622122049332,0.99634683132172
269,2272201949,0.813966,-0.085941,0.297513,-0.491486,-3.98114061355591,-4.31750345230103,8.02581119537354,1.21628320217133,0.67755842208862,1.15716910362244
270,2272218616,0.813972,-0.085896,0.297491,-0.491498,-3.98929047584534,-4.27560949325562,8.04249191284180,1.30480062961578,0.61968648433685,1.05827832221985
271,2272235283,0.813967,-0.085946,0.297532,-0.491473,-3.98571419715881,-4.29909276962280,8.02375698089600,0.44657024741173,0.61916142702103,1.11739253997803
272,2272251950,0.813969,-0.085951,0.297538,-0.491465,-3.97479534149170,-4.30159854888916,8.02957439422607,0.86582458019257,0.58512210845947,1.10413789749146
273,2272268617,0.813984,-0.085939,0.297541,-0.491441,-3.98390364646912,-4.31230878829956,8.04396247863770,0.98140180110931,0.62122321128845,1.20926523208618
274,2272285284,0.813991,-0.085956,0.297536,-0.491430,-3.97077131271362,-4.29155063629150,8.05615901947021,0.85546422004700,0.48971486091614,1.06023776531219
275,2272301951,0.813992,-0.085977,0.297529,-0.491427,-3.98807811737061,-4.30749988555908,8.06019687652588,0.80307334661484,0.43724718689919,1.07400453090668
276,2272318618,0.813988,-0.085979,0.297520,-0.491439,-3.97324299812317,-4.30682897567749,8.05701446533203,0.96208989620209,0.52424085140228,0.98812526464462
277,2272335285,0.813989,-0.086008,0.297518,-0.491435,-3.99046492576599,-4.31006717681885,8.04118919372559,0.78881996870041,0.48208227753639,0.98374545574188
278,2272351952,0.813990,-0.086028,0.297524,-0.491425,-4.00655746459961,-4.32904481887817,8.03382110595703,0.77151846885681,0.52594393491745,1.09603154659271
279,2272368619,0.813998,-0.085935,0.297462,-0.491467,-3.96767902374268,-4.26746749877930,8.05364894866943,1.80657911300659,0.60803270339966,0.88517498970032
280,2272385286,0.813995,-0.086085,0.297539,-0.491398,-3.98084020614624,-4.31328201293945,8.06186962127686,-0.24432592093945,0.53877592086792,1.04175806045532
281,2272401953,0.814011,-0.085964,0.297476,-0.491432,-3.97710299491882,-4.28755998611450,8.05830192565918,1.91769981384277,0.63857579231262,1.08699023723602
282,2272418620,0.813994,-0.085994,0.297519,-0.491428,-3.97838377952576,-4.27793836593628,8.05326366424561,0.62320816516876,0.77114707231522,0.94079273939133
283,2272435287,0.813984,-0.086096,0.297587,-0.491386,-3.98040223121643,-4.35822296142578,8.02848815917969,0.08937551826239,0.66043633222580,0.98912411928177
284,2272451954,0.813985,-0.086030,0.297534,-0.491427,-4.00121545791626,-4.31351280212402,8.06058692932129,1.64792084693909,0.61681771278381,0.76420599222183
285,2272468621,0.813963,-0.086062,0.297527,-0.491462,-4.01155281066895,-4.27562332153320,8.08065128326416,0.84283721446991,0.50691378116608,0.70003348588943
286,2272485288,0.813937,-0.086142,0.297565,-0.491468,-3.97508144378662,-4.31145668029785,8.03844165802002,0.33880475163460,0.56386357545853,0.81189697980881
287,2272501955,0.813950,-0.086152,0.297559,-0.491450,-3.96568131446838,-4.31033372879028,8.01795673370361,0.94206070899963,0.55428445339203,1.02653133869171
288,2272518622,0.813968,-0.086086,0.297530,-0.491448,-3.96563744544983,-4.28703832626343,7.99584960937500,1.44587516784668,0.63733357191086,1.16957807540894
289,2272535289,0.814013,-0.086107,0.297534,-0.491368,-3.97389769554138,-4.30139827728271,8.03251075744629,0.84110832214355,0.57597845792770,1.25102686882019
290,2272551956,0.814019,-0.086056,0.297516,-0.491377,-3.97291207313538,-4.30657768249512,8.04034423828125,1.23632502555847,0.57134246826172,1.25570106506348
291,2272568623,0.814059,-0.086051,0.297489,-0.491329,-3.98066163063049,-4.29321765899658,8.05004501342773,1.07810246944427,0.44283077120781,1.24041020870209
292,2272585290,0.814081,-0.086063,0.297475,-0.491298,-3.99795770645142,-4.29557275772095,8.05629253387451,0.89000296592712,0.43138191103935,1.20843279361725
293,2272601957,0.814062,-0.086114,0.297492,-0.491310,-3.97847270965576,-4.31828880310059,8.06306838989258,0.53916007280350,0.47763845324516,0.94936031103134
294,2272618624,0.814060,-0.086089,0.297453,-0.491342,-3.98513889312744,-4.32253694534302,8.05439472198486,1.30764353275299,0.50577402114868,0.82193720340729
295,2272635291,0.814046,-0.086116,0.297423,-0.491378,-3.97855448722839,-4.29596233367920,8.05086898803711,0.96689224243164,0.38160362839699,0.70288932323456
296,2272651958,0.814034,-0.086189,0.297421,-0.491387,-3.97933292388916,-4.30491161346436,8.02647876739502,0.61216914653778,0.42821872234344,0.67178267240524
297,2272668625,0.814044,-0.086132,0.297378,-0.491407,-3.95048594474792,-4.26993322372437,8.01146697998047,1.52778470516205,0.61278384923935,0.89138597249985
298,2272685292,0.814041,-0.086239,0.297451,-0.491348,-3.96000266075134,-4.32044506072998,8.02292442321777,-0.03800284117460,0.59327977895737,1.20222163200378
299,2272701959,0.814071,-0.086117,0.297400,-0.491351,-3.99659752845764,-4.33524227142334,8.04589557647705,1.87112307548523,0.71460723876953,1.23017799854279
300,2272718626,0.814075,-0.086134,0.297385,-0.491351,-4.01957321166992,-4.29406213760376,8.09492015838623,0.96968412399292,0.51481527090073,0.85920363664627
301,2272735293,0.814050,-0.086241,0.297445,-0.491337,-3.97603154182434,-4.32032537460327,8.04171276092529,0.16005374491215,0.67182111740112,0.72398132085800
302,2272751960,0.814026,-0.086268,0.297453,-0.491368,-3.97173476219177,-4.33634853363037,8.04658699035645,0.78838455677032,0.57828354835510,0.78523415327072
303,2272768627,0.814042,-0.086223,0.297403,-0.491377,-3.97078752517700,-4.28095817565918,8.01999282836914,1.49060797691345,0.54311734437943,0.89007979631424
304,2272785294,0.814063,-0.086245,0.297418,-0.491330,-3.96969819068909,-4.27672576904297,8.03852462768555,0.79152208566666,0.63935697078705,1.12298882007599
305,2272801961,0.814073,-0.086265,0.297454,-0.491288,-3.96616792678833,-4.32560777664185,8.03141021728516,0.65700417757034,0.70651358366013,1.21931827068329
306,2272818628,0.814114,-0.086180,0.297416,-0.491258,-3.96916770935059,-4.31732892990112,8.04107666015625,1.69572734832764,0.75557470321655,1.12438476085663
307,2272835295,0.814106,-0.086121,0.297421,-0.491279,-3.98536109924316,-4.27933025360107,8.05865192413330,1.25996530056000,0.81541854143143,1.07248032093048
308,2272851962,0.814105,-0.086124,0.297468,-0.491252,-3.99586272239685,-4.32582092285156,8.05489826202393,0.72040832042694,0.83439773321152,1.18134725093842
309,2272868629,0.814108,-0.086079,0.297446,-0.491268,-3.98743748664856,-4.33210134506226,8.05943202972412,1.33990252017975,0.65615886449814,0.96591871976852
310,2272885296,0.814101,-0.086050,0.297423,-0.491299,-3.98901391029358,-4.27939033508301,8.04705333709717,1.29036784172058,0.64981979131699,0.77256864309311
311,2272901963,0.814086,-0.086143,0.297470,-0.491278,-3.97595357894897,-4.29957056045532,8.04556274414062,0.27159702777863,0.61635673046112,0.81598210334778
312,2272918630,0.814076,-0.086141,0.297467,-0.491298,-3.96620750427246,-4.31008338928223,8.02706718444824,1.00660479068756,0.62007069587708,0.87683802843094
313,2272935297,0.814066,-0.086118,0.297459,-0.491323,-3.96774387359619,-4.31359291076660,8.01776885986328,1.11032319068909,0.62202996015549,0.96832650899887
314,2272951964,0.814066,-0.086092,0.297464,-0.491325,-3.97595763206482,-4.30971956253052,8.04026699066162,1.11133503913879,0.74305009841919,1.00276279449463
315,2272968631,0.814070,-0.086094,0.297476,-0.491311,-3.97656774520874,-4.27581119537354,8.05835819244385,0.98505169153214,0.75785422325134,0.88432973623276
316,2272985298,0.814055,-0.086172,0.297543,-0.491281,-3.98290276527405,-4.32636547088623,8.06176757812500,0.24764922261238,0.74900501966476,0.96558588743210
317,2273001965,0.814064,-0.086135,0.297538,-0.491276,-3.97641611099243,-4.34056615829468,8.01713180541992,1.22105979919434,0.73128098249435,1.03972196578979
318,2273018632,0.814085,-0.086095,0.297512,-0.491263,-3.98006939888000,-4.28354215621948,8.05201339721680,1.40536880493164,0.70345276594162,0.90990394353867
319,2273035299,0.814072,-0.086137,0.297548,-0.491257,-3.99200296401978,-4.27906179428101,8.07772159576416,0.59021902084351,0.70164704322815,0.90157985687256
320,2273051966,0.814059,-0.086169,0.297571,-0.491259,-3.97732639312744,-4.31995725631714,8.03310489654541,0.66600704193115,0.61324489116669,0.95654475688934
321,2273068633,0.814067,-0.086166,0.297572,-0.491245,-3.96924686431885,-4.32220649719238,8.04524993896484,1.03630268573761,0.68922495841980,0.93109846115112
322,2273085300,0.814062,-0.086160,0.297573,-0.491254,-3.98019194602966,-4.32241916656494,8.03873157501221,1.00068819522858,0.64885926246643,0.94996225833893
323,2273101967,0.814050,-0.086189,0.297608,-0.491248,-4.00044822692871,-4.32681941986084,8.05285644531250,0.66667300462723,0.73064070940018,0.94302129745483
324,2273118634,0.814072,-0.086154,0.297569,-0.491241,-3.98528528213501,-4.30508136749268,8.04749870300293,1.39185833930969,0.57246953248978,0.94539040327072
325,2273135301,0.814081,-0.086207,0.297600,-0.491197,-3.97285223007202,-4.27795028686523,8.05123996734619,0.55516809225082,0.64511990547180,1.02039718627930
326,2273151968,0.814102,-0.086174,0.297604,-0.491166,-3.97402977943420,-4.30351257324219,8.02846622467041,1.10368967056274,0.70050722360611,1.27040255069733
327,2273168635,0.814117,-0.086186,0.297615,-0.491133,-3.98938369750977,-4.30439424514771,8.05996990203857,0.87359803915024,0.66695475578308,1.04594588279724
328,2273185302,0.814099,-0.086261,0.297643,-0.491133,-3.99648499488831,-4.32363843917847,8.03216266632080,0.42828273773193,0.53770017623901,0.82346099615097
329,2273201969,0.814063,-0.086320,0.297677,-0.491161,-4.01374197006226,-4.32122659683228,8.07202720642090,0.55500149726868,0.68480670452118,0.61026096343994
330,2273218636,0.814022,-0.086349,0.297695,-0.491212,-3.99692702293396,-4.32677078247070,8.03096675872803,0.77406698465347,0.68569040298462,0.61686915159225
331,2273235303,0.814003,-0.086383,0.297713,-0.491227,-3.95217537879944,-4.30037021636963,8.05433082580566,0.80696660280228,0.71885889768600,0.62793374061584
332,2273251970,0.813973,-0.086426,0.297778,-0.491230,-3.96961402893066,-4.31556653976440,8.03701972961426,0.45736601948738,0.85791021585464,0.88715994358063
333,2273268637,0.813968,-0.086375,0.297774,-0.491249,-3.99348735809326,-4.30082273483276,8.05949592590332,1.32190990447998,0.80842643976212,0.92556619644165
334,2273285304,0.813963,-0.086396,0.297807,-0.491234,-3.97406458854675,-4.29693031311035,8.05424499511719,0.73306113481522,0.75630468130112,0.97339791059494
335,2273301971,0.813976,-0.086467,0.297859,-0.491168,-3.98074841499329,-4.32564306259155,8.03286838531494,0.34172460436821,0.68955785036087,1.11988961696625
336,2273318638,0.813979,-0.086400,0.297830,-0.491193,-3.99327182769775,-4.30725431442261,8.04634094238281,1.48192501068115,0.67305040359497,1.00180232524872
337,2273335305,0.813974,-0.086464,0.297876,-0.491163,-3.99196457862854,-4.28709077835083,8.05720424652100,0.39106750488281,0.64522230625153,1.03485548496246
338,2273351972,0.813963,-0.086524,0.297927,-0.491138,-3.97248291969299,-4.35266971588135,8.03284740447998,0.38381913304329,0.68597215414047,1.02338099479675
339,2273368639,0.813970,-0.086482,0.297895,-0.491154,-3.98347306251526,-4.32555866241455,8.04453277587891,1.30900108814240,0.52991396188736,1.06473278999329
340,2273385306,0.813970,-0.086521,0.297903,-0.491142,-3.97421336174011,-4.31304693222046,8.06294059753418,0.73284345865250,0.56479847431183,0.90296298265457
341,2273401973,0.813968,-0.086561,0.297899,-0.491141,-3.97659516334534,-4.31215524673462,8.04005813598633,0.78415840864182,0.48844695091248,0.83767610788345
342,2273418640,0.813967,-0.086599,0.297911,-0.491128,-3.99004602432251,-4.29614162445068,8.04810333251953,0.71234041452408,0.58065277338028,0.93349325656891
343,2273435307,0.813945,-0.086670,0.297969,-0.491117,-3.98047566413879,-4.31612253189087,8.05552291870117,0.29235613346100,0.67938971519470,0.95730030536652
344,2273451974,0.813952,-0.086632,0.297954,-0.491121,-3.98597455024719,-4.33157491683960,8.06165122985840,1.23524928092957,0.64262264966965,1.06077551841736
345,2273468641,0.813942,-0.086630,0.297949,-0.491142,-3.98478126525879,-4.30877637863159,8.02998161315918,1.01378893852234,0.60647028684616,0.87791365385056
346,2273485308,0.813934,-0.086693,0.297987,-0.491121,-3.97991156578064,-4.31621408462524,8.03578662872314,0.47785609960556,0.66859394311905,0.88123059272766
347,2273501975,0.813928,-0.086648,0.297964,-0.491152,-3.96244525909424,-4.31985235214233,8.03032779693604,1.34889280796051,0.65404582023621,0.88754415512085
348,2273518642,0.813928,-0.086680,0.297992,-0.491130,-3.99016499519348,-4.29923725128174,8.02841377258301,0.65044736862183,0.65747803449631,1.04629147052765
349,2273535309,0.813923,-0.086646,0.298017,-0.491129,-3.97786474227905,-4.32122278213501,8.03994846343994,1.03942739963531,0.84687107801437,1.11753320693970
350,2273551976,0.813929,-0.086625,0.298012,-0.491125,-3.99551558494568,-4.32005167007446,8.05039501190186,1.09608268737793,0.63956195116043,1.08468508720398
351,2273568643,0.813929,-0.086624,0.298024,-0.491120,-3.98185515403748,-4.30624580383301,8.05126285552979,0.93363416194916,0.69418102502823,0.98639619350433
352,2273585310,0.813934,-0.086650,0.298061,-0.491083,-3.97829198837280,-4.31704139709473,8.02411937713623,0.68411517143250,0.76086354255676,1.05905938148499
353,2273601977,0.813953,-0.086638,0.298071,-0.491048,-3.99918866157532,-4.32167673110962,8.00975704193115,1.02753031253815,0.75120770931244,1.10367679595947
354,2273618644,0.813937,-0.086604,0.298065,-0.491084,-3.98312902450562,-4.31249427795410,8.05331420898438,1.23202204704285,0.73630106449127,0.80659520626068
355,2273635311,0.813919,-0.086627,0.298109,-0.491083,-3.99095726013184,-4.32584905624390,8.04311275482178,0.65231710672379,0.79211121797562,0.95756924152374
356,2273651978,0.813901,-0.086597,0.298100,-0.491123,-3.99599099159241,-4.32036161422729,8.03966236114502,1.23449373245239,0.71843624114990,0.76672899723053
357,2273668645,0.813875,-0.086624,0.298123,-0.491148,-3.97561407089233,-4.30602693557739,8.03275966644287,0.75037533044815,0.70468223094940,0.75396108627319
358,2273685312,0.813849,-0.086671,0.298155,-0.491163,-3.98932504653931,-4.33799219131470,8.04807281494141,0.62022429704666,0.70424675941467,0.71823132038116
359,2273701979,0.813834,-0.086640,0.298151,-0.491197,-3.98488116264343,-4.31549501419067,8.04366111755371,1.18403673171997,0.71871793270111,0.86587566137314
360,2273718646,0.813846,-0.086646,0.298158,-0.491172,-3.99691700935364,-4.31512498855591,8.04122829437256,0.95833754539490,0.68661242723465,0.97515231370926
361,2273735313,0.813837,-0.086620,0.298159,-0.491190,-3.96623301506042,-4.29927158355713,8.03031730651855,1.12419271469116,0.72531330585480,0.93636196851730
362,2273751980,0.813843,-0.086646,0.298175,-0.491165,-3.97526431083679,-4.31249237060547,8.03547573089600,0.71987050771713,0.58637720346451,1.09909212589264
363,2273768647,0.813864,-0.086600,0.298141,-0.491161,-3.98562097549438,-4.30950832366943,8.02605533599854,1.39668583869934,0.59292107820511,1.04470360279083
364,2273785314,0.813875,-0.086610,0.298139,-0.491141,-4.00365877151489,-4.31359386444092,8.05327510833740,0.91608953475952,0.57433921098709,1.04243683815002
365,2273801981,0.813872,-0.086672,0.298149,-0.491130,-3.98726677894592,-4.32536411285400,8.03351116180420,0.56925505399704,0.46259096264839,0.89833980798721
366,2273818648,0.813895,-0.086661,0.298118,-0.491111,-3.99866509437561,-4.32668066024780,8.02171707153320,1.19797003269196,0.52101355791092,0.98786908388138
367,2273835315,0.813890,-0.086609,0.298088,-0.491148,-3.97807860374451,-4.28857851028442,8.03127479553223,1.40561223030090,0.62179952859879,0.90927654504776
368,2273851982,0.813883,-0.086755,0.298161,-0.491088,-3.98259806632996,-4.33906984329224,8.02886104583740,-0.12915845215321,0.61065798997879,0.85068750381470
369,2273868649,0.813883,-0.086646,0.298087,-0.491153,-3.99394226074219,-4.30716133117676,8.05803680419922,1.95634937286377,0.60428047180176,0.81141030788422
370,2273885316,0.813871,-0.086707,0.298107,-0.491151,-3.97224164009094,-4.27904415130615,8.04933357238770,0.57996118068695,0.57564538717270,0.77717888355255
371,2273901983,0.813861,-0.086790,0.298166,-0.491116,-3.96848297119141,-4.35488557815552,8.01314353942871,0.20392835140228,0.63889598846436,1.04805886745453
372,2273918650,0.813866,-0.086635,0.298109,-0.491169,-3.96212601661682,-4.31221055984497,8.01398468017578,2.11519932746887,0.81429171562195,1.04072082042694
373,2273935317,0.813837,-0.086691,0.298167,-0.491172,-3.97768163681030,-4.31223249435425,8.03630447387695,0.38165479898453,0.74671268463135,0.90927642583847
374,2273951984,0.813826,-0.086741,0.298192,-0.491168,-4.00057363510132,-4.35122442245483,8.05184459686279,0.58239436149597,0.59518790245056,0.90384662151337
375,2273968651,0.813824,-0.086696,0.298142,-0.491208,-3.99892163276672,-4.31914234161377,8.05167865753174,1.55061841011047,0.60113006830215,0.65021681785583
376,2273985318,0.813823,-0.086737,0.298142,-0.491203,-3.97574186325073,-4.29474878311157,8.03609466552734,0.80654388666153,0.56228840351105,0.75640708208084
377,2274001985,0.813797,-0.086807,0.298185,-0.491207,-3.95852684974670,-4.31493234634399,8.01880168914795,0.42057335376740,0.66773587465286,0.75604850053787
378,2274018652,0.813802,-0.086778,0.298179,-0.491207,-3.97661876678467,-4.31077814102173,8.03264045715332,1.16604387760162,0.68881517648697,1.02457201480865
379,2274035319,0.813792,-0.086807,0.298196,-0.491209,-3.97514891624451,-4.33666944503784,8.03564548492432,0.69917541742325,0.58154910802841,0.98371970653534
380,2274051986,0.813808,-0.086775,0.298163,-0.491208,-3.97030520439148,-4.32226276397705,8.06091690063477,1.28550136089325,0.52434325218201,1.05832958221436
381,2274068653,0.813819,-0.086719,0.298125,-0.491223,-3.98222589492798,-4.30804586410522,8.05076789855957,1.43183958530426,0.56342810392380,1.04744410514832
382,2274085320,0.813822,-0.086727,0.298139,-0.491208,-3.98667740821838,-4.31787681579590,8.03878974914551,0.85035449266434,0.65923249721527,1.06055796146393
383,2274101987,0.813831,-0.086746,0.298140,-0.491189,-3.99448800086975,-4.31049728393555,8.03548431396484,0.88927298784256,0.59427869319916,0.94369995594025
384,2274118654,0.813828,-0.086769,0.298148,-0.491185,-3.96774053573608,-4.34392738342285,8.05145835876465,0.84454041719437,0.63561755418777,0.88012915849686
385,2274135321,0.813822,-0.086740,0.298127,-0.491212,-3.98265290260315,-4.30883979797363,8.02036762237549,1.23460912704468,0.60511285066605,0.88229352235794
386,2274151988,0.813797,-0.086784,0.298159,-0.491227,-3.98626852035522,-4.29070281982422,8.05294227600098,0.65786224603653,0.73600655794144,0.69195270538330
387,2274168655,0.813767,-0.086876,0.298210,-0.491229,-3.97734117507935,-4.32261657714844,8.03800678253174,0.26319614052773,0.64168781042099,0.72401982545853
388,2274185322,0.813758,-0.086857,0.298223,-0.491240,-3.97033309936523,-4.33053302764893,8.02012443542480,1.05884182453156,0.79238009452820,0.91086453199387
389,2274201989,0.813773,-0.086842,0.298237,-0.491209,-3.96659803390503,-4.32049369812012,8.02865886688232,1.00275003910065,0.75539541244507,1.13112092018127
390,2274218656,0.813771,-0.086772,0.298237,-0.491225,-3.99676060676575,-4.31612491607666,8.05959987640381,1.31024324893951,0.77856200933456,1.19808518886566
391,2274235323,0.813755,-0.086786,0.298246,-0.491243,-3.98251938819885,-4.31224679946899,8.04054164886475,0.85012388229370,0.62512910366058,0.86599093675613
392,2274251990,0.813741,-0.086815,0.298269,-0.491247,-3.97207522392273,-4.31142425537109,8.04396915435791,0.70810151100159,0.65653032064438,0.90805989503860
393,2274268657,0.813741,-0.086834,0.298282,-0.491236,-3.98253464698792,-4.32670831680298,8.02206325531006,0.84042954444885,0.66636568307877,0.91993141174316
394,2274285324,0.813761,-0.086818,0.298290,-0.491201,-3.98337626457214,-4.30586767196655,8.03720664978027,1.02995061874390,0.71830809116364,1.16225302219391
395,2274301991,0.813763,-0.086835,0.298295,-0.491192,-3.98715305328369,-4.31737899780273,8.02702522277832,0.89676469564438,0.63308191299438,0.88969558477402
396,2274318658,0.813752,-0.086841,0.298325,-0.491191,-3.98488783836365,-4.31847190856934,8.02871131896973,0.84379750490189,0.81240910291672,0.91369456052780
397,2274335325,0.813740,-0.086831,0.298348,-0.491198,-3.97961831092834,-4.33093547821045,8.02324581146240,0.91424536705017,0.76368111371994,1.02117836475372
398,2274351992,0.813723,-0.086816,0.298369,-0.491217,-3.98121738433838,-4.32064342498779,8.02698230743408,0.97055470943451,0.78313380479813,0.94016528129578
399,2274368659,0.813710,-0.086822,0.298386,-0.491227,-3.98106431961060,-4.32961368560791,8.02318096160889,0.89073294401169,0.73225426673889,0.87267589569092
400,2274385326,0.813695,-0.086841,0.298418,-0.491229,-3.99560427665710,-4.33144187927246,8.04233074188232,0.75694489479065,0.76318156719208,0.88861978054047
401,2274401993,0.813675,-0.086811,0.298416,-0.491269,-3.98349356651306,-4.31740522384644,8.02767658233643,1.13812601566315,0.69751071929932,0.89705926179886
402,2274418660,0.813654,-0.086855,0.298451,-0.491275,-3.98472881317139,-4.30019664764404,8.02387523651123,0.59144848585129,0.69167095422745,0.82632976770401
403,2274435327,0.813642,-0.086875,0.298465,-0.491283,-3.97190046310425,-4.33218383789062,8.02386283874512,0.80993765592575,0.65139496326447,0.88176834583282
404,2274451994,0.813643,-0.086850,0.298455,-0.491291,-3.98910832405090,-4.32808685302734,8.02564430236816,1.14554071426392,0.63315868377686,1.00648939609528
405,2274468661,0.813645,-0.086827,0.298453,-0.491293,-3.98374152183533,-4.32841587066650,8.01617717742920,1.04894256591797,0.61028665304184,1.15465903282166
406,2274485328,0.813653,-0.086792,0.298438,-0.491295,-3.98590993881226,-4.31104135513306,8.04828929901123,1.20551288127899,0.62188923358917,1.08725917339325
407,2274501995,0.813671,-0.086798,0.298440,-0.491263,-3.97650408744812,-4.31276845932007,8.02523326873779,0.93794989585876,0.61639517545700,1.08243107795715
408,2274518662,0.813678,-0.086790,0.298451,-0.491246,-3.97863483428955,-4.31929159164429,8.05076026916504,0.94816923141479,0.67823702096939,1.11798143386841
409,2274535329,0.813683,-0.086793,0.298466,-0.491228,-3.98515534400940,-4.34833383560181,8.03906631469727,0.86695152521133,0.67052775621414,1.10969591140747
410,2274551996,0.813686,-0.086757,0.298450,-0.491238,-3.99396395683289,-4.33244895935059,8.03516292572021,1.26817452907562,0.67465138435364,0.95006471872330
411,2274568663,0.813676,-0.086740,0.298448,-0.491260,-4.00372171401978,-4.30446052551270,8.02583312988281,1.10198652744293,0.68452501296997,0.87069094181061
412,2274585330,0.813679,-0.086708,0.298452,-0.491258,-3.99142646789551,-4.33155632019043,8.04057598114014,1.08204698562622,0.68791872262955,1.17197322845459
413,2274601997,0.813676,-0.086661,0.298424,-0.491288,-3.98303914070129,-4.31216287612915,8.04890441894531,1.35681998729706,0.60967189073563,0.93964022397995
414,2274618664,0.813666,-0.086685,0.298435,-0.491295,-3.98542046546936,-4.29287624359131,8.05099773406982,0.82466495037079,0.65471184253693,0.81344664096832
415,2274635331,0.813644,-0.086783,0.298497,-0.491276,-3.98769950866699,-4.34108543395996,8.02747154235840,0.17123369872570,0.67664909362793,0.82098948955536
416,2274651998,0.813642,-0.086774,0.298497,-0.491281,-3.99483585357666,-4.34544610977173,8.00306224822998,1.00444042682648,0.62338751554489,1.02376508712769
417,2274668665,0.813638,-0.086656,0.298438,-0.491344,-3.98133111000061,-4.28324985504150,8.05596923828125,1.91571485996246,0.69296449422836,0.89795571565628
418,2274685332,0.813625,-0.086786,0.298531,-0.491286,-3.99016475677490,-4.32976818084717,8.03706359863281,-0.22432243824005,0.66632723808289,1.09280431270599
419,2274701999,0.813646,-0.086652,0.298464,-0.491315,-3.96424579620361,-4.32087659835815,8.04313182830811,2.05324220657349,0.70119899511337,1.05086350440979
420,2274718666,0.813631,-0.086640,0.298492,-0.491325,-3.99354815483093,-4.27939891815186,8.06744003295898,0.92802482843399,0.82247501611710,0.97296237945557
421,2274735333,0.813625,-0.086766,0.298565,-0.491269,-3.98106551170349,-4.36356592178345,8.03427982330322,-0.08766587078571,0.59169185161591,1.02931034564972
422,2274752000,0.813617,-0.086645,0.298482,-0.491354,-3.99779105186462,-4.34229278564453,8.05922508239746,2.05746817588806,0.59295958280563,0.74915868043900
423,2274768667,0.813588,-0.086716,0.298503,-0.491377,-4.00215625762939,-4.30363798141479,8.04669666290283,0.51001280546188,0.53851979970932,0.66534107923508
424,2274785334,0.813562,-0.086798,0.298550,-0.491377,-3.97068357467651,-4.33479070663452,8.03933238983154,0.33493724465370,0.65528804063797,0.75904506444931
425,2274802001,0.813573,-0.086746,0.298541,-0.491374,-3.97374534606934,-4.31617832183838,8.01655197143555,1.30605554580688,0.73842692375183,1.09078085422516
426,2274818668,0.813560,-0.086739,0.298551,-0.491389,-3.97689795494080,-4.29434823989868,8.03362560272217,0.93207186460495,0.66326647996902,1.00619494915009
427,2274835335,0.813565,-0.086749,0.298545,-0.491384,-3.97684550285339,-4.32002496719360,8.04046344757080,0.88759535551071,0.49244260787964,1.07646334171295
428,2274852002,0.813571,-0.086747,0.298538,-0.491378,-3.98878717422485,-4.31187820434570,8.04798221588135,0.96224337816238,0.53745681047440,1.09845185279846
429,2274868669,0.813568,-0.086778,0.298550,-0.491369,-3.99721074104309,-4.32888507843018,8.04254722595215,0.71176415681839,0.55497598648071,1.00058579444885
430,2274885336,0.813592,-0.086785,0.298541,-0.491335,-4.00256109237671,-4.33738517761230,8.02620029449463,0.99460512399673,0.56447827816010,1.05916202068329
431,2274902003,0.813607,-0.086778,0.298517,-0.491325,-3.99351334571838,-4.31994438171387,8.03671169281006,1.11932623386383,0.51218998432159,1.00880730152130
432,2274918670,0.813600,-0.086808,0.298535,-0.491320,-3.98266386985779,-4.31617212295532,8.03927230834961,0.73997646570206,0.64544004201889,0.89570164680481
433,2274935337,0.813585,-0.086855,0.298546,-0.491331,-3.98850846290588,-4.31128168106079,8.03856372833252,0.67617529630661,0.55989360809326,0.78340280056000
434,2274952004,0.813573,-0.086945,0.298579,-0.491315,-3.97669696807861,-4.34200525283813,8.05488586425781,0.38454905152321,0.58818274736404,0.72490340471268
435,2274968671,0.813580,-0.086886,0.298548,-0.491333,-3.96919035911560,-4.31811428070068,8.01698207855225,1.46586596965790,0.65870738029480,0.96155190467834
436,2274985338,0.813588,-0.086925,0.298586,-0.491289,-3.97288942337036,-4.31284809112549,8.03100490570068,0.55922764539719,0.67650824785233,1.15490221977234
437,2275002005,0.813589,-0.086904,0.298615,-0.491274,-3.98955821990967,-4.36729431152344,8.03621196746826,0.90726578235626,0.79111224412918,1.22642564773560
438,2275018672,0.813599,-0.086827,0.298564,-0.491302,-3.99284315109253,-4.30402898788452,8.06604003906250,1.62794303894043,0.57449281215668,0.99533510208130
439,2275035339,0.813581,-0.086927,0.298627,-0.491276,-3.98404026031494,-4.32657909393311,8.03800964355469,0.11587186902761,0.63391435146332,0.92894703149796
440,2275052006,0.813579,-0.086904,0.298599,-0.491300,-4.00203561782837,-4.34450197219849,8.03355312347412,1.22182822227478,0.54297637939453,0.90360319614410
441,2275068673,0.813563,-0.086866,0.298592,-0.491337,-3.99461221694946,-4.29626178741455,8.02311897277832,1.20920121669769,0.69471889734268,0.92411905527115
442,2275085340,0.813552,-0.086927,0.298629,-0.491323,-3.96212530136108,-4.35031747817993,8.01910400390625,0.42792421579361,0.58987331390381,0.99003338813782
443,2275102007,0.813549,-0.086839,0.298598,-0.491362,-3.98447632789612,-4.30869770050049,8.02829933166504,1.65153241157532,0.78071349859238,0.90236097574234
444,2275118674,0.813536,-0.086821,0.298613,-0.491377,-3.97803401947021,-4.29963493347168,8.04261112213135,0.92899817228317,0.67923599481583,1.11328160762787
445,2275135341,0.813546,-0.086835,0.298642,-0.491341,-3.97908353805542,-4.33932065963745,8.01803112030029,0.73847818374634,0.69973897933960,1.18743050098419
446,2275152008,0.813570,-0.086748,0.298580,-0.491354,-4.00215625762939,-4.32751417160034,8.03150367736816,1.71762621402740,0.53551036119461,1.09518623352051
447,2275168675,0.813558,-0.086728,0.298573,-0.491381,-4.01449155807495,-4.31688547134399,8.04820346832275,1.12634396553040,0.65856653451920,0.88253676891327
448,2275185342,0.813544,-0.086808,0.298612,-0.491366,-4.00614976882935,-4.34320259094238,8.04630088806152,0.37508514523506,0.61127269268036,0.82388371229172
449,2275202009,0.813536,-0.086799,0.298605,-0.491386,-3.97338390350342,-4.32942390441895,8.02022075653076,1.06596219539642,0.62415581941605,0.88303619623184
450,2275218676,0.813547,-0.086773,0.298603,-0.491374,-3.98553133010864,-4.32417535781860,8.01946640014648,1.08368611335754,0.63887047767639,1.16856670379639
451,2275235343,0.813576,-0.086719,0.298571,-0.491354,-3.98865008354187,-4.32177734375000,8.01631259918213,1.40781486034393,0.60867297649384,1.17432940006256
452,2275252010,0.813588,-0.086693,0.298546,-0.491354,-3.98154830932617,-4.30421543121338,8.05420398712158,1.21369636058807,0.55128782987595,1.04702162742615
453,2275268677,0.813591,-0.086722,0.298554,-0.491340,-3.99191308021545,-4.32900667190552,8.05475997924805,0.74940204620361,0.54799652099609,1.01277732849121
454,2275285344,0.813595,-0.086726,0.298540,-0.491340,-3.99775099754333,-4.32344007492065,8.03536510467529,0.97577983140945,0.48849818110466,1.01824569702148
455,2275302011,0.813601,-0.086717,0.298535,-0.491336,-3.99406075477600,-4.32876205444336,8.04798507690430,0.96582919359207,0.53612500429153,1.16837453842163
456,2275318678,0.813623,-0.086700,0.298515,-0.491315,-3.98338985443115,-4.31856060028076,8.01930999755859,1.15079164505005,0.55395150184631,1.10047531127930
457,2275335345,0.813640,-0.086710,0.298515,-0.491284,-3.99382519721985,-4.33146572113037,8.02247238159180,0.86112451553345,0.53438335657120,1.18257677555084
458,2275352012,0.813649,-0.086681,0.298484,-0.491293,-3.97883391380310,-4.33087730407715,8.04845809936523,1.24061524868011,0.51051235198975,1.03585445880890
459,2275368679,0.813649,-0.086663,0.298473,-0.491303,-3.99700546264648,-4.32169246673584,8.02857589721680,1.12012016773224,0.61133676767349,0.96914625167847
460,2275385346,0.813641,-0.086669,0.298461,-0.491323,-3.97819089889526,-4.31067800521851,8.01400089263916,0.97457587718964,0.52135926485062,0.89023333787918
461,2275402013,0.813630,-0.086695,0.298470,-0.491331,-3.99187278747559,-4.31518650054932,8.02116680145264,0.80060178041458,0.59974700212479,0.86564517021179
462,2275418680,0.813647,-0.086689,0.298459,-0.491311,-3.98103332519531,-4.32970523834229,8.02990055084229,1.07698845863342,0.60784059762955,1.01179122924805
463,2275435347,0.813657,-0.086687,0.298453,-0.491297,-3.97021818161011,-4.32497119903564,8.03387069702148,0.96988898515701,0.55548822879791,1.10046243667603
464,2275452014,0.813668,-0.086653,0.298425,-0.491303,-3.98427224159241,-4.30928039550781,8.02546215057373,1.28055810928345,0.56374835968018,1.02608323097229
465,2275468681,0.813659,-0.086671,0.298436,-0.491307,-3.97519588470459,-4.31037998199463,8.04438018798828,0.78167402744293,0.58443057537079,0.99934357404709
466,2275485348,0.813671,-0.086673,0.298434,-0.491289,-3.98405361175537,-4.33595275878906,8.02715873718262,0.94714480638504,0.57877010107040,1.08235430717468
467,2275502015,0.813671,-0.086655,0.298396,-0.491315,-3.98397970199585,-4.32041597366333,8.04395484924316,1.25121879577637,0.47977709770203,0.85432446002960
468,2275518682,0.813669,-0.086715,0.298409,-0.491299,-3.99106478691101,-4.32152414321899,8.05550479888916,0.56747496128082,0.49473488330841,0.91612786054611
469,2275535349,0.813678,-0.086702,0.298377,-0.491306,-3.98744225502014,-4.32380199432373,8.04081153869629,1.17786407470703,0.47797140479088,0.96171849966049
470,2275552016,0.813692,-0.086719,0.298351,-0.491295,-3.97941637039185,-4.32386207580566,8.03198146820068,0.98870128393173,0.42140573263168,0.94937306642532
471,2275568683,0.813715,-0.086663,0.298292,-0.491303,-4.00614833831787,-4.28633737564087,8.01704216003418,1.50285065174103,0.42912796139717,1.10744190216064
472,2275585350,0.813703,-0.086685,0.298312,-0.491307,-3.97335767745972,-4.27950668334961,8.02255725860596,0.72168892621994,0.62278550863266,0.99315798282623
473,2275602017,0.813737,-0.086723,0.298331,-0.491234,-3.97314953804016,-4.32982778549194,8.01210594177246,0.60346084833145,0.52112883329391,1.36222422122955
474,2275618684,0.813760,-0.086579,0.298287,-0.491246,-3.97422575950623,-4.30517816543579,8.01553535461426,1.91070747375488,0.76318162679672,1.35788297653198
475,2275635351,0.813775,-0.086606,0.298329,-0.491192,-4.00094413757324,-4.33396053314209,8.05654144287109,0.58403354883194,0.71230196952820,1.27628087997437
476,2275652018,0.813767,-0.086613,0.298302,-0.491220,-4.02046775817871,-4.35112905502319,8.04201221466064,1.05115807056427,0.44732576608658,0.81812089681625
477,2275668685,0.813741,-0.086590,0.298250,-0.491299,-4.01024961471558,-4.30233812332153,8.06764984130859,1.39855575561523,0.48078876733780,0.51074284315109
478,2275685352,0.813717,-0.086708,0.298299,-0.491288,-3.97633051872253,-4.32281112670898,8.04076862335205,0.13368548452854,0.56377393007278,0.69621717929840
479,2275702019,0.813717,-0.086663,0.298274,-0.491311,-3.97026348114014,-4.35542917251587,8.00828742980957,1.31544268131256,0.60439574718475,1.00184082984924
480,2275718686,0.813736,-0.086542,0.298210,-0.491340,-3.97837209701538,-4.27178668975830,8.04801940917969,1.94771790504456,0.66600704193115,1.05009520053864
481,2275735353,0.813735,-0.086632,0.298261,-0.491295,-3.98750877380371,-4.28644275665283,8.03629875183105,0.20597735047340,0.57842445373535,1.06433582305908
482,2275752020,0.813754,-0.086679,0.298278,-0.491244,-3.96654963493347,-4.36980056762695,8.01003646850586,0.53433209657669,0.46017059683800,1.28575754165649
483,2275768687,0.813799,-0.086560,0.298163,-0.491261,-3.98770546913147,-4.31431818008423,8.04066181182861,2.09820532798767,0.31146323680878,1.18002831935883
484,2275785354,0.813810,-0.086601,0.298157,-0.491239,-4.00380659103394,-4.27831602096558,8.07336425781250,0.68209183216095,0.37082067131996,1.12242543697357
485,2275802021,0.813820,-0.086659,0.298146,-0.491220,-3.98591184616089,-4.32967472076416,8.04789638519287,0.66906780004501,0.35139343142509,0.95503354072571
486,2275818688,0.813816,-0.086663,0.298111,-0.491247,-3.98696255683899,-4.30168581008911,8.02761840820312,1.13272166252136,0.44663423299789,0.75095158815384
487,2275835355,0.813825,-0.086722,0.298118,-0.491216,-3.97372460365295,-4.31979799270630,8.02675247192383,0.56476008892059,0.42693808674812,1.05526888370514
488,2275852022,0.813817,-0.086731,0.298088,-0.491246,-3.97665643692017,-4.32496738433838,8.03969478607178,1.07003450393677,0.44058963656425,0.76785588264465
489,2275868689,0.813813,-0.086741,0.298048,-0.491276,-3.99932265281677,-4.29188776016235,8.03034019470215,1.07750070095062,0.35651600360870,0.80530172586441
490,2275885356,0.813814,-0.086753,0.298041,-0.491276,-3.95897626876831,-4.29747104644775,8.03420448303223,0.93031734228134,0.53763622045517,0.94983416795731
491,2275902023,0.813822,-0.086753,0.298072,-0.491245,-3.97432661056519,-4.34305286407471,8.03260803222656,0.72427588701248,0.67457443475723,1.35728096961975
492,2275918690,0.813840,-0.086664,0.298028,-0.491256,-3.99530100822449,-4.31665229797363,8.03952980041504,1.64953470230103,0.64112430810928,1.12676668167114
493,2275935357,0.813838,-0.086673,0.298008,-0.491271,-3.99287652969360,-4.27485704421997,8.05505943298340,1.01592767238617,0.49257060885429,0.85993355512619
494,2275952024,0.813814,-0.086816,0.298084,-0.491239,-3.98828077316284,-4.34304332733154,8.04419612884521,-0.15087799727917,0.59908103942871,0.79930830001831
495,2275968691,0.813818,-0.086783,0.298037,-0.491266,-3.98350429534912,-4.35649299621582,8.03558540344238,1.35206878185272,0.45830082893372,0.91135108470917
496,2275985358,0.813817,-0.086740,0.297991,-0.491304,-3.97274732589722,-4.27035951614380,8.03784084320068,1.42213237285614,0.50608140230179,0.86294311285019
497,2276002025,0.813805,-0.086837,0.298042,-0.491275,-3.97513175010681,-4.32327127456665,8.03121662139893,0.16096299886703,0.55999600887299,0.98106873035431
498,2276018692,0.813808,-0.086766,0.298010,-0.491303,-3.96865439414978,-4.33329916000366,8.02622032165527,1.53603196144104,0.68805956840515,0.96043771505356
499,2276035359,0.813808,-0.086755,0.298024,-0.491296,-3.96608400344849,-4.28484773635864,8.02633571624756,0.96144944429398,0.71614384651184,1.06532180309296
500,2276052026,0.813804,-0.086791,0.298065,-0.491271,-3.98461127281189,-4.33341026306152,8.01799678802490,0.51590383052826,0.65955257415771,1.17093586921692
501,2276068693,0.813810,-0.086691,0.298022,-0.491306,-4.00070905685425,-4.32289505004883,8.06891250610352,1.76581656932831,0.73686462640762,0.95039767026901
502,2276085360,0.813776,-0.086724,0.298050,-0.491339,-3.98792076110840,-4.28274059295654,8.07627105712891,0.68181014060974,0.69219607114792,0.73860627412796
503,2276102027,0.813768,-0.086813,0.298094,-0.491310,-3.97276377677917,-4.32808732986450,8.04828739166260,0.31522831320763,0.62302893400192,0.84511661529541
504,2276118694,0.813767,-0.086765,0.298073,-0.491333,-3.96671581268311,-4.32739877700806,8.02515506744385,1.33649647235870,0.66589182615280,0.96060431003571
505,2276135361,0.813766,-0.086759,0.298068,-0.491338,-3.97774863243103,-4.30974626541138,8.03299331665039,1.03326761722565,0.61391085386276,0.94599229097366
506,2276152028,0.813747,-0.086761,0.298074,-0.491367,-3.97427344322205,-4.29989624023438,8.03834629058838,0.96726363897324,0.67854446172714,0.79604268074036
507,2276168695,0.813725,-0.086842,0.298114,-0.491364,-3.98704767227173,-4.33366203308105,8.03489875793457,0.31511303782463,0.56965208053589,0.86130392551422
508,2276185362,0.813727,-0.086822,0.298101,-0.491373,-3.99303174018860,-4.32910442352295,8.03304100036621,1.14531028270721,0.61032497882843,0.96563720703125
509,2276202029,0.813741,-0.086790,0.298093,-0.491359,-3.97716450691223,-4.29673624038696,8.05453491210938,1.21723091602325,0.71027863025665,1.03590571880341
510,2276218696,0.813732,-0.086805,0.298126,-0.491350,-3.97055411338806,-4.30704164505005,8.03543281555176,0.72391736507416,0.74013018608093,1.04431939125061
511,2276235363,0.813744,-0.086737,0.298111,-0.491352,-3.96374750137329,-4.33092498779297,8.00634670257568,1.42100524902344,0.75266754627228,1.11696982383728
512,2276252030,0.813741,-0.086733,0.298122,-0.491351,-3.99487972259521,-4.31487512588501,8.03481674194336,0.89063024520874,0.62817704677582,1.10735213756561
513,2276268697,0.813741,-0.086697,0.298114,-0.491362,-3.99312472343445,-4.31376409530640,8.03791236877441,1.19334697723389,0.67411351203918,1.03541898727417
514,2276285364,0.813734,-0.086700,0.298128,-0.491366,-3.99587726593018,-4.33058881759644,8.05084037780762,0.88450902700424,0.68206620216370,0.98774099349976
515,2276302031,0.813723,-0.086688,0.298134,-0.491383,-3.98674702644348,-4.31272411346436,8.04398918151855,1.05368077754974,0.73350936174393,0.85697525739670
516,2276318698,0.813728,-0.086680,0.298130,-0.491377,-3.97905826568604,-4.31182432174683,8.03476333618164,1.05268204212189,0.64319884777069,0.96764773130417
517,2276335365,0.813728,-0.086658,0.298115,-0.491391,-3.98146200180054,-4.30418205261230,8.04052734375000,1.15660560131073,0.60494631528854,0.96071946620941
518,2276352032,0.813710,-0.086730,0.298175,-0.491371,-3.98859906196594,-4.32268905639648,8.03810977935791,0.30376660823822,0.72193235158920,0.94395595788956
519,2276368699,0.813727,-0.086739,0.298168,-0.491346,-4.00004291534424,-4.34441041946411,8.00968456268311,0.96357524394989,0.57211077213287,1.01720833778381
520,2276385366,0.813731,-0.086654,0.298112,-0.491388,-3.98027634620667,-4.26566076278687,8.06261634826660,1.74350762367249,0.62502664327621,0.86334002017975
521,2276402033,0.813731,-0.086750,0.298191,-0.491323,-3.99575877189636,-4.31715869903564,8.04428482055664,0.03453872725368,0.70251792669296,1.17595601081848
522,2276418700,0.813744,-0.086685,0.298183,-0.491317,-3.95263838768005,-4.32175159454346,8.03144168853760,1.39494431018829,0.80341905355453,1.11977422237396
523,2276435367,0.813748,-0.086630,0.298201,-0.491309,-3.99924278259277,-4.30526256561279,8.03225517272949,1.18310177326202,0.87421262264252,1.18726372718811
524,2276452034,0.813732,-0.086699,0.298260,-0.491288,-3.99692058563232,-4.31073713302612,8.06509304046631,0.39492222666740,0.80183124542236,0.80560910701752
525,2276468701,0.813696,-0.086727,0.298279,-0.491331,-4.01096343994141,-4.34412670135498,8.07300376892090,0.79503101110458,0.71509373188019,0.60285884141922
526,2276485368,0.813674,-0.086752,0.298290,-0.491357,-3.99663615226746,-4.32116079330444,8.06493091583252,0.87857967615128,0.70331197977066,0.62124890089035
527,2276502035,0.813636,-0.086811,0.298336,-0.491381,-3.97715663909912,-4.30333137512207,8.04673576354980,0.48209509253502,0.73818367719650,0.67994040250778
528,2276518702,0.813634,-0.086797,0.298351,-0.491378,-3.96185636520386,-4.31281042098999,8.00874328613281,1.01099741458893,0.76803523302078,0.99187743663788
529,2276535369,0.813631,-0.086768,0.298363,-0.491381,-3.97277736663818,-4.29183673858643,8.02556705474854,1.04624032974243,0.73823487758636,1.11145031452179
530,2276552036,0.813637,-0.086779,0.298394,-0.491351,-3.96961069107056,-4.29699516296387,8.04798793792725,0.72731101512909,0.71125185489655,1.18713593482971
531,2276568703,0.813643,-0.086779,0.298406,-0.491333,-3.99792551994324,-4.33371019363403,8.04844379425049,0.86926949024200,0.63344049453735,1.17003941535950
532,2276585370,0.813664,-0.086747,0.298385,-0.491317,-3.99388599395752,-4.31301593780518,8.04313755035400,1.22199463844299,0.58452016115189,1.12909746170044
533,2276602037,0.813677,-0.086738,0.298393,-0.491291,-3.99883437156677,-4.29950904846191,8.06433868408203,0.98498755693436,0.69000607728958,1.11986410617828
534,2276618704,0.813669,-0.086809,0.298446,-0.491260,-4.00033378601074,-4.33649969100952,8.01764297485352,0.28832215070724,0.63621944189072,1.08027958869934
535,2276635371,0.813689,-0.086758,0.298407,-0.491260,-3.98335409164429,-4.32990360260010,8.01944446563721,1.43108367919922,0.56577163934708,1.05521750450134
536,2276652038,0.813666,-0.086841,0.298443,-0.491263,-3.98781967163086,-4.31792783737183,8.02519416809082,0.35303261876106,0.56369704008102,0.78474742174149
537,2276668705,0.813646,-0.086876,0.298456,-0.491280,-3.98652815818787,-4.30850172042847,8.03413772583008,0.75933974981308,0.62557739019394,0.74261468648911
538,2276685372,0.813615,-0.086852,0.298462,-0.491332,-3.97247123718262,-4.28889703750610,8.03768253326416,1.05905961990356,0.70603972673416,0.86237955093384
539,2276702039,0.813624,-0.086956,0.298539,-0.491253,-3.97381186485291,-4.36130189895630,8.02903556823730,0.00738926324993,0.66895240545273,1.20510303974152
540,2276718706,0.813650,-0.086859,0.298488,-0.491258,-4.00843954086304,-4.32549858093262,8.04075908660889,1.76027131080627,0.67331939935684,1.09526312351227
541,2276735373,0.813642,-0.086903,0.298512,-0.491249,-4.00526618957520,-4.30551671981812,8.05294704437256,0.60479265451431,0.59831261634827,0.95742827653885
542,2276752040,0.813595,-0.086990,0.298591,-0.491262,-3.98004555702209,-4.33162021636963,8.03240394592285,0.13702793419361,0.78636109828949,0.77005857229233
543,2276768707,0.813578,-0.086974,0.298588,-0.491296,-3.98394799232483,-4.33908319473267,8.02004146575928,1.09957873821259,0.67990195751190,0.80905389785767
544,2276785374,0.813547,-0.086952,0.298587,-0.491352,-3.97953891754150,-4.32815456390381,8.02118015289307,1.09044790267944,0.67900550365448,0.80852895975113
545,2276802041,0.813537,-0.086929,0.298591,-0.491369,-3.98824286460876,-4.29697942733765,8.04936313629150,1.06468141078949,0.69509017467499,0.98932880163193
546,2276818708,0.813523,-0.086958,0.298617,-0.491372,-3.99564623832703,-4.30030488967896,8.06604766845703,0.67839074134827,0.64770680665970,0.95738989114761
547,2276835375,0.813518,-0.086989,0.298649,-0.491355,-3.99373173713684,-4.35127067565918,8.00982379913330,0.61268144845963,0.65997523069382,1.07327461242676
548,2276852042,0.813524,-0.086947,0.298659,-0.491347,-3.98656487464905,-4.33434104919434,8.01020431518555,1.16175377368927,0.79786127805710,1.13770341873169
549,2276868709,0.813518,-0.086940,0.298696,-0.491336,-3.98599600791931,-4.34543704986572,8.01375865936279,0.84979093074799,0.85267233848572,1.06014800071716
550,2276885376,0.813530,-0.086892,0.298682,-0.491333,-4.00215101242065,-4.34780836105347,8.05770969390869,1.30983352661133,0.70012313127518,1.07508027553558
551,2276902043,0.813511,-0.086866,0.298677,-0.491371,-3.98979854583740,-4.29935550689697,8.03410720825195,1.18246138095856,0.71614384651184,0.78812831640244
552,2276918710,0.813470,-0.086975,0.298730,-0.491388,-4.00824642181396,-4.31269979476929,8.04517745971680,0.14746510982513,0.60431879758835,0.62074935436249
553,2276935377,0.813452,-0.087007,0.298738,-0.491407,-3.99800562858582,-4.34129810333252,8.00163841247559,0.80452054738998,0.61680501699448,0.72816908359528
554,2276952044,0.813435,-0.087007,0.298734,-0.491438,-3.99626207351685,-4.33426094055176,7.99944496154785,1.03509891033173,0.64469736814499,0.74705845117569
555,2276968711,0.813426,-0.086970,0.298718,-0.491469,-3.99084877967834,-4.31343650817871,8.03493785858154,1.28363180160522,0.68282175064087,0.85566914081573
556,2276985378,0.813411,-0.086936,0.298708,-0.491506,-3.98915362358093,-4.29789638519287,8.03252506256104,1.19715046882629,0.66850423812866,0.90186148881912
557,2277002045,0.813438,-0.087007,0.298744,-0.491426,-3.99089622497559,-4.31581020355225,8.03716182708740,0.46212995052338,0.64586263895035,1.06901013851166
558,2277018712,0.813446,-0.086971,0.298724,-0.491432,-3.99589681625366,-4.32666492462158,8.04209136962891,1.22948646545410,0.58431529998779,1.08655488491058
559,2277035379,0.813462,-0.086927,0.298700,-0.491429,-3.99130558967590,-4.30192184448242,8.03913974761963,1.28933060169220,0.59084665775299,1.13856136798859
560,2277052046,0.813471,-0.086982,0.298726,-0.491388,-3.99055099487305,-4.33875131607056,8.03277587890625,0.47939294576645,0.51468718051910,1.17879891395569
561,2277068713,0.813471,-0.086959,0.298728,-0.491390,-3.98583459854126,-4.34149408340454,8.01141357421875,1.04421699047089,0.66157597303391,1.10206329822540
562,2277085380,0.813496,-0.086976,0.298707,-0.491358,-3.99299526214600,-4.32772302627563,8.02711105346680,0.96605980396271,0.44417548179626,1.05881631374359
563,2277102047,0.813503,-0.086954,0.298687,-0.491364,-3.98327016830444,-4.31584787368774,8.03088665008545,1.18970990180969,0.58663332462311,0.96188497543335
564,2277118714,0.813517,-0.086982,0.298681,-0.491339,-3.98043918609619,-4.32418870925903,8.04246139526367,0.83286088705063,0.49463242292404,1.02194666862488
565,2277135381,0.813508,-0.086973,0.298682,-0.491354,-3.97038125991821,-4.31530427932739,8.01642322540283,1.02622401714325,0.66736447811127,0.90127241611481
566,2277152048,0.813505,-0.086998,0.298719,-0.491333,-3.98203587532043,-4.33067655563354,8.01527404785156,0.67370361089706,0.75243699550629,1.02842676639557
567,2277168715,0.813500,-0.086969,0.298703,-0.491356,-3.98911404609680,-4.33639287948608,8.02112293243408,1.18545818328857,0.60166794061661,0.96775031089783
568,2277185382,0.813485,-0.086977,0.298719,-0.491369,-3.98672413825989,-4.31894779205322,8.04899692535400,0.87580066919327,0.70577079057693,0.87273997068405
569,2277202049,0.813477,-0.087016,0.298731,-0.491369,-3.99160861968994,-4.31013202667236,8.04209995269775,0.71275025606155,0.57658028602600,0.85799986124039
570,2277218716,0.813455,-0.087068,0.298744,-0.491388,-3.97075033187866,-4.32364368438721,8.02720260620117,0.64273786544800,0.54667747020721,0.74370324611664
571,2277235383,0.813459,-0.087091,0.298731,-0.491386,-3.98199129104614,-4.34039878845215,8.03788757324219,0.95860660076141,0.54619079828262,0.78534942865372
572,2277252050,0.813462,-0.087091,0.298723,-0.491386,-3.99879121780396,-4.31971406936646,8.03676986694336,1.03798031806946,0.61041462421417,0.91099262237549
573,2277268717,0.813457,-0.087037,0.298698,-0.491417,-3.97353529930115,-4.29724979400635,8.03434944152832,1.38603127002716,0.65767014026642,0.93634903430939
574,2277285384,0.813438,-0.087121,0.298764,-0.491395,-3.96417212486267,-4.33010625839233,8.00770092010498,0.18109457194805,0.68904554843903,0.97120785713196
575,2277302051,0.813466,-0.087044,0.298729,-0.491384,-3.95891404151917,-4.31779098510742,8.00626850128174,1.53897738456726,0.64495331048965,1.22333931922913
576,2277318718,0.813475,-0.087007,0.298740,-0.491368,-3.98450613021851,-4.32585906982422,8.02704620361328,1.07496511936188,0.74274271726608,1.24074327945709
577,2277335385,0.813482,-0.087047,0.298758,-0.491339,-4.02096509933472,-4.36603879928589,8.05751705169678,0.64678466320038,0.57308417558670,1.06223547458649
578,2277352052,0.813454,-0.087013,0.298732,-0.491407,-4.01895618438721,-4.32580900192261,8.06373977661133,1.34476912021637,0.65092110633850,0.60976153612137
579,2277368719,0.813415,-0.087124,0.298781,-0.491422,-3.98471117019653,-4.31551933288574,8.02595710754395,0.16096298396587,0.57920557260513,0.61923819780350
580,2277385386,0.813391,-0.087191,0.298817,-0.491427,-3.97145366668701,-4.32648754119873,8.01857662200928,0.45986324548721,0.63323557376862,0.77574473619461
581,2277402053,0.813392,-0.087205,0.298833,-0.491415,-3.96166038513184,-4.33850669860840,8.00127506256104,0.81384348869324,0.65681201219559,1.01323831081390
582,2277418720,0.813390,-0.087187,0.298834,-0.491420,-3.97323918342590,-4.33508872985840,8.01822566986084,1.06470715999603,0.67983794212341,1.00447881221771
583,2277435387,0.813405,-0.087206,0.298838,-0.491390,-3.98506140708923,-4.33676099777222,8.02811908721924,0.83168268203735,0.56383788585663,1.09533977508545
584,2277452054,0.813402,-0.087186,0.298836,-0.491399,-3.99321985244751,-4.35014724731445,8.02377510070801,1.04554879665375,0.62533408403397,1.06437408924103
585,2277468721,0.813401,-0.087159,0.298809,-0.491421,-3.98457980155945,-4.30641031265259,8.02511978149414,1.22688686847687,0.54452598094940,0.95089715719223
586,2277485388,0.813391,-0.087244,0.298855,-0.491396,-3.98758053779602,-4.33236312866211,8.00773620605469,0.28848865628242,0.60352480411530,0.92264628410339
587,2277502055,0.813393,-0.087294,0.298867,-0.491375,-3.98640179634094,-4.37097644805908,7.99659633636475,0.63295382261276,0.52860772609711,0.94729858636856
588,2277518722,0.813395,-0.087252,0.298828,-0.491403,-4.00162029266357,-4.34133958816528,8.02223396301270,1.41083729267120,0.56367152929306,0.86888527870178
589,2277535389,0.813372,-0.087288,0.298834,-0.491432,-3.98553442955017,-4.31476640701294,8.01489162445068,0.74669986963272,0.55375939607620,0.74836468696594
590,2277552056,0.813344,-0.087361,0.298857,-0.491451,-3.97930383682251,-4.32561111450195,8.02169704437256,0.45425406098366,0.50845056772232,0.74745541810989
591,2277568723,0.813353,-0.087415,0.298865,-0.491421,-3.97852706909180,-4.35604715347290,8.00985717773438,0.62252944707870,0.48413121700287,0.98870140314102
592,2277585390,0.813360,-0.087355,0.298835,-0.491439,-3.97186994552612,-4.32981443405151,7.99887895584106,1.40959489345551,0.61566525697708,1.07737255096436
593,2277602057,0.813371,-0.087371,0.298858,-0.491404,-3.99374175071716,-4.33487176895142,8.04236888885498,0.73966914415359,0.64659261703491,1.19033741950989
594,2277618724,0.813383,-0.087387,0.298849,-0.491386,-4.00153160095215,-4.34615659713745,8.03085517883301,0.89271777868271,0.49766755104065,1.05126047134399
595,2277635391,0.813384,-0.087400,0.298835,-0.491391,-3.99028420448303,-4.32211542129517,8.02166271209717,0.93902552127838,0.47228538990021,0.94736248254776
596,2277652058,0.813379,-0.087476,0.298885,-0.491356,-3.98789000511169,-4.35583066940308,7.99283027648926,0.27913999557495,0.61051708459854,1.06501448154449
597,2277668725,0.813378,-0.087453,0.298848,-0.491384,-3.98896956443787,-4.36090135574341,8.03208255767822,1.30335342884064,0.53086161613464,0.80507123470306
598,2277685392,0.813379,-0.087448,0.298815,-0.491403,-3.99363684654236,-4.29944801330566,8.04883766174316,1.14989507198334,0.46768793463707,0.85825604200363
599,2277702059,0.813370,-0.087526,0.298836,-0.491392,-3.97928261756897,-4.32346820831299,8.01817226409912,0.40560269355774,0.45417723059654,0.90658700466156
600,2277718726,0.813367,-0.087547,0.298853,-0.491382,-3.97382545471191,-4.36550855636597,8.02621459960938,0.75046485662460,0.61707395315170,1.04156613349915
601,2277735393,0.813377,-0.087471,0.298824,-0.491397,-3.96937012672424,-4.33269786834717,7.99553298950195,1.47112917900085,0.63938248157501,1.17706978321075
602,2277752060,0.813400,-0.087469,0.298837,-0.491351,-3.97595691680908,-4.34248065948486,8.03129959106445,0.87845158576965,0.64406979084015,1.27904713153839
603,2277768727,0.813404,-0.087388,0.298813,-0.491374,-3.99433135986328,-4.33638000488281,8.03676033020020,1.52289235591888,0.73233103752136,1.07187855243683
604,2277785394,0.813386,-0.087397,0.298836,-0.491387,-3.99943828582764,-4.32424974441528,8.03209781646729,0.82985144853592,0.72921919822693,0.89038717746735
605,2277802061,0.813368,-0.087419,0.298864,-0.491396,-3.98392677307129,-4.35252618789673,8.01489830017090,0.73436731100082,0.71640008687973,0.89488214254379
606,2277818728,0.813355,-0.087358,0.298833,-0.491448,-3.97883224487305,-4.34400653839111,8.01088428497314,1.45518565177917,0.64843672513962,0.85632222890854
607,2277835395,0.813342,-0.087342,0.298825,-0.491477,-4.00717782974243,-4.32641553878784,8.04704093933105,1.11994087696075,0.65151023864746,0.84179985523224
608,2277852062,0.813323,-0.087364,0.298816,-0.491510,-3.99717330932617,-4.30942487716675,8.03523635864258,0.97556209564209,0.59821021556854,0.59091061353683
609,2277868729,0.813306,-0.087425,0.298847,-0.491508,-3.97586560249329,-4.34847116470337,8.03615856170654,0.47745910286903,0.58380311727524,0.88482910394669
610,2277885396,0.813317,-0.087385,0.298797,-0.491528,-3.95916533470154,-4.34488582611084,8.01900386810303,1.42666578292847,0.48452830314636,0.91931670904160
611,2277902063,0.813344,-0.087298,0.298729,-0.491540,-3.98453807830811,-4.30155611038208,8.03579998016357,1.72280001640320,0.47952100634575,1.13906085491180
612,2277918730,0.813359,-0.087327,0.298749,-0.491499,-3.98671984672546,-4.30368232727051,8.05188751220703,0.62940645217896,0.54387289285660,1.26866114139557
613,2277935397,0.813381,-0.087310,0.298746,-0.491466,-3.98563289642334,-4.36587047576904,8.01707935333252,0.98720324039459,0.55256843566895,1.34042799472809
614,2277952064,0.813401,-0.087251,0.298703,-0.491470,-3.98542618751526,-4.33114099502563,8.02102565765381,1.43954896926880,0.50964146852493,1.17266464233398
615,2277968731,0.813411,-0.087255,0.298684,-0.491464,-3.99389982223511,-4.32028007507324,8.03088188171387,1.03814661502838,0.51688987016678,0.95340710878372
616,2277985398,0.813401,-0.087278,0.298689,-0.491473,-3.97331500053406,-4.32599735260010,8.02497196197510,0.85839676856995,0.62109512090683,0.79962843656540
617,2278002065,0.813385,-0.087325,0.298702,-0.491484,-3.97975158691406,-4.35041618347168,8.02144718170166,0.63446497917175,0.52809542417526,0.84765225648880
618,2278018732,0.813374,-0.087310,0.298691,-0.491512,-3.98678803443909,-4.35271692276001,8.01481819152832,1.11680328845978,0.62218368053436,0.85418349504471
619,2278035399,0.813361,-0.087275,0.298662,-0.491557,-3.99608397483826,-4.33327007293701,8.03581523895264,1.31590378284454,0.58895128965378,0.81016814708710
620,2278052066,0.813329,-0.087312,0.298678,-0.491593,-3.98094511032104,-4.33819293975830,8.01576423645020,0.75894260406494,0.66938787698746,0.59700644016266
621,2278068733,0.813306,-0.087367,0.298699,-0.491608,-3.97302365303040,-4.34718799591064,8.03100585937500,0.60821199417114,0.60180884599686,0.72371250391006
622,2278085400,0.813310,-0.087343,0.298682,-0.491617,-3.97219491004944,-4.32896947860718,8.03899669647217,1.21888291835785,0.64531201124191,0.89422905445099
623,2278102067,0.813298,-0.087371,0.298688,-0.491628,-3.98892426490784,-4.32788228988647,8.03433609008789,0.82790488004684,0.60584282875061,0.78858935832977
624,2278118734,0.813301,-0.087444,0.298710,-0.491596,-3.99503040313721,-4.35253047943115,8.01536464691162,0.51668500900269,0.56764149665833,0.84205585718155
625,2278135401,0.813308,-0.087343,0.298648,-0.491640,-3.97372317314148,-4.30357551574707,8.01918983459473,1.81935989856720,0.60968470573425,0.95359933376312
626,2278152068,0.813304,-0.087442,0.298702,-0.491597,-3.98205924034119,-4.32982254028320,8.02957534790039,0.12919047474861,0.55491191148758,1.06308078765869
627,2278168735,0.813319,-0.087398,0.298698,-0.491582,-3.97515511512756,-4.35867404937744,8.03322792053223,1.19202792644501,0.68607455492020,1.22906374931335
628,2278185402,0.813339,-0.087322,0.298698,-0.491563,-3.98899483680725,-4.32125425338745,8.02689552307129,1.37490248680115,0.83525574207306,1.27835524082184
629,2278202069,0.813316,-0.087413,0.298772,-0.491540,-3.99146103858948,-4.35024070739746,8.03627490997314,0.09784051775932,0.70165991783142,0.98959791660309
630,2278218736,0.813293,-0.087437,0.298800,-0.491557,-4.00504875183105,-4.36301851272583,8.03337860107422,0.72202199697495,0.70675683021545,0.85835838317871
631,2278235403,0.813275,-0.087402,0.298779,-0.491606,-4.00883769989014,-4.32052946090698,8.05602931976318,1.30909073352814,0.67042523622513,0.73194694519043
632,2278252070,0.813241,-0.087485,0.298838,-0.491612,-3.97780489921570,-4.33808851242065,8.02273178100586,0.28257212042809,0.72587662935257,0.71885883808136
633,2278268737,0.813225,-0.087497,0.298858,-0.491623,-3.95459532737732,-4.33310651779175,8.02187252044678,0.82675236463547,0.70578354597092,0.89194941520691
634,2278285404,0.813220,-0.087514,0.298887,-0.491611,-3.97459745407104,-4.32960081100464,8.02133178710938,0.76228523254395,0.73411118984222,0.98603773117065
635,2278302071,0.813220,-0.087526,0.298909,-0.491595,-3.98717880249023,-4.34038877487183,8.00637722015381,0.78725755214691,0.68766260147095,1.06113398075104
636,2278318738,0.813220,-0.087545,0.298933,-0.491577,-3.98082041740417,-4.34288930892944,8.03008174896240,0.77615439891815,0.70522004365921,0.99835723638535
637,2278335405,0.813226,-0.087516,0.298918,-0.491581,-3.98817420005798,-4.32735538482666,8.02980899810791,1.21218502521515,0.65175354480743,0.97617673873901
638,2278352072,0.813214,-0.087546,0.298929,-0.491589,-3.97735309600830,-4.31849956512451,8.00584983825684,0.75056731700897,0.58158749341965,0.88139694929123
639,2278368739,0.813194,-0.087617,0.298993,-0.491571,-3.97786188125610,-4.35790681838989,8.03555488586426,0.26461759209633,0.71802645921707,0.99037903547287
640,2278385406,0.813208,-0.087586,0.298982,-0.491561,-3.98631620407104,-4.35889101028442,8.02076816558838,1.22164893150330,0.68702232837677,1.02689003944397
641,2278402073,0.813198,-0.087608,0.299005,-0.491559,-3.98130226135254,-4.32584524154663,8.01416110992432,0.77119839191437,0.70031523704529,0.90287333726883
642,2278418740,0.813173,-0.087667,0.299035,-0.491571,-3.98196816444397,-4.33607816696167,8.05069351196289,0.48906165361404,0.58797794580460,0.83553749322891
643,2278435407,0.813172,-0.087681,0.299052,-0.491559,-3.96998119354248,-4.34271097183228,8.01531982421875,0.83345001935959,0.68606173992157,0.96125733852386
644,2278452074,0.813183,-0.087644,0.299062,-0.491542,-3.96064186096191,-4.32491731643677,8.01542758941650,1.10742902755737,0.76386034488678,1.20628118515015
645,2278468741,0.813192,-0.087639,0.299095,-0.491509,-3.98344159126282,-4.33031702041626,8.04075145721436,0.79631167650223,0.74931234121323,1.27017223834991
646,2278485408,0.813184,-0.087636,0.299115,-0.491511,-3.98816275596619,-4.33240413665771,8.02736473083496,0.89848065376282,0.73530215024948,1.00536239147186
647,2278502075,0.813162,-0.087712,0.299167,-0.491502,-3.99987292289734,-4.34586381912231,8.00090885162354,0.30722430348396,0.66139674186707,0.88581520318985
648,2278518742,0.813142,-0.087793,0.299212,-0.491492,-3.98288774490356,-4.37932968139648,8.02544307708740,0.34972861409187,0.65224027633667,0.78388953208923
649,2278535409,0.813131,-0.087751,0.299201,-0.491525,-3.98035931587219,-4.34145164489746,8.02548217773438,1.31827270984650,0.75540810823441,0.80785012245178
650,2278552076,0.813132,-0.087747,0.299209,-0.491519,-3.98170471191406,-4.31817483901978,8.02641963958740,0.95320230722427,0.67821151018143,1.02020514011383
651,2278568743,0.813139,-0.087746,0.299210,-0.491507,-3.96664142608643,-4.33383607864380,8.01890659332275,0.99747377634048,0.65460932254791,0.97483223676682
652,2278585410,0.813145,-0.087739,0.299225,-0.491489,-3.97458934783936,-4.33491134643555,8.01088809967041,0.89730244874954,0.67296081781387,1.16832315921783
653,2278602077,0.813153,-0.087733,0.299250,-0.491462,-3.98131227493286,-4.34275865554810,8.00752925872803,0.84507828950882,0.71811604499817,1.22912788391113
654,2278618744,0.813165,-0.087761,0.299274,-0.491422,-3.98944139480591,-4.34298276901245,8.03505325317383,0.69874006509781,0.65779811143875,1.11566364765167
655,2278635411,0.813184,-0.087784,0.299290,-0.491377,-4.00119924545288,-4.35438871383667,8.02950954437256,0.82426792383194,0.69430905580521,1.01485204696655
656,2278652078,0.813166,-0.087807,0.299306,-0.491393,-3.98333668708801,-4.37022304534912,8.01772022247314,0.78706544637680,0.65364885330200,0.82892936468124
657,2278668745,0.813176,-0.087766,0.299281,-0.491398,-3.99474048614502,-4.35146236419678,8.01829242706299,1.34430813789368,0.65021675825119,0.95794057846069
658,2278685412,0.813174,-0.087755,0.299270,-0.491410,-3.97767019271851,-4.32235717773438,8.00936603546143,1.08860373497009,0.60059219598770,0.92522042989731
659,2278702079,0.813172,-0.087814,0.299307,-0.491382,-3.96651816368103,-4.35248613357544,8.02260017395020,0.47330990433693,0.63073837757111,0.99425941705704
660,2278718746,0.813166,-0.087811,0.299309,-0.491391,-3.99250793457031,-4.34353542327881,8.01438808441162,0.98571753501892,0.64700239896774,0.93257117271423
661,2278735413,0.813159,-0.087819,0.299320,-0.491394,-3.98344373703003,-4.35048103332520,8.02114582061768,0.87113922834396,0.65230423212051,0.96543222665787
662,2278752080,0.813145,-0.087815,0.299345,-0.491403,-3.99007940292358,-4.36622953414917,8.01193714141846,0.87660753726959,0.75857138633728,0.98361736536026
663,2278768747,0.813144,-0.087772,0.299332,-0.491420,-3.98524403572083,-4.35285806655884,8.02244281768799,1.25470209121704,0.66477763652802,1.02157545089722
664,2278785414,0.813153,-0.087761,0.299349,-0.491397,-3.98475885391235,-4.35487318038940,8.03250026702881,0.95176786184311,0.74471479654312,1.12400043010712
665,2278802081,0.813159,-0.087737,0.299345,-0.491394,-3.98505187034607,-4.34052181243896,8.01621246337891,1.07255733013153,0.61570370197296,1.15244328975677
666,2278818748,0.813168,-0.087739,0.299352,-0.491373,-3.98393177986145,-4.34094810485840,8.01411247253418,0.94482690095901,0.67372924089432,1.02266395092010
667,2278835415,0.813165,-0.087735,0.299367,-0.491370,-3.99007892608643,-4.33347988128662,8.04774379730225,0.90558820962906,0.69188868999481,1.05812454223633
668,2278852082,0.813161,-0.087734,0.299374,-0.491373,-3.98306083679199,-4.34995079040527,8.00655078887939,0.91687065362930,0.62500113248825,1.02256143093109
669,2278868749,0.813173,-0.087695,0.299355,-0.491371,-3.99306941032410,-4.35320043563843,8.02760601043701,1.27037715911865,0.63816601037979,1.06564211845398
670,2278885416,0.813184,-0.087724,0.299364,-0.491343,-3.99019908905029,-4.34275054931641,8.03678131103516,0.74051433801651,0.54339903593063,1.08911597728729
671,2278902083,0.813204,-0.087708,0.299351,-0.491321,-3.97665596008301,-4.35913944244385,8.00353240966797,1.09644114971161,0.58134424686432,1.12921261787415
672,2278918750,0.813223,-0.087677,0.299330,-0.491308,-3.98085045814514,-4.34843826293945,8.01753044128418,1.18899285793304,0.53994137048721,1.19214320182800
673,2278935417,0.813254,-0.087650,0.299321,-0.491265,-3.99475431442261,-4.34559917449951,8.01929855346680,1.14151954650879,0.63924175500870,1.25000214576721
674,2278952084,0.813247,-0.087607,0.299306,-0.491295,-4.00224924087524,-4.33789157867432,8.01866436004639,1.25374162197113,0.64099627733231,0.99738413095474
675,2278968751,0.813209,-0.087640,0.299338,-0.491331,-4.00031423568726,-4.33263731002808,8.03178691864014,0.62532120943069,0.67506116628647,0.80145984888077
676,2278985418,0.813212,-0.087689,0.299357,-0.491306,-3.98835301399231,-4.35733175277710,7.99954271316528,0.61451274156570,0.57766884565353,0.97116959095001
677,2279002085,0.813198,-0.087665,0.299347,-0.491339,-3.98290395736694,-4.36645269393921,8.02211380004883,1.18857026100159,0.68225830793381,0.80427718162537
678,2279018752,0.813193,-0.087675,0.299351,-0.491344,-4.00112295150757,-4.36912345886230,8.02228260040283,0.86221307516098,0.57441598176956,0.99816524982452
679,2279035419,0.813191,-0.087553,0.299294,-0.491404,-3.97167944908142,-4.30307149887085,8.03544425964355,1.95643901824951,0.74262744188309,0.86526107788086
680,2279052086,0.813177,-0.087661,0.299366,-0.491364,-3.99728322029114,-4.34228324890137,8.01041698455811,-0.00630712695420,0.61310392618179,1.05377042293549
681,2279068753,0.813212,-0.087517,0.299295,-0.491375,-3.96868300437927,-4.32907056808472,8.00843048095703,2.08605194091797,0.67573982477188,1.22826981544495
682,2279085420,0.813205,-0.087505,0.299330,-0.491368,-3.99821829795837,-4.31698560714722,8.02463912963867,0.83578079938889,0.79998707771301,1.16768300533295
683,2279102087,0.813186,-0.087595,0.299393,-0.491345,-4.02025032043457,-4.40266370773315,8.03103065490723,0.15779983997345,0.64492774009705,0.97563886642456
684,2279118754,0.813184,-0.087536,0.299341,-0.491390,-4.02772188186646,-4.36369228363037,8.04326534271240,1.62124526500702,0.61525541543961,0.69736975431442
685,2279135421,0.813167,-0.087576,0.299331,-0.491417,-3.99605584144592,-4.31518983840942,8.03398323059082,0.84662765264511,0.50861692428589,0.63807630538940
686,2279152088,0.813134,-0.087633,0.299357,-0.491445,-3.96801805496216,-4.33818864822388,8.02974510192871,0.58012759685516,0.62776726484299,0.65092110633850
687,2279168755,0.813137,-0.087585,0.299328,-0.491467,-3.96078038215637,-4.32586812973022,8.00841808319092,1.35751152038574,0.59841513633728,0.99698716402054
688,2279185422,0.813150,-0.087554,0.299339,-0.491445,-3.97514081001282,-4.31234169006348,8.00848293304443,1.09477651119232,0.77347797155380,1.16021704673767
689,2279202089,0.813161,-0.087534,0.299341,-0.491428,-3.98307847976685,-4.35673856735229,8.03900814056396,0.98517966270447,0.60768687725067,1.25681507587433
690,2279218756,0.813182,-0.087473,0.299296,-0.491433,-3.99211907386780,-4.32951545715332,8.01719760894775,1.52022886276245,0.56467032432556,1.05680537223816
691,2279235423,0.813186,-0.087495,0.299302,-0.491418,-4.00674962997437,-4.33950662612915,8.04681110382080,0.76729243993759,0.53348690271378,1.08403193950653
692,2279252090,0.813184,-0.087487,0.299290,-0.491429,-3.99885869026184,-4.35682630538940,8.01941871643066,1.04219341278076,0.54757380485535,0.99222296476364
693,2279268757,0.813192,-0.087498,0.299252,-0.491438,-3.98183393478394,-4.36130905151367,8.03141307830811,1.07483696937561,0.37529012560844,0.87831073999405
694,2279285424,0.813189,-0.087481,0.299228,-0.491460,-3.99593472480774,-4.33983182907104,8.03262329101562,1.21221065521240,0.58211261034012,0.81658405065536
695,2279302091,0.813190,-0.087489,0.299199,-0.491474,-3.97794294357300,-4.31992149353027,8.02197647094727,1.07274937629700,0.46000412106514,0.81943988800049
696,2279318758,0.813171,-0.087566,0.299219,-0.491481,-3.97665953636169,-4.35103511810303,8.00291156768799,0.45173120498657,0.48977887630463,0.76991778612137
697,2279335425,0.813181,-0.087511,0.299177,-0.491498,-3.97359824180603,-4.33559656143188,8.00687026977539,1.44748878479004,0.54913628101349,1.02768397331238
698,2279352092,0.813194,-0.087479,0.299178,-0.491482,-3.98543119430542,-4.32183313369751,8.01751327514648,1.14396572113037,0.71865397691727,1.12734317779541
699,2279368759,0.813178,-0.087472,0.299219,-0.491485,-4.00762319564819,-4.34355163574219,8.03303337097168,0.77242779731750,0.81066757440567,1.13060855865479
700,2279385426,0.813183,-0.087474,0.299217,-0.491479,-4.01117467880249,-4.37991809844971,8.02325820922852,0.94778513908386,0.57752799987793,1.03481698036194
701,2279402093,0.813181,-0.087437,0.299175,-0.491514,-3.99521279335022,-4.34528541564941,8.01243782043457,1.38142096996307,0.52089822292328,0.84510380029678
702,2279418760,0.813179,-0.087488,0.299171,-0.491509,-3.99849748611450,-4.33783578872681,8.04253292083740,0.74385684728622,0.49359509348869,0.76428294181824
703,2279435427,0.813159,-0.087502,0.299152,-0.491553,-3.98988032341003,-4.33183288574219,8.04480934143066,1.04721367359161,0.54151648283005,0.60463905334473
704,2279452094,0.813142,-0.087555,0.299170,-0.491559,-3.97064495086670,-4.32009649276733,8.02810001373291,0.59567451477051,0.56397879123688,0.81951665878296
705,2279468761,0.813131,-0.087585,0.299194,-0.491558,-3.98271608352661,-4.34816598892212,8.00055408477783,0.69520545005798,0.65293174982071,0.92910063266754
706,2279485428,0.813142,-0.087499,0.299202,-0.491551,-3.96933197975159,-4.35088253021240,8.01033306121826,1.36484956741333,0.87167710065842,1.33098959922791
707,2279502095,0.813140,-0.087468,0.299226,-0.491544,-3.97370505332947,-4.35977745056152,8.01572132110596,1.03248643875122,0.84100586175919,1.11591970920563
708,2279518762,0.813147,-0.087402,0.299213,-0.491554,-4.00938796997070,-4.32856464385986,8.04145145416260,1.37825763225555,0.73942565917969,1.13063406944275
709,2279535429,0.813120,-0.087406,0.299261,-0.491567,-3.99673557281494,-4.34322500228882,8.02688980102539,0.74316531419754,0.88094884157181,0.93323713541031
710,2279552096,0.813098,-0.087389,0.299279,-0.491596,-3.98759174346924,-4.34543752670288,8.01099014282227,1.01308465003967,0.79231607913971,0.86104780435562
711,2279568763,0.813070,-0.087358,0.299287,-0.491643,-3.96816396713257,-4.34466075897217,8.01114368438721,1.20949566364288,0.86861622333527,0.67061728239059
712,2279585430,0.813027,-0.087382,0.299333,-0.491682,-3.98610091209412,-4.31159639358521,8.02591514587402,0.69695997238159,0.86882114410400,0.65814393758774
713,2279602097,0.813004,-0.087411,0.299377,-0.491688,-3.98612284660339,-4.35750818252563,8.00787353515625,0.64529919624329,0.80536580085754,0.85869145393372
714,2279618764,0.812990,-0.087405,0.299402,-0.491696,-4.00306558609009,-4.34426069259644,8.03817367553711,0.90424364805222,0.78810280561447,0.94745212793350
715,2279635431,0.812974,-0.087363,0.299409,-0.491727,-3.99070310592651,-4.33875131607056,8.01904010772705,1.17489314079285,0.79200881719589,0.95671123266220
716,2279652098,0.812968,-0.087355,0.299425,-0.491728,-3.99312496185303,-4.32641887664795,8.01619625091553,0.98201644420624,0.77338826656342,0.93462026119232
717,2279668765,0.812969,-0.087362,0.299450,-0.491711,-3.99764490127563,-4.35145759582520,8.00990295410156,0.80774772167206,0.71846187114716,1.07757747173309
718,2279685432,0.812963,-0.087356,0.299473,-0.491707,-3.99699997901917,-4.34590959548950,8.01741218566895,0.89958214759827,0.75991600751877,1.03695571422577
719,2279702099,0.812959,-0.087358,0.299487,-0.491705,-3.99795460700989,-4.34487915039062,8.01286983489990,0.84536004066467,0.63338929414749,1.09619796276093
720,2279718766,0.812956,-0.087335,0.299497,-0.491708,-3.99594354629517,-4.33875131607056,8.01418209075928,1.04857122898102,0.73823487758636,1.04297482967377
721,2279735433,0.812951,-0.087316,0.299508,-0.491712,-3.98592066764832,-4.33822631835938,8.02151393890381,1.03192293643951,0.74141085147858,1.00225055217743
722,2279752100,0.812962,-0.087358,0.299539,-0.491669,-3.98815894126892,-4.35393428802490,8.03138256072998,0.56463199853897,0.62521880865097,1.14756417274475
723,2279768767,0.812960,-0.087332,0.299532,-0.491681,-3.98874187469482,-4.35482549667358,8.01545524597168,1.16836166381836,0.68893039226532,0.94285470247269
724,2279785434,0.812951,-0.087299,0.299523,-0.491707,-4.00040578842163,-4.31643915176392,8.02481365203857,1.22892296314240,0.70358091592789,0.87160021066666
725,2279802101,0.812927,-0.087379,0.299594,-0.491689,-4.00227594375610,-4.33979845046997,8.01687717437744,0.22119125723839,0.77286320924759,0.89252567291260
726,2279818768,0.812927,-0.087348,0.299583,-0.491701,-3.98954606056213,-4.37006235122681,8.00353050231934,1.18764817714691,0.65572357177734,0.99852395057678
727,2279835435,0.812915,-0.087304,0.299540,-0.491755,-4.00108051300049,-4.30986309051514,8.02873516082764,1.41886675357819,0.52806985378265,0.79620927572250
728,2279852102,0.812894,-0.087417,0.299584,-0.491743,-4.00459575653076,-4.32241249084473,8.04366779327393,0.11648655682802,0.48911288380623,0.82321774959564
729,2279868769,0.812891,-0.087426,0.299543,-0.491771,-3.99182605743408,-4.37297105789185,8.01599597930908,1.08973073959351,0.34965175390244,0.81892776489258
730,2279885436,0.812886,-0.087462,0.299510,-0.491793,-3.98967933654785,-4.34786653518677,8.02132511138916,0.83133709430695,0.23461233079433,0.93316030502319
731,2279902103,0.812898,-0.087459,0.299449,-0.491811,-3.97577929496765,-4.34486627578735,8.03061199188232,1.22951209545135,0.27189162373543,0.88932406902313
732,2279918770,0.812929,-0.087466,0.299430,-0.491770,-3.98156809806824,-4.34303140640259,8.01620769500732,0.95731312036514,0.42992198467255,1.22367238998413
733,2279935437,0.812958,-0.087382,0.299392,-0.491760,-3.97214508056641,-4.35168647766113,8.00750255584717,1.55285954475403,0.61288630962372,1.30613255500793
734,2279952104,0.812968,-0.087386,0.299391,-0.491743,-3.99529838562012,-4.35330629348755,8.00708389282227,0.90324461460114,0.55048090219498,1.13224768638611
735,2279968771,0.812976,-0.087376,0.299319,-0.491777,-3.99936318397522,-4.35659933090210,8.02970600128174,1.38480174541473,0.29764515161514,0.70879304409027
736,2279985438,0.812946,-0.087448,0.299280,-0.491837,-3.99853086471558,-4.33319664001465,8.05866813659668,0.75223219394684,0.20674571394920,0.46266779303551
737,2280002105,0.812905,-0.087515,0.299258,-0.491906,-3.97905135154724,-4.33426380157471,8.02239608764648,0.72558218240738,0.31685468554497,0.43994933366776
738,2280018772,0.812919,-0.087573,0.299223,-0.491894,-3.94981050491333,-4.33294200897217,8.00782871246338,0.87986022233963,0.34547689557076,0.66686505079269
739,2280035439,0.812917,-0.087607,0.299226,-0.491889,-3.95617580413818,-4.35771703720093,7.99661111831665,0.79206001758575,0.56207072734833,0.85792303085327
740,2280052106,0.812925,-0.087566,0.299179,-0.491912,-3.98030924797058,-4.31467819213867,8.01727867126465,1.45040893554688,0.53218078613281,0.86154729127884
741,2280068773,0.812913,-0.087641,0.299212,-0.491899,-3.98329591751099,-4.35174322128296,8.03473377227783,0.39380803704262,0.55386185646057,0.88368940353394
742,2280085440,0.812922,-0.087586,0.299162,-0.491924,-3.98284244537354,-4.36035728454590,8.00375270843506,1.50545024871826,0.52032190561295,0.95614761114120
743,2280102107,0.812935,-0.087539,0.299116,-0.491938,-3.98763632774353,-4.31852912902832,8.04106426239014,1.45663261413574,0.54580658674240,0.93213587999344
744,2280118774,0.812924,-0.087604,0.299154,-0.491922,-3.98046588897705,-4.35276937484741,8.04123115539551,0.45694339275360,0.64043271541595,0.88413751125336
745,2280135441,0.812929,-0.087609,0.299152,-0.491914,-3.97454714775085,-4.35896158218384,8.00103187561035,0.94530063867569,0.58863109350204,1.01001119613647
746,2280152108,0.812918,-0.087592,0.299148,-0.491938,-3.96586346626282,-4.34842061996460,8.02616596221924,1.10441958904266,0.67253828048706,0.86367303133011
747,2280168775,0.812901,-0.087612,0.299154,-0.491958,-3.97209477424622,-4.33893251419067,8.03942298889160,0.88808190822601,0.64980703592300,0.73318916559219
748,2280185442,0.812871,-0.087653,0.299181,-0.491983,-3.99977159500122,-4.33013248443604,8.02895259857178,0.65058821439743,0.68079835176468,0.73367577791214
749,2280202109,0.812847,-0.087702,0.299223,-0.491990,-3.97321677207947,-4.34875392913818,8.00305080413818,0.53115612268448,0.72293126583099,0.80978387594223
750,2280218776,0.812846,-0.087719,0.299272,-0.491958,-3.97400832176208,-4.38262939453125,8.03073310852051,0.65086984634399,0.82609921693802,1.13231182098389
751,2280235443,0.812856,-0.087615,0.299237,-0.491982,-3.99831366539001,-4.34441804885864,8.02810096740723,1.74860477447510,0.79448038339615,1.02555811405182
752,2280252110,0.812837,-0.087651,0.299281,-0.491979,-4.00693082809448,-4.32306861877441,8.03315830230713,0.59134596586227,0.76306635141373,0.91101801395416
753,2280268777,0.812811,-0.087728,0.299337,-0.491975,-3.96792125701904,-4.36031246185303,8.01034069061279,0.29553210735321,0.69115865230560,0.84715282917023
754,2280285444,0.812809,-0.087689,0.299325,-0.491992,-3.98513078689575,-4.35975599288940,8.02396678924561,1.21883153915405,0.65248352289200,1.02372682094574
755,2280302111,0.812813,-0.087712,0.299346,-0.491968,-3.96923732757568,-4.33158588409424,8.01880550384521,0.74947881698608,0.66938787698746,1.04107928276062
756,2280318778,0.812820,-0.087739,0.299380,-0.491932,-3.98416900634766,-4.34391546249390,8.02324008941650,0.64629805088043,0.69401448965073,1.13333642482758
757,2280335445,0.812844,-0.087695,0.299373,-0.491905,-3.99675583839417,-4.36773300170898,8.00857543945312,1.19990372657776,0.66030818223953,1.29628431797028
758,2280352112,0.812842,-0.087646,0.299375,-0.491916,-3.98545789718628,-4.34464120864868,8.02592372894287,1.16825938224792,0.71646410226822,1.18078386783600
759,2280368779,0.812835,-0.087709,0.299445,-0.491873,-3.99678802490234,-4.36120176315308,7.99820709228516,0.26597508788109,0.76091486215591,1.15094518661499
760,2280385446,0.812837,-0.087653,0.299426,-0.491891,-3.98424863815308,-4.35394906997681,8.02779197692871,1.39831233024597,0.71829521656036,0.96051448583603
761,2280402113,0.812824,-0.087661,0.299455,-0.491894,-4.00044488906860,-4.31991910934448,8.03795051574707,0.83278411626816,0.79386556148529,0.90337276458740
762,2280418780,0.812806,-0.087705,0.299513,-0.491881,-3.99019813537598,-4.37527132034302,7.99464273452759,0.47433438897133,0.80581390857697,0.96007925271988
