sep=,
DeviceTag:,B
FirmwareVersion:,3.0.0
AppVersion:,2023.6.0
StartTime: ,2024-03-14_11:33:25_000 EDT
© Movella Technologies B. V. 2005-2024

PacketCounter,SampleTimeFine,Quat_W,Quat_X,Quat_Y,Quat_Z,Acc_X,Acc_Y,Acc_Z,Gyr_X,Gyr_Y,Gyr_Z
0,2267735193,0.174658,-0.682720,-0.053465,-0.707482,0.00000000000000,0.00000000000000,0.00000000000000,0.00000000000000,0.00000000000000,0.00000000000000
1,2267751860,0.174574,-0.682704,-0.053466,-0.707518,9.96126651763916,-1.66095113754272,0.60383993387222,3.07011795043945,3.55647754669189,0.81141048669815
2,2267768527,0.174489,-0.682683,-0.053454,-0.707560,9.93980121612549,-1.66252255439758,0.60327726602554,3.00786614418030,3.62409496307373,0.85852503776550
3,2267785194,0.174407,-0.682644,-0.053434,-0.707618,9.93577384948730,-1.64253270626068,0.58112853765488,2.99176836013794,3.79662179946899,0.88639152050018
4,2267801861,0.174324,-0.682608,-0.053404,-0.707676,9.92885684967041,-1.65699362754822,0.57343500852585,3.02360510826111,3.78323936462402,0.93620824813843
5,2267818528,0.174247,-0.682581,-0.053376,-0.707723,9.94814205169678,-1.67001616954803,0.58389896154404,3.05354571342468,3.68021178245544,0.97078514099121
6,2267835195,0.174193,-0.682558,-0.053391,-0.707758,9.96494293212891,-1.68255913257599,0.58503842353821,3.12577366828918,3.60720276832581,0.87884849309921
7,2267851862,0.174122,-0.682546,-0.053417,-0.707785,9.99477291107178,-1.67513060569763,0.60468119382858,3.22091269493103,3.47289013862610,0.77075022459030
8,2267868529,0.174096,-0.682538,-0.053511,-0.707792,9.98975753784180,-1.65848064422607,0.59496605396271,3.22437024116516,3.38350224494934,0.64780932664871
9,2267885196,0.173979,-0.682549,-0.053525,-0.707809,9.96436595916748,-1.66687750816345,0.61363345384598,2.94410324096680,3.30886626243591,0.62345153093338
10,2267901863,0.173839,-0.682558,-0.053520,-0.707834,9.95547199249268,-1.67255580425262,0.60310292243958,2.90642642974854,3.34838652610779,0.60312777757645
11,2267918530,0.173748,-0.682544,-0.053524,-0.707871,9.95438671112061,-1.66685390472412,0.61643159389496,2.96035456657410,3.55784797668457,0.76158088445663
12,2267935197,0.173600,-0.682522,-0.053449,-0.707934,9.94791603088379,-1.65410149097443,0.63497650623322,3.12331509590149,3.65942764282227,0.87039631605148
13,2267951864,0.173523,-0.682486,-0.053439,-0.707988,9.96566200256348,-1.65240502357483,0.64801293611526,3.17255568504333,3.73744368553162,0.88132023811340
14,2267968531,0.173494,-0.682446,-0.053494,-0.708029,9.97931861877441,-1.67025208473206,0.60541504621506,3.18420934677124,3.72175550460815,0.77539885044098
15,2267985198,0.173405,-0.682418,-0.053496,-0.708078,9.97604846954346,-1.67281687259674,0.59588420391083,3.26399302482605,3.64105057716370,0.78176361322403
16,2268001865,0.173321,-0.682383,-0.053499,-0.708132,9.96328830718994,-1.65773105621338,0.59691858291626,3.19506931304932,3.70901346206665,0.77808827161789
17,2268018532,0.173214,-0.682346,-0.053472,-0.708196,9.95822620391846,-1.63299083709717,0.59493464231491,3.25839638710022,3.74505043029785,0.82001620531082
18,2268035199,0.173176,-0.682307,-0.053513,-0.708240,9.95830631256104,-1.65410280227661,0.61666172742844,3.20845198631287,3.72329282760620,0.81087255477905
19,2268051866,0.173111,-0.682273,-0.053527,-0.708287,9.96123313903809,-1.64727234840393,0.60480082035065,3.19281506538391,3.70205998420715,0.82306402921677
20,2268068533,0.173012,-0.682250,-0.053519,-0.708334,9.97324657440186,-1.65267682075500,0.60044306516647,3.22095036506653,3.60441040992737,0.78294175863266
21,2268085200,0.172954,-0.682236,-0.053561,-0.708358,9.95359992980957,-1.63147640228271,0.59763443470001,3.28640365600586,3.46448874473572,0.74976050853729
22,2268101867,0.172877,-0.682218,-0.053575,-0.708394,9.93493747711182,-1.63733530044556,0.59641307592392,3.17908692359924,3.54975342750549,0.79061275720596
23,2268118534,0.172765,-0.682209,-0.053564,-0.708431,9.92017078399658,-1.63180482387543,0.60642439126968,3.19024133682251,3.47721934318542,0.75092607736588
24,2268135201,0.172695,-0.682192,-0.053586,-0.708463,9.92180061340332,-1.60631906986237,0.59858071804047,3.23374414443970,3.52561354637146,0.78762888908386
25,2268151868,0.172637,-0.682160,-0.053570,-0.708509,10.00457668304443,-1.64059603214264,0.58224320411682,3.19052290916443,3.69919133186340,1.00673282146454
26,2268168535,0.172568,-0.682123,-0.053567,-0.708562,10.03696441650391,-1.66142880916595,0.58670914173126,3.13075566291809,3.74981498718262,0.87618488073349
27,2268185202,0.172427,-0.682125,-0.053535,-0.708597,10.01064777374268,-1.61429858207703,0.63798022270203,2.61135554313660,3.48204660415649,0.69140201807022
28,2268201869,0.172216,-0.682144,-0.053467,-0.708634,9.96519947052002,-1.66144776344299,0.61778873205185,2.08600115776062,3.42833685874939,0.53243690729141
29,2268218536,0.172090,-0.682125,-0.053491,-0.708681,9.94098377227783,-1.67067503929138,0.59908491373062,2.96738529205322,3.58141112327576,0.48221033811569
30,2268235203,0.172055,-0.682110,-0.053585,-0.708697,9.94742012023926,-1.66147768497467,0.61820882558823,3.75360512733459,3.36664867401123,0.63694953918457
31,2268251870,0.172108,-0.682063,-0.053734,-0.708719,9.97683238983154,-1.63304853439331,0.60094082355499,4.45577716827393,3.51817297935486,0.79053592681885
32,2268268537,0.172161,-0.681993,-0.053840,-0.708765,10.00010681152344,-1.60152077674866,0.60980391502380,4.26977777481079,3.79382991790771,0.95481586456299
33,2268285204,0.172118,-0.681958,-0.053843,-0.708808,9.98762989044189,-1.56473720073700,0.59751641750336,3.27308559417725,3.69881987571716,0.98684453964233
34,2268301871,0.171990,-0.681960,-0.053737,-0.708846,9.96916770935059,-1.58394408226013,0.62103593349457,2.30876731872559,3.59197640419006,1.09736335277557
35,2268318538,0.171852,-0.681957,-0.053578,-0.708894,9.97443866729736,-1.64125621318817,0.61121302843094,1.99435853958130,3.71802926063538,1.29062402248383
36,2268335205,0.171786,-0.681929,-0.053518,-0.708942,9.97273349761963,-1.68210554122925,0.58767956495285,2.68683671951294,3.78443026542664,1.15020251274109
37,2268351872,0.171717,-0.681904,-0.053459,-0.708987,9.95277976989746,-1.65476572513580,0.61484479904175,3.39910006523132,3.62848734855652,1.19584417343140
38,2268368539,0.171692,-0.681886,-0.053461,-0.709011,9.97365379333496,-1.62267625331879,0.61894404888153,3.91547775268555,3.43908143043518,1.14899849891663
39,2268385206,0.171742,-0.681858,-0.053537,-0.709020,9.98307037353516,-1.59858906269073,0.62194448709488,4.14188146591187,3.44221901893616,1.14732098579407
40,2268401873,0.171774,-0.681840,-0.053597,-0.709024,9.95558643341064,-1.59014964103699,0.61733019351959,3.89817643165588,3.39365720748901,1.13325965404510
41,2268418540,0.171807,-0.681828,-0.053601,-0.709028,9.94824028015137,-1.59550356864929,0.61607706546783,3.62013816833496,3.42637777328491,1.40419101715088
42,2268435207,0.171849,-0.681815,-0.053558,-0.709033,9.97778892517090,-1.61145591735840,0.58987349271774,3.43115425109863,3.49667215347290,1.66745102405548
43,2268451874,0.171824,-0.681815,-0.053477,-0.709045,9.99836444854736,-1.61005032062531,0.60140591859818,2.92632842063904,3.48969244956970,1.51602876186371
44,2268468541,0.171725,-0.681817,-0.053340,-0.709077,10.00369262695312,-1.61281096935272,0.60893082618713,2.28465270996094,3.60949516296387,1.39864552021027
45,2268485208,0.171610,-0.681829,-0.053208,-0.709104,9.96229076385498,-1.63834667205811,0.60322946310043,2.37571907043457,3.50320267677307,1.31641614437103
46,2268501875,0.171526,-0.681857,-0.053104,-0.709105,9.93894004821777,-1.64872562885284,0.60667634010315,2.68636250495911,3.27746510505676,1.36997199058533
47,2268518542,0.171512,-0.681872,-0.053106,-0.709093,9.93210983276367,-1.65781700611115,0.59705537557602,3.36141133308411,3.20338106155396,1.21915197372437
48,2268535209,0.171570,-0.681853,-0.053189,-0.709092,9.93771839141846,-1.64127469062805,0.59701508283615,4.13432598114014,3.35363793373108,1.15952563285828
49,2268551876,0.171606,-0.681842,-0.053247,-0.709090,9.95555210113525,-1.59008753299713,0.64064419269562,3.90171051025391,3.33438968658447,1.17403507232666
50,2268568543,0.171556,-0.681859,-0.053191,-0.709089,9.97963047027588,-1.58622229099274,0.62517243623734,2.89842295646667,3.30238652229309,1.29855120182037
51,2268585210,0.171433,-0.681886,-0.053049,-0.709104,9.98127841949463,-1.61004734039307,0.61461526155472,2.12894058227539,3.40604066848755,1.32873547077179
52,2268601877,0.171285,-0.681914,-0.052895,-0.709124,9.98954772949219,-1.63380861282349,0.60237216949463,1.94688522815704,3.43306207656860,1.26139974594116
53,2268618544,0.171157,-0.681937,-0.052761,-0.709143,9.97474956512451,-1.65359568595886,0.63002026081085,2.14990425109863,3.42804193496704,1.26211702823639
54,2268635211,0.171066,-0.681962,-0.052667,-0.709148,9.95458889007568,-1.66158735752106,0.60587680339813,2.51226019859314,3.32976627349854,1.27158093452454
55,2268651878,0.171027,-0.681974,-0.052651,-0.709146,9.96589469909668,-1.66668486595154,0.63513153791428,3.15086197853088,3.28141021728516,1.16778552532196
56,2268668545,0.171007,-0.681967,-0.052664,-0.709158,9.97244739532471,-1.63813936710358,0.63359493017197,3.40130281448364,3.41167593002319,1.09181821346283
57,2268685212,0.170927,-0.681955,-0.052618,-0.709192,9.96815967559814,-1.63933134078979,0.63348394632339,3.37390947341919,3.50042343139648,1.09578812122345
58,2268701879,0.170797,-0.681949,-0.052537,-0.709234,9.95598888397217,-1.64488506317139,0.64428281784058,3.16446137428284,3.49613332748413,1.02113986015320
59,2268718546,0.170765,-0.681928,-0.052533,-0.709262,9.96568393707275,-1.63979780673981,0.62252402305603,3.02419376373291,3.61295270919800,1.07250607013702
60,2268735213,0.170690,-0.681902,-0.052493,-0.709309,9.95713520050049,-1.62080132961273,0.65017253160477,2.88988137245178,3.71189498901367,1.03083431720734
61,2268751880,0.170624,-0.681869,-0.052448,-0.709360,9.95063686370850,-1.62853825092316,0.63960498571396,2.92795443534851,3.77515840530396,1.09023022651672
62,2268768547,0.170587,-0.681843,-0.052433,-0.709395,9.95628833770752,-1.63965356349945,0.62058615684509,3.18930649757385,3.63439106941223,1.10984945297241
63,2268785214,0.170585,-0.681822,-0.052458,-0.709413,9.94483947753906,-1.62696647644043,0.62196701765060,3.55956363677979,3.50593066215515,1.11396038532257
64,2268801881,0.170594,-0.681804,-0.052507,-0.709425,9.96707916259766,-1.61852324008942,0.59863251447678,3.79823589324951,3.41989803314209,1.07093119621277
65,2268818548,0.170563,-0.681795,-0.052490,-0.709443,9.97593784332275,-1.60892498493195,0.60248917341232,3.59804630279541,3.42089653015137,1.20633244514465
66,2268835215,0.170521,-0.681794,-0.052470,-0.709455,9.96572589874268,-1.60613882541656,0.62586706876755,3.26445341110229,3.38807344436646,1.15610599517822
67,2268851882,0.170464,-0.681802,-0.052460,-0.709461,9.95566749572754,-1.61785352230072,0.62234711647034,3.10349106788635,3.32830691337585,1.03643071651459
68,2268868549,0.170393,-0.681804,-0.052438,-0.709479,9.95744991302490,-1.62616872787476,0.62016773223877,3.11373639106750,3.40118789672852,1.02088391780853
69,2268885216,0.170263,-0.681807,-0.052328,-0.709515,9.96850776672363,-1.62094366550446,0.61737018823624,3.08767509460449,3.44278240203857,1.17297208309174
70,2268901883,0.170261,-0.681800,-0.052355,-0.709520,9.96288967132568,-1.62514019012451,0.63821995258331,3.29018187522888,3.41234135627747,1.10348474979401
71,2268918550,0.170208,-0.681803,-0.052347,-0.709531,9.96987152099609,-1.63270390033722,0.62890946865082,3.28512406349182,3.34541630744934,1.05026173591614
72,2268935217,0.170070,-0.681809,-0.052256,-0.709565,9.95628166198730,-1.62193429470062,0.63357019424438,3.41486430168152,3.35838866233826,1.06702494621277
73,2268951884,0.170039,-0.681811,-0.052254,-0.709570,9.96234703063965,-1.60715043544769,0.62566334009171,3.25892186164856,3.34778499603271,1.12602388858795
74,2268968551,0.170017,-0.681820,-0.052266,-0.709566,9.96131420135498,-1.61670482158661,0.61786431074142,3.37677860260010,3.25863981246948,1.11308956146240
75,2268985218,0.169990,-0.681822,-0.052267,-0.709570,9.99199581146240,-1.62735664844513,0.62391066551208,3.54436230659485,3.30799555778503,1.14992058277130
76,2269001885,0.169981,-0.681832,-0.052284,-0.709562,9.97138786315918,-1.60701668262482,0.62289571762085,3.54262089729309,3.21472668647766,1.16432762145996
77,2269018552,0.169927,-0.681853,-0.052225,-0.709558,9.96555423736572,-1.57709920406342,0.64734184741974,3.16949558258057,3.22954440116882,1.31764566898346
78,2269035219,0.169864,-0.681881,-0.052140,-0.709554,9.98155212402344,-1.59456586837769,0.62032139301300,2.64119458198547,3.27291870117188,1.37520992755890
79,2269051886,0.169774,-0.681921,-0.052034,-0.709544,9.97677230834961,-1.62256813049316,0.60485911369324,2.39929533004761,3.19916701316833,1.35008382797241
80,2269068553,0.169637,-0.681963,-0.051877,-0.709548,9.92300891876221,-1.63358247280121,0.60950464010239,2.38404273986816,3.22604727745056,1.37961518764496
81,2269085220,0.169561,-0.681985,-0.051811,-0.709550,9.91092872619629,-1.65040373802185,0.63194739818573,2.82921719551086,3.27778530120850,1.22468411922455
82,2269101887,0.169546,-0.682016,-0.051836,-0.709522,9.89000129699707,-1.63455092906952,0.64124083518982,3.25665521621704,3.05988574028015,1.11002886295319
83,2269118554,0.169532,-0.682020,-0.051862,-0.709520,9.94669532775879,-1.61598718166351,0.61763852834702,3.69068717956543,3.24703669548035,1.09512209892273
84,2269135221,0.169642,-0.682012,-0.051953,-0.709495,10.06224346160889,-1.64387190341949,0.59354501962662,3.87471556663513,3.28176832199097,1.37172663211823
85,2269151888,0.169624,-0.682009,-0.051979,-0.709499,10.07942485809326,-1.59141302108765,0.59649538993835,3.65786504745483,3.30857181549072,1.06502735614777
86,2269168555,0.169461,-0.682077,-0.051896,-0.709480,10.02047729492188,-1.56335067749023,0.66168773174286,2.25256037712097,2.95324730873108,0.91849714517593
87,2269185222,0.169241,-0.682153,-0.051718,-0.709471,9.97728633880615,-1.63038384914398,0.64872926473618,1.67318820953369,3.01971173286438,1.08642673492432
88,2269201889,0.169168,-0.682186,-0.051679,-0.709461,9.93356227874756,-1.67554414272308,0.65845072269440,2.39216184616089,3.23170757293701,1.08861649036407
89,2269218556,0.169143,-0.682201,-0.051679,-0.709452,9.93465232849121,-1.68830907344818,0.64548736810684,3.49942493438721,3.18322324752808,1.17920863628387
90,2269235223,0.169247,-0.682164,-0.051757,-0.709457,9.97777557373047,-1.62058591842651,0.63070327043533,4.34045648574829,3.49810552597046,1.39116668701172
91,2269251890,0.169351,-0.682111,-0.051842,-0.709477,9.99075984954834,-1.59261429309845,0.63057088851929,4.29669713973999,3.64751744270325,1.32868444919586
92,2269268557,0.169392,-0.682082,-0.051862,-0.709493,9.98026371002197,-1.56231176853180,0.61777621507645,3.44748282432556,3.59561347961426,1.32937610149384
93,2269285224,0.169309,-0.682067,-0.051716,-0.709538,9.97221183776855,-1.57892155647278,0.59923321008682,2.65930271148682,3.71569895744324,1.51858997344971
94,2269301891,0.169141,-0.682063,-0.051471,-0.709600,9.95326137542725,-1.61551380157471,0.59007591009140,2.21937894821167,3.75223493576050,1.58242952823639
95,2269318558,0.169060,-0.682059,-0.051349,-0.709632,9.95736408233643,-1.64987480640411,0.58753478527069,2.48853015899658,3.61281275749207,1.41597259044647
96,2269335225,0.169050,-0.682066,-0.051300,-0.709631,9.97428131103516,-1.64639508724213,0.62403440475464,3.08831596374512,3.36781454086304,1.44739949703217
97,2269351892,0.169029,-0.682087,-0.051302,-0.709616,9.98822402954102,-1.63157427310944,0.61085551977158,3.29599642753601,3.16663932800293,1.18228232860565
98,2269368559,0.169005,-0.682108,-0.051362,-0.709597,9.94888877868652,-1.62852156162262,0.60730850696564,3.56357216835022,3.07121944427490,0.89709776639938
99,2269385226,0.168977,-0.682133,-0.051397,-0.709578,9.89517974853516,-1.59662735462189,0.61938500404358,3.62874341011047,3.05477547645569,1.01504409313202
100,2269401893,0.169024,-0.682124,-0.051426,-0.709573,9.93030166625977,-1.61936759948730,0.61060428619385,3.85413575172424,3.34089517593384,1.37334024906158
101,2269418560,0.169027,-0.682088,-0.051391,-0.709609,9.99805641174316,-1.62251126766205,0.61274194717407,3.64920783042908,3.67574286460876,1.41782963275909
102,2269435227,0.168952,-0.682066,-0.051324,-0.709653,10.00673770904541,-1.58514308929443,0.63437575101852,2.92593050003052,3.67611336708069,1.17096138000488
103,2269451894,0.168791,-0.682070,-0.051185,-0.709697,10.01017665863037,-1.60775828361511,0.60225665569305,2.17369866371155,3.60670351982117,1.09700477123260
104,2269468561,0.168641,-0.682100,-0.051067,-0.709713,9.97957324981689,-1.63995873928070,0.60677206516266,1.97412467002869,3.37773942947388,1.07937061786652
105,2269485228,0.168510,-0.682131,-0.050978,-0.709720,9.95164299011230,-1.67029690742493,0.61167025566101,2.42440843582153,3.26305794715881,1.05209279060364
106,2269501895,0.168503,-0.682111,-0.051027,-0.709737,9.93644428253174,-1.66679966449738,0.62882500886917,3.36544442176819,3.50911903381348,0.96326798200607
107,2269518562,0.168537,-0.682062,-0.051106,-0.709771,9.92527008056641,-1.62333798408508,0.62838500738144,4.00674867630005,3.66311597824097,1.01066434383392
108,2269535229,0.168538,-0.682026,-0.051148,-0.709802,9.93373012542725,-1.56299889087677,0.60267871618271,3.61656475067139,3.62414574623108,1.02125525474548
109,2269551896,0.168470,-0.682003,-0.051114,-0.709843,9.96984958648682,-1.55110573768616,0.58701747655869,2.77920913696289,3.69241690635681,1.03179502487183
110,2269568563,0.168351,-0.681997,-0.051013,-0.709885,9.99782848358154,-1.60905742645264,0.61083865165710,2.38044404983521,3.64476394653320,1.11097633838654
111,2269585230,0.168213,-0.682000,-0.050895,-0.709923,9.99634361267090,-1.63437163829803,0.61154842376709,2.22128677368164,3.59084939956665,1.10809516906738
112,2269601897,0.168079,-0.682025,-0.050808,-0.709937,9.97138023376465,-1.64242839813232,0.60453194379807,2.54396843910217,3.30813646316528,1.03278100490570
113,2269618564,0.167996,-0.682048,-0.050792,-0.709936,9.96801567077637,-1.64195680618286,0.61787503957748,2.95172262191772,3.21044945716858,0.94828456640244
114,2269635231,0.167925,-0.682051,-0.050778,-0.709950,9.97540760040283,-1.63639450073242,0.64005619287491,3.07556056976318,3.37589478492737,0.97712463140488
115,2269651898,0.167867,-0.682042,-0.050783,-0.709972,9.95967769622803,-1.61644697189331,0.64393973350525,3.01238679885864,3.48791265487671,0.92538702487946
116,2269668565,0.167829,-0.682018,-0.050794,-0.710004,9.96286582946777,-1.62001442909241,0.64478802680969,3.06298422813416,3.62575936317444,0.96814721822739
117,2269685232,0.167721,-0.681986,-0.050732,-0.710064,9.95582771301270,-1.61656987667084,0.62668812274933,3.04269886016846,3.74943065643311,0.98603773117065
118,2269701899,0.167647,-0.681946,-0.050697,-0.710122,9.96277427673340,-1.62438523769379,0.64355510473251,3.10196685791016,3.80196166038513,1.00236582756042
119,2269718566,0.167552,-0.681896,-0.050650,-0.710197,9.97799015045166,-1.59989809989929,0.61666500568390,3.01886653900146,3.91839718818665,0.93657964468002
120,2269735233,0.167434,-0.681856,-0.050569,-0.710268,9.96262836456299,-1.58960545063019,0.62387740612030,2.83441662788391,3.87120604515076,1.00232732295990
121,2269751900,0.167318,-0.681831,-0.050497,-0.710325,9.95920562744141,-1.59958350658417,0.60449814796448,2.72734308242798,3.74438476562500,0.97934007644653
122,2269768567,0.167247,-0.681801,-0.050472,-0.710372,9.93555736541748,-1.61450445652008,0.61011987924576,2.83937287330627,3.73864793777466,0.96518909931183
123,2269785234,0.167199,-0.681779,-0.050481,-0.710404,9.93736839294434,-1.59383273124695,0.60415482521057,2.91446948051453,3.63057470321655,0.92203158140182
124,2269801901,0.167233,-0.681750,-0.050569,-0.710417,9.94707679748535,-1.57324373722076,0.59277772903442,3.11149430274963,3.60916209220886,0.93532449007034
125,2269818568,0.167178,-0.681735,-0.050583,-0.710444,9.95309925079346,-1.59412586688995,0.59111350774765,3.15352606773376,3.52298903465271,0.89055377244949
126,2269835235,0.167095,-0.681735,-0.050580,-0.710463,9.93954181671143,-1.60155498981476,0.61664980649948,3.21349763870239,3.37294936180115,0.87165147066116
127,2269851902,0.167069,-0.681742,-0.050627,-0.710459,9.94438457489014,-1.58868157863617,0.61865872144699,3.39916443824768,3.24868988990784,0.91888135671616
128,2269868569,0.167028,-0.681764,-0.050650,-0.710446,9.95330429077148,-1.58771252632141,0.61901730298996,3.29672622680664,3.13667249679565,0.98496216535568
129,2269885236,0.166941,-0.681796,-0.050610,-0.710439,9.95379352569580,-1.60196077823639,0.61867713928223,3.22057962417603,3.10427236557007,1.08213663101196
130,2269901903,0.166917,-0.681827,-0.050643,-0.710413,9.96859455108643,-1.57837116718292,0.63598895072937,3.18237829208374,3.06732606887817,1.01946246623993
131,2269918570,0.166852,-0.681865,-0.050621,-0.710392,9.94620895385742,-1.58511364459991,0.63785248994827,3.00129628181458,3.05556964874268,1.09206151962280
132,2269935237,0.166819,-0.681891,-0.050609,-0.710377,9.93756866455078,-1.59076249599457,0.64986330270767,3.17374682426453,3.15011906623840,1.19288599491119
133,2269951904,0.166853,-0.681914,-0.050653,-0.710343,9.95102024078369,-1.62629210948944,0.64626729488373,3.44127130508423,3.09058237075806,1.24682641029358
134,2269968571,0.166876,-0.681925,-0.050700,-0.710324,10.00628852844238,-1.61387801170349,0.63972258567810,3.78727340698242,3.14772415161133,1.19046545028687
135,2269985238,0.166909,-0.681921,-0.050773,-0.710315,10.08319950103760,-1.60029959678650,0.60222911834717,3.55204629898071,3.31565380096436,1.06806242465973
136,2270001905,0.166820,-0.681948,-0.050752,-0.710312,10.05099487304688,-1.58199119567871,0.61054366827011,2.73357939720154,3.20842623710632,0.93878227472305
137,2270018572,0.166584,-0.682024,-0.050612,-0.710303,9.95397949218750,-1.57682085037231,0.65223813056946,1.39339494705200,3.03586077690125,0.79866808652878
138,2270035239,0.166359,-0.682082,-0.050452,-0.710313,9.91831111907959,-1.65389704704285,0.62747168540955,1.50300455093384,3.21673750877380,0.92698770761490
139,2270051906,0.166285,-0.682068,-0.050476,-0.710341,9.91824436187744,-1.68991017341614,0.61387979984283,3.19545364379883,3.49048614501953,0.75382024049759
140,2270068573,0.166343,-0.682033,-0.050644,-0.710350,9.92104911804199,-1.62758696079254,0.63455939292908,4.54937934875488,3.38423180580139,0.74483019113541
141,2270085240,0.166450,-0.681983,-0.050843,-0.710358,9.97369861602783,-1.55296695232391,0.62707555294037,4.92684602737427,3.43543124198914,0.82681632041931
142,2270101907,0.166521,-0.681960,-0.050945,-0.710356,9.99689102172852,-1.52927005290985,0.60608947277069,4.26365661621094,3.36541938781738,1.13270902633667
143,2270118574,0.166512,-0.681982,-0.050964,-0.710336,9.99789905548096,-1.51110684871674,0.61817449331284,3.16096615791321,3.16174721717834,1.14265954494476
144,2270135241,0.166379,-0.682044,-0.050839,-0.710316,9.97541427612305,-1.53669476509094,0.58581739664078,2.25737571716309,3.02241396903992,1.26352584362030
145,2270151908,0.166292,-0.682098,-0.050710,-0.710294,9.99533843994141,-1.58072412014008,0.59133970737457,1.99361586570740,3.14919686317444,1.46864509582520
146,2270168575,0.166245,-0.682156,-0.050594,-0.710258,9.99128150939941,-1.59281456470490,0.59467810392380,2.02345490455627,3.10060977935791,1.60376501083374
147,2270185242,0.166124,-0.682238,-0.050449,-0.710218,9.98689079284668,-1.62095248699188,0.62146210670471,2.37712788581848,2.82843637466431,1.45564687252045
148,2270201909,0.166077,-0.682313,-0.050435,-0.710157,9.95575141906738,-1.63583874702454,0.64598840475082,2.96897268295288,2.70763397216797,1.19179725646973
149,2270218576,0.166071,-0.682387,-0.050483,-0.710084,9.91037273406982,-1.62789654731750,0.61598235368729,3.46030116081238,2.59989380836487,1.11604773998260
150,2270235243,0.166121,-0.682420,-0.050544,-0.710037,9.95852851867676,-1.63032436370850,0.61581307649612,3.91476058959961,2.91528892517090,1.28729426860809
151,2270251910,0.166212,-0.682413,-0.050613,-0.710018,9.99250030517578,-1.60448503494263,0.60023599863052,3.99888586997986,3.27436614036560,1.39651978015900
152,2270268577,0.166209,-0.682412,-0.050611,-0.710019,10.00364112854004,-1.54608201980591,0.62034976482391,3.35124230384827,3.36655855178833,1.25532960891724
153,2270285244,0.166155,-0.682430,-0.050563,-0.710018,10.00368213653564,-1.57117176055908,0.62481719255447,2.51217079162598,3.34852790832520,1.20885550975800
154,2270301911,0.165991,-0.682479,-0.050433,-0.710018,9.99059200286865,-1.59189093112946,0.60634112358093,2.03555679321289,3.18590021133423,1.09995043277740
155,2270318578,0.165870,-0.682537,-0.050338,-0.709998,9.96210193634033,-1.63762056827545,0.61151844263077,2.31035542488098,3.03566884994507,1.16213786602020
156,2270335245,0.165811,-0.682574,-0.050320,-0.709977,9.95630359649658,-1.62976598739624,0.60927999019623,3.00621390342712,3.06972074508667,1.10377931594849
157,2270351912,0.165824,-0.682578,-0.050358,-0.709967,9.95293521881104,-1.60825288295746,0.61630594730377,3.64760708808899,3.24014735221863,1.16605675220490
158,2270368579,0.165840,-0.682574,-0.050396,-0.709964,9.96275520324707,-1.58190846443176,0.60454708337784,3.65731453895569,3.31583309173584,1.16535234451294
159,2270385246,0.165830,-0.682563,-0.050390,-0.709978,9.97215652465820,-1.57180702686310,0.60019910335541,3.32712817192078,3.47149419784546,1.22586226463318
160,2270401913,0.165765,-0.682582,-0.050342,-0.709979,9.97991371154785,-1.56973600387573,0.56910818815231,2.83900117874146,3.29056596755981,1.18430554866791
161,2270418580,0.165685,-0.682606,-0.050252,-0.709981,9.98106670379639,-1.57413506507874,0.58762228488922,2.54644012451172,3.31433486938477,1.29700160026550
162,2270435247,0.165580,-0.682634,-0.050142,-0.709986,9.98235225677490,-1.59010958671570,0.58476954698563,2.32894992828369,3.32386255264282,1.27634477615356
163,2270451914,0.165480,-0.682660,-0.050044,-0.709991,9.98748874664307,-1.60698592662811,0.58705419301987,2.41356158256531,3.32623171806335,1.24037170410156
164,2270468581,0.165408,-0.682686,-0.050004,-0.709986,9.99276065826416,-1.60464394092560,0.59895288944244,2.83763122558594,3.21984958648682,1.11827611923218
165,2270485248,0.165356,-0.682711,-0.049999,-0.709974,9.98801517486572,-1.60937428474426,0.59998393058777,3.09987974166870,3.15373039245605,1.05638313293457
166,2270501915,0.165325,-0.682738,-0.050017,-0.709954,9.99670028686523,-1.61041986942291,0.61411625146866,3.31229877471924,3.09144043922424,1.06407964229584
167,2270518582,0.165284,-0.682750,-0.050020,-0.709952,9.97585582733154,-1.61268532276154,0.60008162260056,3.20558357238770,3.26681041717529,1.05935418605804
168,2270535249,0.165228,-0.682762,-0.049992,-0.709956,9.96344757080078,-1.60244143009186,0.60865694284439,2.97926974296570,3.31766486167908,1.11900627613068
169,2270551916,0.165158,-0.682760,-0.049939,-0.709977,9.97068500518799,-1.59385871887207,0.60495549440384,2.78973555564880,3.49450778961182,1.14867854118347
170,2270568583,0.165036,-0.682756,-0.049817,-0.710018,9.97629737854004,-1.59154033660889,0.62754011154175,2.63449716567993,3.59397482872009,1.22501718997955
171,2270585250,0.164981,-0.682727,-0.049755,-0.710063,9.97314834594727,-1.60058474540710,0.59949761629105,2.85106444358826,3.75468063354492,1.22774469852448
172,2270601917,0.164934,-0.682701,-0.049710,-0.710102,9.99259376525879,-1.60318768024445,0.61000227928162,2.95889401435852,3.68776774406433,1.19525492191315
173,2270618584,0.164897,-0.682672,-0.049690,-0.710140,9.98909473419189,-1.59497892856598,0.59058427810669,3.13536548614502,3.68530845642090,1.12375712394714
174,2270635251,0.164857,-0.682654,-0.049682,-0.710167,9.98929882049561,-1.59165608882904,0.59521496295929,3.17316985130310,3.55634880065918,1.06845927238464
175,2270651918,0.164808,-0.682644,-0.049672,-0.710189,9.97497272491455,-1.59042084217072,0.60040664672852,3.11341643333435,3.49706912040710,1.04119479656219
176,2270668585,0.164775,-0.682627,-0.049680,-0.710213,9.97667980194092,-1.57865023612976,0.59607630968094,3.28277945518494,3.52510118484497,1.04019570350647
177,2270685252,0.164756,-0.682609,-0.049661,-0.710235,9.97853660583496,-1.56281304359436,0.61643618345261,3.22046422958374,3.55440235137939,1.22640001773834
178,2270701919,0.164727,-0.682612,-0.049622,-0.710242,9.98121643066406,-1.57349956035614,0.61347281932831,3.05504465103149,3.40187907218933,1.29803895950317
179,2270718586,0.164678,-0.682628,-0.049589,-0.710240,9.97376632690430,-1.58215606212616,0.63138067722321,2.97560667991638,3.28362512588501,1.18850612640381
180,2270735253,0.164626,-0.682627,-0.049533,-0.710257,9.94973754882812,-1.56474614143372,0.61671060323715,2.86622786521912,3.48684906959534,1.25535535812378
181,2270751920,0.164557,-0.682616,-0.049449,-0.710290,9.91832065582275,-1.59232521057129,0.61759841442108,2.64668822288513,3.62697601318359,1.28489971160889
182,2270768587,0.164472,-0.682620,-0.049391,-0.710309,9.87544059753418,-1.59545397758484,0.62268841266632,2.68987178802490,3.45647263526917,1.09801650047302
183,2270785254,0.164439,-0.682604,-0.049359,-0.710335,9.95168399810791,-1.60969376564026,0.59832531213760,3.08631706237793,3.57422661781311,1.21720504760742
184,2270801921,0.164440,-0.682565,-0.049366,-0.710371,10.07182884216309,-1.62828481197357,0.58170610666275,3.45950794219971,3.70567178726196,1.18599617481232
185,2270818588,0.164375,-0.682557,-0.049401,-0.710392,10.06657695770264,-1.56845366954803,0.60327219963074,3.25132775306702,3.42395734786987,0.75397396087646
186,2270835255,0.164175,-0.682602,-0.049342,-0.710399,9.98817253112793,-1.54268264770508,0.63569337129593,2.10063862800598,3.16249036788940,0.57569676637650
187,2270851922,0.163991,-0.682618,-0.049247,-0.710433,9.94797134399414,-1.60396528244019,0.60531508922577,2.03090763092041,3.47492599487305,0.77678191661835
188,2270868589,0.163882,-0.682604,-0.049213,-0.710473,9.91225719451904,-1.64093816280365,0.60991925001144,2.70256257057190,3.60479545593262,0.84238898754120
189,2270885256,0.163878,-0.682582,-0.049261,-0.710492,9.94930934906006,-1.61301302909851,0.60654467344284,3.62294244766235,3.49425125122070,0.99224883317947
190,2270901923,0.163950,-0.682530,-0.049322,-0.710521,9.99236202239990,-1.57158398628235,0.62876009941101,4.06522226333618,3.69418382644653,1.27410387992859
191,2270918590,0.163947,-0.682486,-0.049314,-0.710564,10.00607681274414,-1.53634095191956,0.61564016342163,3.36845445632935,3.77418494224548,1.22180259227753
192,2270935257,0.163850,-0.682476,-0.049251,-0.710602,9.99427032470703,-1.53920900821686,0.62616825103760,2.61519742012024,3.61593675613403,1.04734170436859
193,2270951924,0.163742,-0.682469,-0.049134,-0.710641,9.96470737457275,-1.57054841518402,0.60112476348877,2.29386067390442,3.66145110130310,1.23678612709045
194,2270968591,0.163668,-0.682477,-0.049015,-0.710659,9.94924736022949,-1.60190522670746,0.59315246343613,2.43566513061523,3.50771021842957,1.44282734394073
195,2270985258,0.163654,-0.682475,-0.048946,-0.710668,9.98597431182861,-1.59484124183655,0.60373651981354,2.97483873367310,3.47406888008118,1.50473344326019
196,2271001925,0.163655,-0.682476,-0.048942,-0.710667,9.98932838439941,-1.59459662437439,0.59722083806992,3.36415147781372,3.34532618522644,1.29127717018127
197,2271018592,0.163636,-0.682484,-0.048928,-0.710665,9.99841880798340,-1.56049692630768,0.61324274539948,3.21129512786865,3.31017279624939,1.24669837951660
198,2271035259,0.163575,-0.682511,-0.048906,-0.710655,9.93658733367920,-1.57581794261932,0.61334240436554,2.96014952659607,3.17600059509277,1.08766889572144
199,2271051926,0.163541,-0.682527,-0.048879,-0.710649,9.91130161285400,-1.59479761123657,0.58341968059540,3.07243609428406,3.27049899101257,1.23606908321381
200,2271068593,0.163649,-0.682514,-0.048938,-0.710633,9.95976924896240,-1.61179637908936,0.57611477375031,3.35235667228699,3.44110488891602,1.46731317043304
201,2271085260,0.163674,-0.682497,-0.048941,-0.710643,9.99213218688965,-1.57028090953827,0.61546510457993,3.52644634246826,3.48711800575256,1.36130213737488
202,2271101927,0.163615,-0.682501,-0.048892,-0.710657,9.99236297607422,-1.54485642910004,0.63487279415131,2.85201287269592,3.42838859558105,1.18915927410126
203,2271118594,0.163511,-0.682523,-0.048801,-0.710665,9.99273681640625,-1.55726623535156,0.60331040620804,2.41161465644836,3.34787440299988,1.17851710319519
204,2271135261,0.163364,-0.682573,-0.048690,-0.710658,9.96159744262695,-1.61063826084137,0.59808415174484,2.08407998085022,3.15348744392395,1.09103715419769
205,2271151928,0.163258,-0.682615,-0.048597,-0.710649,9.95815849304199,-1.60217630863190,0.59436219930649,2.37717890739441,3.16900801658630,1.21055865287781
206,2271168595,0.163224,-0.682617,-0.048570,-0.710657,9.95909881591797,-1.60094451904297,0.59895527362823,3.08375668525696,3.40076541900635,1.20943188667297
207,2271185262,0.163212,-0.682612,-0.048563,-0.710665,9.96026515960693,-1.56918346881866,0.59588760137558,3.28307414054871,3.41389107704163,1.23016512393951
208,2271201929,0.163167,-0.682625,-0.048523,-0.710665,9.98862552642822,-1.54419016838074,0.61953568458557,2.95162057876587,3.31954741477966,1.23852777481079
209,2271218596,0.163104,-0.682646,-0.048449,-0.710665,9.99566268920898,-1.56044876575470,0.59639304876328,2.68614506721497,3.31092810630798,1.30743861198425
210,2271235263,0.163023,-0.682672,-0.048378,-0.710663,9.99145984649658,-1.57101845741272,0.60676884651184,2.62498164176941,3.26666927337646,1.21333765983582
211,2271251930,0.162932,-0.682722,-0.048294,-0.710642,9.96373367309570,-1.56851696968079,0.60082674026489,2.48379158973694,3.07431769371033,1.24886226654053
212,2271268597,0.162865,-0.682775,-0.048208,-0.710612,9.97071266174316,-1.58787143230438,0.61627781391144,2.58403968811035,3.02388620376587,1.39808189868927
213,2271285264,0.162819,-0.682816,-0.048128,-0.710589,9.97430038452148,-1.58661878108978,0.61984235048294,2.72825217247009,3.12135577201843,1.44405686855316
214,2271301931,0.162785,-0.682844,-0.048071,-0.710573,9.97724246978760,-1.59394311904907,0.60617494583130,2.90163731575012,3.18768000602722,1.39494454860687
215,2271318598,0.162764,-0.682865,-0.048039,-0.710560,9.97735691070557,-1.59958386421204,0.62398749589920,3.08971142768860,3.22159123420715,1.33586895465851
216,2271335265,0.162737,-0.682882,-0.048007,-0.710553,9.97055339813232,-1.59023714065552,0.60829788446426,3.07486891746521,3.26196980476379,1.29472219944000
217,2271351932,0.162716,-0.682905,-0.047969,-0.710537,9.97663402557373,-1.60532200336456,0.60672223567963,3.06399631500244,3.19855284690857,1.36040592193604
218,2271368599,0.162689,-0.682918,-0.047937,-0.710533,9.97354221343994,-1.60282850265503,0.63267457485199,3.07153940200806,3.29538154602051,1.29237854480743
219,2271385266,0.162681,-0.682919,-0.047907,-0.710536,9.97497081756592,-1.58178889751434,0.59343630075455,3.17369508743286,3.39446401596069,1.36063611507416
220,2271401933,0.162661,-0.682916,-0.047864,-0.710547,9.96352767944336,-1.57864832878113,0.59221249818802,3.06740307807922,3.46336269378662,1.35068595409393
221,2271418600,0.162640,-0.682908,-0.047820,-0.710561,9.97915172576904,-1.58026659488678,0.60740458965302,3.06065368652344,3.49715828895569,1.35244035720825
222,2271435267,0.162625,-0.682907,-0.047777,-0.710569,9.99588203430176,-1.59459376335144,0.59056067466736,3.07673883438110,3.43826222419739,1.38154911994934
223,2271451934,0.162606,-0.682915,-0.047737,-0.710569,9.99522018432617,-1.58270001411438,0.58623242378235,3.06333041191101,3.35504627227783,1.35856175422668
224,2271468601,0.162582,-0.682926,-0.047696,-0.710566,10.00815677642822,-1.58955514431000,0.60909116268158,3.04052209854126,3.31854796409607,1.34424424171448
225,2271485268,0.162562,-0.682952,-0.047661,-0.710548,9.99260616302490,-1.59139859676361,0.59014344215393,3.07515072822571,3.17337560653687,1.36105906963348
226,2271501935,0.162561,-0.682981,-0.047636,-0.710522,10.00111007690430,-1.57649254798889,0.59953004121780,3.20769667625427,3.12158656120300,1.41474330425262
227,2271518602,0.162556,-0.683004,-0.047569,-0.710506,9.99881935119629,-1.56897521018982,0.61773270368576,2.98977065086365,3.23544788360596,1.57634663581848
228,2271535269,0.162580,-0.683015,-0.047457,-0.710497,9.99768066406250,-1.57236647605896,0.61296427249908,2.91888713836670,3.39045524597168,1.91566336154938
229,2271551936,0.162591,-0.683029,-0.047334,-0.710489,9.98978900909424,-1.59515917301178,0.62178903818130,2.80287504196167,3.38844561576843,1.90967059135437
230,2271568603,0.162599,-0.683035,-0.047200,-0.710491,9.92779064178467,-1.60725128650665,0.61383491754532,2.72905874252319,3.48903870582581,1.92966079711914
231,2271585270,0.162598,-0.683013,-0.047089,-0.710519,9.91269111633301,-1.60795164108276,0.60985970497131,2.83026742935181,3.71257376670837,1.73830842971802
232,2271601937,0.162573,-0.682988,-0.047006,-0.710554,9.86610698699951,-1.63811111450195,0.59602230787277,2.84572482109070,3.72529077529907,1.48465287685394
233,2271618604,0.162578,-0.682944,-0.046988,-0.710597,9.88098716735840,-1.64168369770050,0.56505960226059,3.32947254180908,3.79151272773743,1.30571007728577
234,2271635271,0.162604,-0.682891,-0.047030,-0.710639,9.97039794921875,-1.66366350650787,0.57255238294601,3.73215460777283,3.77501749992371,1.12645936012268
235,2271651938,0.162627,-0.682842,-0.047129,-0.710675,10.02760410308838,-1.62508773803711,0.57116580009460,3.98949766159058,3.65491914749146,0.85354316234589
236,2271668605,0.162520,-0.682846,-0.047197,-0.710691,10.00778770446777,-1.55396962165833,0.62339001893997,3.17771673202515,3.29541993141174,0.40333604812622
237,2271685272,0.162318,-0.682891,-0.047171,-0.710695,9.96064376831055,-1.56869816780090,0.61519050598145,2.23324847221375,3.11835932731628,0.40844577550888
238,2271701939,0.162130,-0.682916,-0.047149,-0.710716,9.93224525451660,-1.60549509525299,0.62476480007172,2.33449554443359,3.29492044448853,0.43367424607277
239,2271718606,0.162030,-0.682923,-0.047165,-0.710731,9.95321273803711,-1.61151504516602,0.64681732654572,2.95108246803284,3.33714270591736,0.67945373058319
240,2271735273,0.162018,-0.682901,-0.047198,-0.710752,9.98240184783936,-1.60833907127380,0.62629973888397,3.47707796096802,3.52384662628174,1.02078151702881
241,2271751940,0.161990,-0.682842,-0.047226,-0.710813,9.99189758300781,-1.56855714321136,0.65640157461166,3.40967798233032,3.88416647911072,0.90584433078766
242,2271768607,0.161956,-0.682794,-0.047257,-0.710866,9.98266315460205,-1.56407225131989,0.64378261566162,2.78543233871460,3.88689327239990,0.83279687166214
243,2271785274,0.161799,-0.682777,-0.047139,-0.710926,9.98514080047607,-1.56037831306458,0.60914462804794,2.03080511093140,3.80182123184204,0.97414058446884
244,2271801941,0.161645,-0.682756,-0.047002,-0.710990,9.96060276031494,-1.58914124965668,0.61910527944565,1.97206258773804,3.85845065116882,1.07452964782715
245,2271818608,0.161568,-0.682714,-0.046923,-0.711053,9.96753787994385,-1.58435320854187,0.61264824867249,2.63170456886292,3.91770553588867,1.17114067077637
246,2271835275,0.161558,-0.682670,-0.046907,-0.711098,9.96611690521240,-1.57746422290802,0.60141950845718,3.25830721855164,3.79769802093506,1.22381329536438
247,2271851942,0.161590,-0.682634,-0.046921,-0.711125,9.98663711547852,-1.55961441993713,0.60221773386002,3.60893201828003,3.64756917953491,1.30772054195404
248,2271868609,0.161578,-0.682632,-0.046935,-0.711128,9.91776084899902,-1.54235303401947,0.59847545623779,3.36156439781189,3.35918235778809,1.13245260715485
249,2271885276,0.161600,-0.682653,-0.046961,-0.711101,9.86908435821533,-1.52508759498596,0.61206358671188,3.11426138877869,3.17479681968689,1.25709712505341
250,2271901943,0.161660,-0.682663,-0.046970,-0.711077,9.92549705505371,-1.58399558067322,0.56943231821060,3.11321139335632,3.29063034057617,1.50185215473175
251,2271918610,0.161791,-0.682655,-0.047004,-0.711053,9.96833419799805,-1.57789742946625,0.58538544178009,3.11086726188660,3.45255374908447,1.69635486602783
252,2271935277,0.161737,-0.682675,-0.046926,-0.711051,10.00651836395264,-1.56854009628296,0.62640440464020,2.68909001350403,3.31386065483093,1.37245643138885
253,2271951944,0.161663,-0.682710,-0.046859,-0.711039,9.99667739868164,-1.60081923007965,0.60870844125748,2.58300256729126,3.18784666061401,1.23483955860138
254,2271968611,0.161574,-0.682774,-0.046813,-0.711001,9.98978900909424,-1.60570657253265,0.62441778182983,2.65027427673340,2.88569355010986,1.10027050971985
255,2271985278,0.161511,-0.682839,-0.046802,-0.710954,9.98593711853027,-1.61209106445312,0.62149101495743,2.94945597648621,2.80818891525269,1.08058691024780
256,2272001945,0.161499,-0.682861,-0.046835,-0.710933,9.97848987579346,-1.61232018470764,0.61262381076813,3.43061685562134,3.10702586174011,1.07415831089020
257,2272018612,0.161513,-0.682860,-0.046863,-0.710928,9.95808696746826,-1.58870780467987,0.64763855934143,3.55217432975769,3.31218338012695,1.20704972743988
258,2272035279,0.161531,-0.682850,-0.046875,-0.710933,9.97360515594482,-1.55574154853821,0.61735063791275,3.00098943710327,3.49951481819153,1.24851691722870
259,2272051946,0.161458,-0.682841,-0.046771,-0.710966,9.99232387542725,-1.56827008724213,0.63026982545853,2.48919630050659,3.64367580413818,1.35091650485992
260,2272068613,0.161407,-0.682819,-0.046710,-0.711003,10.00304031372070,-1.61011433601379,0.62352830171585,2.40366220474243,3.75725507736206,1.22262227535248
261,2272085280,0.161350,-0.682795,-0.046684,-0.711040,9.98791790008545,-1.61707127094269,0.62312716245651,2.64665031433105,3.70655536651611,1.03271698951721
262,2272101947,0.161356,-0.682773,-0.046728,-0.711057,9.95667839050293,-1.62677538394928,0.60822486877441,3.22128391265869,3.55940937995911,1.03148746490479
263,2272118614,0.161455,-0.682737,-0.046862,-0.711060,9.96848392486572,-1.60555732250214,0.62395435571671,3.69510626792908,3.55645203590393,1.04317986965179
264,2272135281,0.161491,-0.682710,-0.046933,-0.711073,9.97599506378174,-1.58441734313965,0.61478972434998,3.88129782676697,3.48250770568848,1.08118903636932
265,2272151948,0.161567,-0.682666,-0.047076,-0.711089,9.98269748687744,-1.54644954204559,0.60418456792831,3.68671798706055,3.62659192085266,0.87359809875488
266,2272168615,0.161634,-0.682627,-0.047190,-0.711103,9.97982311248779,-1.55599558353424,0.63856750726700,3.23521661758423,3.67270755767822,0.95409870147705
267,2272185282,0.161636,-0.682607,-0.047229,-0.711120,9.98441696166992,-1.59083139896393,0.64283770322800,3.04074001312256,3.57338166236877,1.03293466567993
268,2272201949,0.161660,-0.682582,-0.047262,-0.711136,9.97846317291260,-1.59005284309387,0.63268029689789,3.09991765022278,3.60680556297302,1.15615725517273
269,2272218616,0.161677,-0.682546,-0.047308,-0.711164,9.95934963226318,-1.58740615844727,0.62891376018524,3.29089927673340,3.68022513389587,1.05451333522797
270,2272235283,0.161727,-0.682504,-0.047380,-0.711187,9.98090076446533,-1.57353579998016,0.58830070495605,3.40210962295532,3.69862771034241,1.09051203727722
271,2272251950,0.161819,-0.682461,-0.047491,-0.711200,9.99458026885986,-1.56952834129333,0.62420761585236,3.43184590339661,3.67745923995972,1.09847760200500
272,2272268617,0.161826,-0.682415,-0.047495,-0.711243,9.99793148040771,-1.56100881099701,0.60797876119614,3.49218940734863,3.77353191375732,1.21564280986786
273,2272285284,0.161850,-0.682375,-0.047505,-0.711275,9.96687030792236,-1.56032025814056,0.62090831995010,3.52785515785217,3.69957542419434,1.28337574005127
274,2272301951,0.161908,-0.682339,-0.047546,-0.711294,9.98157978057861,-1.54971253871918,0.63576203584671,3.43442010879517,3.65906929969788,1.29090583324432
275,2272318618,0.161868,-0.682312,-0.047500,-0.711331,9.97603225708008,-1.55491757392883,0.60746383666992,3.09839415550232,3.67418026924133,1.23934733867645
276,2272335285,0.161863,-0.682296,-0.047489,-0.711349,9.99824142456055,-1.57751977443695,0.61097896099091,2.62340664863586,3.63481378555298,1.21662890911102
277,2272351952,0.161863,-0.682280,-0.047500,-0.711364,9.95595264434814,-1.57794165611267,0.59784442186356,2.50373148918152,3.63905310630798,1.12663877010345
278,2272368619,0.161891,-0.682242,-0.047537,-0.711391,9.93437004089355,-1.57886660099030,0.62229764461517,2.87210536003113,3.75996971130371,1.12168252468109
279,2272385286,0.161943,-0.682223,-0.047606,-0.711393,9.89837932586670,-1.56837391853333,0.62947875261307,3.29611134529114,3.50262594223022,1.13795948028564
280,2272401953,0.162005,-0.682182,-0.047674,-0.711414,9.92875385284424,-1.58449351787567,0.61359745264053,3.74602413177490,3.64048695564270,1.19204080104828
281,2272418620,0.162070,-0.682135,-0.047738,-0.711439,10.04240131378174,-1.58744037151337,0.57552123069763,3.99033021926880,3.65494489669800,1.23011398315430
282,2272435287,0.162076,-0.682104,-0.047792,-0.711464,10.07662963867188,-1.54294216632843,0.61672115325928,3.64744091033936,3.56656861305237,1.00154626369476
283,2272451954,0.161925,-0.682123,-0.047712,-0.711486,10.01469326019287,-1.49789810180664,0.66366612911224,2.01035404205322,3.43617463111877,0.86546605825424
284,2272468621,0.161734,-0.682149,-0.047561,-0.711515,9.97564315795898,-1.58290576934814,0.65072053670883,1.33707273006439,3.52503752708435,0.98606330156326
285,2272485288,0.161635,-0.682130,-0.047521,-0.711558,9.93376255035400,-1.68939268589020,0.64240038394928,2.30935645103455,3.72644281387329,0.88605856895447
286,2272501955,0.161617,-0.682081,-0.047586,-0.711605,9.93198394775391,-1.66015481948853,0.66119456291199,3.82287526130676,3.70021581649780,0.81322890520096
287,2272518622,0.161756,-0.681981,-0.047782,-0.711655,9.95457172393799,-1.59919416904449,0.68148428201675,4.84602546691895,3.93945169448853,0.92072540521622
288,2272535289,0.161802,-0.681882,-0.047843,-0.711736,9.99511432647705,-1.50320661067963,0.65750128030777,4.50809144973755,4.08071804046631,1.11366593837738
289,2272551956,0.161832,-0.681790,-0.047890,-0.711814,9.99337291717529,-1.50201189517975,0.62746107578278,3.47321081161499,4.17300081253052,1.04726505279541
290,2272568623,0.161814,-0.681720,-0.047838,-0.711889,9.97892093658447,-1.51241695880890,0.62009227275848,2.86754703521729,4.12983083724976,1.29861509799957
291,2272585290,0.161856,-0.681663,-0.047800,-0.711936,9.97980976104736,-1.55450665950775,0.63106900453568,2.51176071166992,4.05630874633789,1.50849843025208
292,2272601957,0.161945,-0.681624,-0.047805,-0.711953,9.98450469970703,-1.57625436782837,0.63305151462555,2.51327133178711,3.85838675498962,1.54736566543579
293,2272618624,0.161877,-0.681612,-0.047658,-0.711990,9.98958396911621,-1.57694053649902,0.63590878248215,2.54203510284424,3.68309426307678,1.59294366836548
294,2272635291,0.161847,-0.681608,-0.047618,-0.712003,9.97496223449707,-1.59778249263763,0.64682900905609,2.80652451515198,3.50563645362854,1.26855885982513
295,2272651958,0.161826,-0.681600,-0.047622,-0.712015,9.89638614654541,-1.57350528240204,0.63517189025879,3.07618808746338,3.47192978858948,1.11059236526489
296,2272668625,0.162012,-0.681544,-0.047793,-0.712015,9.89111518859863,-1.61404168605804,0.62778514623642,4.04110813140869,3.66776418685913,1.27959787845612
297,2272685292,0.162197,-0.681461,-0.047964,-0.712041,9.96523952484131,-1.60211670398712,0.63772791624069,4.56187820434570,3.85133075714111,1.26608693599701
298,2272701959,0.162268,-0.681391,-0.048063,-0.712086,9.99827289581299,-1.53010344505310,0.64913141727448,4.14605569839478,3.82938098907471,1.06419503688812
299,2272718626,0.162226,-0.681364,-0.048037,-0.712122,10.01413536071777,-1.49905526638031,0.64771580696106,2.97095799446106,3.68073725700378,1.12556290626526
300,2272735293,0.162139,-0.681368,-0.047964,-0.712143,9.99744606018066,-1.56422209739685,0.65480589866638,1.93243956565857,3.58716082572937,1.10690391063690
301,2272751960,0.162048,-0.681396,-0.047872,-0.712143,9.96600246429443,-1.59237086772919,0.63551431894302,1.88068962097168,3.37754726409912,1.21725642681122
302,2272768627,0.161985,-0.681383,-0.047813,-0.712174,9.95333099365234,-1.61149919033051,0.65504330396652,2.57068276405334,3.63784933090210,1.17491865158081
303,2272785294,0.162027,-0.681320,-0.047867,-0.712221,9.92334079742432,-1.60272181034088,0.65679728984833,3.41902709007263,3.90948462486267,1.11168110370636
304,2272801961,0.162022,-0.681262,-0.047898,-0.712275,9.93822860717773,-1.56557726860046,0.66101354360580,3.54621934890747,3.85213756561279,1.01040828227997
305,2272818628,0.162037,-0.681211,-0.047950,-0.712318,9.95009803771973,-1.56568145751953,0.65073394775391,3.32566857337952,3.81526803970337,0.99674391746521
306,2272835295,0.162050,-0.681154,-0.047987,-0.712367,9.96104335784912,-1.56006264686584,0.64968764781952,3.05186891555786,3.92172741889954,1.04036235809326
307,2272851962,0.161981,-0.681119,-0.047945,-0.712419,9.98820590972900,-1.55239355564117,0.64330512285233,2.82669425010681,3.79167842864990,1.05070972442627
308,2272868629,0.161898,-0.681106,-0.047892,-0.712454,9.98110294342041,-1.53976655006409,0.64832073450089,2.72324514389038,3.61450338363647,1.05803513526917
309,2272885296,0.161769,-0.681118,-0.047789,-0.712478,9.96303462982178,-1.52108561992645,0.63379174470901,2.48562288284302,3.43356204032898,1.11299991607666
310,2272901963,0.161666,-0.681135,-0.047711,-0.712491,9.94966793060303,-1.55399549007416,0.66647815704346,2.49488210678101,3.37834095954895,1.11752057075500
311,2272918630,0.161646,-0.681127,-0.047716,-0.712502,9.93966197967529,-1.57079637050629,0.65198999643326,2.75013828277588,3.51912164688110,1.08204698562622
312,2272935297,0.161625,-0.681122,-0.047709,-0.712512,9.93391704559326,-1.58503496646881,0.64208632707596,3.08168196678162,3.45103025436401,1.17316424846649
313,2272951964,0.161574,-0.681120,-0.047667,-0.712529,9.95662307739258,-1.56696128845215,0.65866011381149,3.46913719177246,3.38475632667542,1.22852575778961
314,2272968631,0.161626,-0.681102,-0.047743,-0.712529,9.96515941619873,-1.55958139896393,0.64197194576263,3.61066126823425,3.43217921257019,1.12861096858978
315,2272985298,0.161619,-0.681093,-0.047760,-0.712538,9.97867870330811,-1.55214023590088,0.64329147338867,3.42975807189941,3.41665697097778,1.13615357875824
316,2273001965,0.161636,-0.681088,-0.047791,-0.712537,9.97498607635498,-1.53601276874542,0.67572975158691,3.26301956176758,3.39287590980530,1.17627596855164
317,2273018632,0.161615,-0.681093,-0.047770,-0.712539,9.98457908630371,-1.55723047256470,0.66176682710648,3.09699845314026,3.36354994773865,1.24946451187134
318,2273035299,0.161643,-0.681101,-0.047755,-0.712525,9.97525882720947,-1.55823922157288,0.66083633899689,3.03604006767273,3.33062458038330,1.46686494350433
319,2273051966,0.161674,-0.681114,-0.047755,-0.712506,9.97904014587402,-1.56390154361725,0.66819864511490,3.25729560852051,3.25105881690979,1.41877722740173
320,2273068633,0.161685,-0.681116,-0.047724,-0.712504,9.98901462554932,-1.55583930015564,0.63510268926620,3.19039463996887,3.38018512725830,1.46026968955994
321,2273085300,0.161753,-0.681117,-0.047751,-0.712485,9.98603534698486,-1.57392334938049,0.66519546508789,2.93854570388794,3.39172410964966,1.42922735214233
322,2273101967,0.161773,-0.681134,-0.047740,-0.712466,9.94469547271729,-1.56375551223755,0.66841048002243,2.82093167304993,3.28721117973328,1.39390730857849
323,2273118634,0.161768,-0.681142,-0.047715,-0.712460,9.92647075653076,-1.55272543430328,0.65354347229004,3.08859753608704,3.32789707183838,1.36044430732727
324,2273135301,0.161838,-0.681130,-0.047731,-0.712455,9.91993141174316,-1.60201907157898,0.64686268568039,3.45867538452148,3.44155311584473,1.50597560405731
325,2273151968,0.161951,-0.681116,-0.047821,-0.712437,9.94172763824463,-1.57506000995636,0.66948908567429,4.11533308029175,3.31591010093689,1.39539277553558
326,2273168635,0.162053,-0.681109,-0.047902,-0.712415,10.04438495635986,-1.54775786399841,0.63613635301590,3.97705054283142,3.26791167259216,1.38325238227844
327,2273185302,0.162008,-0.681131,-0.047865,-0.712406,10.03270626068115,-1.50633847713470,0.63728719949722,3.15059280395508,3.19473624229431,1.24786376953125
328,2273201969,0.161767,-0.681218,-0.047645,-0.712393,9.99164485931396,-1.51025223731995,0.65502995252609,1.50319647789001,2.95995712280273,1.19020926952362
329,2273218636,0.161517,-0.681323,-0.047396,-0.712366,9.93166828155518,-1.58595860004425,0.65616267919540,0.80062735080719,2.91827273368835,1.26168167591095
330,2273235303,0.161415,-0.681374,-0.047296,-0.712347,9.92279052734375,-1.67055022716522,0.64936453104019,2.04467511177063,3.13950276374817,1.24767160415649
331,2273251970,0.161517,-0.681382,-0.047430,-0.712307,9.92937755584717,-1.63610494136810,0.65344399213791,3.75154328346252,3.12532567977905,1.13174831867218
332,2273268637,0.161663,-0.681386,-0.047620,-0.712258,9.96076011657715,-1.57930874824524,0.67458927631378,4.69035196304321,2.98860549926758,1.12424397468567
333,2273285304,0.161847,-0.681387,-0.047827,-0.712201,9.99335384368896,-1.53373789787292,0.68363094329834,4.31813526153564,3.05513453483582,1.18775069713593
334,2273301971,0.161839,-0.681412,-0.047819,-0.712180,10.00661563873291,-1.50472009181976,0.69025641679764,3.21728873252869,3.14626431465149,1.28415703773499
335,2273318638,0.161757,-0.681448,-0.047708,-0.712171,9.98487281799316,-1.52193892002106,0.64577019214630,2.11055040359497,3.27258539199829,1.38664591312408
336,2273335305,0.161675,-0.681486,-0.047547,-0.712164,9.97281455993652,-1.56756484508514,0.65756213665009,1.79958665370941,3.33943486213684,1.61417615413666
337,2273351972,0.161706,-0.681512,-0.047473,-0.712137,9.98637580871582,-1.60641741752625,0.63358622789383,2.22505187988281,3.33374905586243,1.73200750350952
338,2273368639,0.161666,-0.681553,-0.047353,-0.712115,10.01043319702148,-1.60319471359253,0.68160259723663,2.75545287132263,3.13673615455627,1.67883574962616
339,2273385306,0.161657,-0.681607,-0.047333,-0.712067,9.96867656707764,-1.59831440448761,0.62862432003021,3.10967659950256,2.89460635185242,1.38051176071167
340,2273401973,0.161622,-0.681663,-0.047309,-0.712022,9.93928909301758,-1.58495712280273,0.63056933879852,3.35832476615906,2.82720685005188,1.29874324798584
341,2273418640,0.161695,-0.681692,-0.047362,-0.711974,9.95549869537354,-1.58579146862030,0.62372964620590,3.87278127670288,2.96198081970215,1.42510354518890
342,2273435307,0.161831,-0.681691,-0.047495,-0.711935,9.99242115020752,-1.57849264144897,0.62905448675156,4.06792497634888,3.16503858566284,1.30728518962860
343,2273451974,0.161835,-0.681692,-0.047499,-0.711933,10.00235080718994,-1.52739632129669,0.66382730007172,3.23275804519653,3.36293435096741,1.25394630432129
344,2273468641,0.161752,-0.681700,-0.047416,-0.711950,9.99034500122070,-1.55613183975220,0.64763808250427,2.49959492683411,3.46500158309937,1.22574698925018
345,2273485308,0.161675,-0.681727,-0.047337,-0.711947,9.97353363037109,-1.57406818866730,0.63279968500137,2.12340784072876,3.34001088142395,1.23442959785461
346,2273501975,0.161556,-0.681776,-0.047249,-0.711933,9.95756149291992,-1.61282229423523,0.64733356237411,2.25860524177551,3.11743760108948,1.11857080459595
347,2273518642,0.161609,-0.681780,-0.047318,-0.711913,9.95158195495605,-1.62764525413513,0.62396007776260,3.05443000793457,3.31955981254578,1.15503048896790
348,2273535309,0.161644,-0.681757,-0.047375,-0.711923,9.97746372222900,-1.59053289890289,0.63731443881989,3.83621931076050,3.45503854751587,1.15182876586914
349,2273551976,0.161697,-0.681728,-0.047459,-0.711933,9.96211051940918,-1.56052231788635,0.63481670618057,3.81809830665588,3.50133299827576,1.08699035644531
350,2273568643,0.161688,-0.681716,-0.047501,-0.711943,9.96899127960205,-1.52343153953552,0.62087649106979,3.25222349166870,3.45128536224365,0.98612725734711
351,2273585310,0.161657,-0.681723,-0.047505,-0.711944,9.99619579315186,-1.54137361049652,0.61142545938492,2.56734037399292,3.41716933250427,1.04981338977814
352,2273601977,0.161565,-0.681739,-0.047445,-0.711954,9.97469806671143,-1.53915429115295,0.62389832735062,2.18524980545044,3.41948723793030,1.05105543136597
353,2273618644,0.161479,-0.681757,-0.047362,-0.711961,9.96414947509766,-1.56521725654602,0.61443078517914,2.27244806289673,3.40660405158997,1.21085309982300
354,2273635311,0.161401,-0.681765,-0.047304,-0.711976,9.98447704315186,-1.57421565055847,0.63031339645386,2.77809453010559,3.40368509292603,1.14613008499146
355,2273651978,0.161442,-0.681775,-0.047384,-0.711951,9.99961280822754,-1.56856310367584,0.63765078783035,3.08624100685120,3.24400234222412,1.05726671218872
356,2273668645,0.161402,-0.681796,-0.047415,-0.711938,10.00802612304688,-1.56197881698608,0.65203803777695,3.13005161285400,3.17154407501221,0.93410801887512
357,2273685312,0.161362,-0.681807,-0.047431,-0.711935,9.96847534179688,-1.57029390335083,0.64200222492218,3.00189828872681,3.29004120826721,0.97805953025818
358,2273701979,0.161287,-0.681817,-0.047393,-0.711945,9.94561576843262,-1.57600104808807,0.65561234951019,3.02456569671631,3.33779621124268,1.08310997486115
359,2273718646,0.161252,-0.681810,-0.047364,-0.711962,9.95426940917969,-1.55832886695862,0.64279150962830,2.98161339759827,3.49128055572510,1.19834160804749
360,2273735313,0.161264,-0.681800,-0.047369,-0.711968,9.98381996154785,-1.55251967906952,0.66458684206009,3.02637124061584,3.49742722511292,1.25874900817871
361,2273751980,0.161280,-0.681772,-0.047374,-0.711991,10.01778984069824,-1.55375492572784,0.66740632057190,3.07176923751831,3.66516447067261,1.25570082664490
362,2273768647,0.161284,-0.681749,-0.047338,-0.712015,10.00217151641846,-1.57061135768890,0.63969063758850,2.87055611610413,3.67334747314453,1.38825929164886
363,2273785314,0.161341,-0.681716,-0.047350,-0.712033,9.98053169250488,-1.57242941856384,0.63318705558777,3.06167793273926,3.70285344123840,1.40799415111542
364,2273801981,0.161320,-0.681700,-0.047312,-0.712055,9.97521686553955,-1.57317066192627,0.63906633853912,3.16132426261902,3.55981922149658,1.31399559974670
365,2273818648,0.161303,-0.681693,-0.047293,-0.712067,9.95326042175293,-1.55235767364502,0.63868063688278,3.05117726325989,3.48140645027161,1.24257469177246
366,2273835315,0.161296,-0.681684,-0.047285,-0.712078,9.96743583679199,-1.57368314266205,0.61443549394608,2.85064268112183,3.51609921455383,1.21924161911011
367,2273851982,0.161245,-0.681690,-0.047217,-0.712088,9.97269344329834,-1.55590403079987,0.62833452224731,2.90083074569702,3.40833377838135,1.33682954311371
368,2273868649,0.161273,-0.681679,-0.047239,-0.712091,9.95831584930420,-1.57862234115601,0.63438665866852,3.10441327095032,3.49222779273987,1.24956679344177
369,2273885316,0.161369,-0.681666,-0.047327,-0.712075,9.94160747528076,-1.56597518920898,0.63618248701096,3.31284904479980,3.42259979248047,1.26744449138641
370,2273901983,0.161351,-0.681669,-0.047311,-0.712078,9.91363716125488,-1.55009102821350,0.65199857950211,3.32943296432495,3.33554172515869,1.25337028503418
371,2273918650,0.161342,-0.681671,-0.047272,-0.712081,9.99985027313232,-1.55312323570251,0.63166648149490,3.16041469573975,3.39492464065552,1.40520226955414
372,2273935317,0.161314,-0.681666,-0.047209,-0.712096,10.05403232574463,-1.58451116085052,0.60528671741486,2.83804130554199,3.51937770843506,1.39111578464508
373,2273951984,0.161194,-0.681679,-0.047115,-0.712117,10.01378917694092,-1.54322707653046,0.63227301836014,2.52028989791870,3.41500544548035,1.11790478229523
374,2273968651,0.161054,-0.681708,-0.047005,-0.712128,9.96326637268066,-1.56316030025482,0.65250480175018,1.98526620864868,3.36572670936584,1.07683479785919
375,2273985318,0.160993,-0.681702,-0.046975,-0.712150,9.92529010772705,-1.63286006450653,0.64416408538818,2.69353437423706,3.53158187866211,1.06051957607269
376,2274001985,0.161015,-0.681686,-0.047043,-0.712155,9.95441818237305,-1.62080335617065,0.64883184432983,3.81868720054626,3.38510251045227,1.03750646114349
377,2274018652,0.161165,-0.681647,-0.047205,-0.712148,9.98298168182373,-1.55560433864594,0.66754180192947,4.62760066986084,3.41927003860474,1.21491289138794
378,2274035319,0.161293,-0.681600,-0.047317,-0.712157,9.99328231811523,-1.52036738395691,0.66616654396057,4.27785921096802,3.59248876571655,1.31650578975677
379,2274051986,0.161339,-0.681581,-0.047316,-0.712165,9.99066162109375,-1.49865019321442,0.64753180742264,2.81092977523804,3.62132930755615,1.42501389980316
380,2274068653,0.161267,-0.681588,-0.047162,-0.712184,9.95452499389648,-1.52975571155548,0.64740073680878,1.85204172134399,3.61502790451050,1.58076465129852
381,2274085320,0.161182,-0.681607,-0.046964,-0.712199,9.96710205078125,-1.57875216007233,0.64079284667969,1.73368513584137,3.55806517601013,1.75005173683167
382,2274101987,0.161083,-0.681625,-0.046821,-0.712213,9.95276927947998,-1.60526883602142,0.63072896003723,2.20005393028259,3.44883942604065,1.43587338924408
383,2274118654,0.161104,-0.681640,-0.046824,-0.712194,9.95460414886475,-1.59491956233978,0.62056952714920,3.09633255004883,3.25474691390991,1.35133898258209
384,2274135321,0.161140,-0.681655,-0.046869,-0.712169,9.99494457244873,-1.59052002429962,0.65234947204590,3.61756372451782,3.14431738853455,1.25757074356079
385,2274151988,0.161223,-0.681679,-0.046980,-0.712119,9.95718860626221,-1.57970118522644,0.63848096132278,3.77979421615601,2.98012733459473,1.17083334922791
386,2274168655,0.161226,-0.681717,-0.047018,-0.712079,9.92352104187012,-1.54216647148132,0.64036464691162,3.55403113365173,2.93652200698853,1.15823197364807
387,2274185322,0.161208,-0.681729,-0.046973,-0.712075,9.96911144256592,-1.55868172645569,0.63392901420593,3.28367614746094,3.28398370742798,1.40663671493530
388,2274201989,0.161223,-0.681751,-0.046949,-0.712053,9.97938728332520,-1.55535030364990,0.63099741935730,2.84139657020569,3.24220967292786,1.44741213321686
389,2274218656,0.161089,-0.681778,-0.046820,-0.712065,9.95861244201660,-1.54121565818787,0.65899312496185,2.18592858314514,3.35161375999451,1.21570682525635
390,2274235323,0.161011,-0.681801,-0.046745,-0.712066,9.96591567993164,-1.57112681865692,0.64490783214569,2.28421711921692,3.35443115234375,1.21739709377289
391,2274251990,0.160911,-0.681845,-0.046645,-0.712053,9.97577285766602,-1.60823047161102,0.64227598905563,2.54075384140015,3.12489008903503,1.28265833854675
392,2274268657,0.160896,-0.681892,-0.046656,-0.712011,9.96264743804932,-1.59189772605896,0.64032244682312,3.08875036239624,2.94206643104553,1.18480491638184
393,2274285324,0.160954,-0.681910,-0.046732,-0.711975,9.95045852661133,-1.57648158073425,0.64265364408493,3.72819733619690,3.06919550895691,1.21523308753967
394,2274301991,0.160970,-0.681934,-0.046764,-0.711947,9.95354270935059,-1.54244720935822,0.63056141138077,3.61625695228577,3.07174372673035,1.23198366165161
395,2274318658,0.160928,-0.681962,-0.046716,-0.711932,9.96595191955566,-1.53922700881958,0.64573079347610,2.97467207908630,3.16889309883118,1.31523787975311
396,2274335325,0.160859,-0.682005,-0.046637,-0.711912,9.97578620910645,-1.54477047920227,0.63015073537827,2.51927757263184,3.12521004676819,1.32623827457428
397,2274351992,0.160804,-0.682046,-0.046562,-0.711890,9.97572326660156,-1.55682158470154,0.62938100099564,2.30513000488281,3.17388701438904,1.35009646415710
398,2274368659,0.160706,-0.682101,-0.046483,-0.711864,9.97426700592041,-1.57879924774170,0.63366150856018,2.36237478256226,3.03542542457581,1.19531917572021
399,2274385326,0.160726,-0.682149,-0.046480,-0.711814,9.96844100952148,-1.60088348388672,0.65122079849243,2.79562640190125,2.98996257781982,1.40025913715363
400,2274401993,0.160765,-0.682190,-0.046519,-0.711764,9.97955417633057,-1.59950256347656,0.62564057111740,3.27622294425964,2.95427155494690,1.30851459503174
401,2274418660,0.160825,-0.682205,-0.046597,-0.711730,10.00449085235596,-1.59808647632599,0.63867872953415,3.44041371345520,3.14164137840271,1.18958199024200
402,2274435327,0.160890,-0.682222,-0.046686,-0.711694,9.99183464050293,-1.56770145893097,0.64024758338928,3.32208251953125,3.14613652229309,1.15914130210876
403,2274451994,0.160845,-0.682239,-0.046662,-0.711689,9.97475433349609,-1.55750083923340,0.66465330123901,2.93615055084229,3.26838564872742,1.15382659435272
404,2274468661,0.160835,-0.682251,-0.046638,-0.711682,9.98004436492920,-1.55756556987762,0.61981493234634,2.67527222633362,3.36648225784302,1.30403232574463
405,2274485328,0.160820,-0.682256,-0.046600,-0.711682,9.96713924407959,-1.56994569301605,0.63364958763123,2.86780333518982,3.39726901054382,1.35717868804932
406,2274501995,0.160774,-0.682250,-0.046527,-0.711703,9.96359252929688,-1.57928121089935,0.63725924491882,2.95500183105469,3.52053022384644,1.36276245117188
407,2274518662,0.160816,-0.682242,-0.046563,-0.711700,9.97847652435303,-1.58218491077423,0.62669801712036,3.15169382095337,3.44299983978271,1.25641810894012
408,2274535329,0.160790,-0.682251,-0.046557,-0.711697,9.98279094696045,-1.56190788745880,0.62265038490295,3.10382413864136,3.30910992622375,1.16230440139771
409,2274551996,0.160780,-0.682261,-0.046591,-0.711688,9.98351669311523,-1.58063185214996,0.61712163686752,3.13039731979370,3.27229189872742,1.04186069965363
410,2274568663,0.160743,-0.682275,-0.046573,-0.711683,9.96629714965820,-1.57607305049896,0.61397600173950,3.15996718406677,3.25268530845642,1.17826116085052
411,2274585330,0.160772,-0.682281,-0.046625,-0.711668,9.96934413909912,-1.55904805660248,0.61125695705414,3.33415937423706,3.27254819869995,1.15374994277954
412,2274601997,0.160763,-0.682293,-0.046618,-0.711659,9.96707725524902,-1.54616272449493,0.62827348709106,3.17500185966492,3.27061414718628,1.25890278816223
413,2274618664,0.160756,-0.682308,-0.046583,-0.711648,9.97371959686279,-1.55272674560547,0.62689006328583,2.81575775146484,3.31738233566284,1.38586473464966
414,2274635331,0.160714,-0.682342,-0.046519,-0.711629,9.97629356384277,-1.56923329830170,0.62647444009781,2.54090785980225,3.19538927078247,1.36578440666199
415,2274651998,0.160664,-0.682366,-0.046431,-0.711623,9.95681667327881,-1.58631098270416,0.62269514799118,2.57572817802429,3.30492186546326,1.43942081928253
416,2274668665,0.160642,-0.682370,-0.046387,-0.711628,9.95866680145264,-1.59726691246033,0.64663946628571,2.93863511085510,3.40976762771606,1.35094201564789
417,2274685332,0.160632,-0.682382,-0.046384,-0.711619,9.91451930999756,-1.59464621543884,0.64641845226288,3.18216061592102,3.26524806022644,1.23590266704559
418,2274701999,0.160690,-0.682380,-0.046421,-0.711605,9.95731639862061,-1.56176972389221,0.63600242137909,3.47513127326965,3.33350563049316,1.35975265502930
419,2274718666,0.160798,-0.682367,-0.046503,-0.711588,10.05129432678223,-1.58971619606018,0.60560435056686,3.44817376136780,3.40992140769958,1.36326158046722
420,2274735333,0.160805,-0.682355,-0.046546,-0.711595,10.05156612396240,-1.54382359981537,0.63022613525391,3.01770162582397,3.49074268341064,1.03993976116180
421,2274752000,0.160679,-0.682387,-0.046486,-0.711596,10.00387668609619,-1.54912233352661,0.63698303699493,1.96573662757874,3.30529379844666,0.90627986192703
422,2274768667,0.160534,-0.682407,-0.046396,-0.711616,9.94297027587891,-1.61283099651337,0.60917305946350,2.10787391662598,3.41686201095581,0.95098668336868
423,2274785334,0.160476,-0.682410,-0.046409,-0.711626,9.91839218139648,-1.62929666042328,0.62992942333221,3.04800128936768,3.36385679244995,0.89728987216949
424,2274802001,0.160559,-0.682378,-0.046520,-0.711630,9.95635604858398,-1.60015285015106,0.64852815866470,4.22265100479126,3.44388389587402,1.13282418251038
425,2274818668,0.160688,-0.682321,-0.046635,-0.711648,9.99254798889160,-1.54131460189819,0.63829886913300,4.48319625854492,3.64610910415649,1.30522334575653
426,2274835335,0.160731,-0.682284,-0.046659,-0.711672,9.97890567779541,-1.50763046741486,0.63880318403244,3.61151981353760,3.64842700958252,1.31354761123657
427,2274852002,0.160658,-0.682288,-0.046537,-0.711693,9.96602821350098,-1.50715124607086,0.63623887300491,2.31067514419556,3.55828261375427,1.45012700557709
428,2274868669,0.160550,-0.682310,-0.046353,-0.711708,9.96834373474121,-1.54497122764587,0.62200790643692,1.56053042411804,3.53891944885254,1.55752098560333
429,2274885336,0.160500,-0.682320,-0.046234,-0.711717,9.97496604919434,-1.60223460197449,0.61502647399902,1.89979648590088,3.56022953987122,1.52435278892517
430,2274902003,0.160487,-0.682318,-0.046164,-0.711727,9.97655296325684,-1.61014497280121,0.62050801515579,2.75267386436462,3.51475453376770,1.50556588172913
431,2274918670,0.160507,-0.682321,-0.046156,-0.711720,9.99010372161865,-1.58826231956482,0.61694324016571,3.43415069580078,3.32022547721863,1.40723860263824
432,2274935337,0.160559,-0.682329,-0.046216,-0.711696,9.99221038818359,-1.58258986473083,0.60483282804489,3.78948879241943,3.16311740875244,1.25512480735779
433,2274952004,0.160575,-0.682348,-0.046273,-0.711671,9.93075752258301,-1.55150878429413,0.64037126302719,3.59972405433655,3.10067319869995,1.09581363201141
434,2274968671,0.160566,-0.682359,-0.046239,-0.711665,9.93007087707520,-1.55488550662994,0.63498681783676,3.03445219993591,3.31594896316528,1.38619792461395
435,2274985338,0.160560,-0.682354,-0.046162,-0.711676,9.96649742126465,-1.58877813816071,0.62968301773071,2.85483050346375,3.53130006790161,1.56968724727631
436,2275002005,0.160528,-0.682343,-0.046073,-0.711699,9.98391914367676,-1.56191563606262,0.64801323413849,2.67285227775574,3.61507964134216,1.49110758304596
437,2275018672,0.160460,-0.682337,-0.045995,-0.711726,9.99935436248779,-1.58068537712097,0.62242919206619,2.55084538459778,3.58707118034363,1.25287091732025
438,2275035339,0.160402,-0.682350,-0.045939,-0.711730,9.97699069976807,-1.59807598590851,0.62457370758057,2.69522428512573,3.36499619483948,1.22818005084991
439,2275052006,0.160457,-0.682359,-0.045994,-0.711706,9.98529815673828,-1.60477566719055,0.63957506418228,3.09063363075256,3.27786254882812,1.24933636188507
440,2275068673,0.160505,-0.682357,-0.046094,-0.711690,9.95880222320557,-1.60230696201324,0.65498071908951,3.61442589759827,3.26974296569824,1.01760542392731
441,2275085340,0.160517,-0.682342,-0.046149,-0.711698,9.94738769531250,-1.59139108657837,0.64431309700012,3.88329553604126,3.37147712707520,1.06078851222992
442,2275102007,0.160592,-0.682328,-0.046251,-0.711688,9.95352458953857,-1.52865910530090,0.61839902400970,3.58622622489929,3.39087843894958,1.10773646831512
443,2275118674,0.160583,-0.682316,-0.046250,-0.711702,9.97187232971191,-1.53310060501099,0.61298048496246,3.03523373603821,3.51712369918823,1.18517673015594
444,2275135341,0.160534,-0.682300,-0.046197,-0.711731,10.01135826110840,-1.55616331100464,0.61045664548874,2.64622759819031,3.64386796951294,1.21628332138062
445,2275152008,0.160510,-0.682282,-0.046164,-0.711756,10.00172901153564,-1.58565175533295,0.63631165027618,2.49871110916138,3.67857336997986,1.22514533996582
446,2275168675,0.160467,-0.682278,-0.046109,-0.711773,9.99435615539551,-1.61477422714233,0.64651954174042,2.63482975959778,3.54263377189636,1.27225971221924
447,2275185342,0.160446,-0.682283,-0.046108,-0.711774,9.98418712615967,-1.60741341114044,0.60801696777344,3.13776087760925,3.34389209747314,1.15600371360779
448,2275202009,0.160443,-0.682271,-0.046163,-0.711782,10.00014972686768,-1.59514141082764,0.64113104343414,3.51301240921021,3.40419673919678,0.97111833095551
449,2275218676,0.160452,-0.682227,-0.046223,-0.711818,9.98110580444336,-1.58952617645264,0.64346200227737,3.62698888778687,3.68509149551392,0.96164166927338
450,2275235343,0.160465,-0.682183,-0.046276,-0.711854,9.97721099853516,-1.54783368110657,0.64398372173309,3.60544896125793,3.69509363174438,1.01905274391174
451,2275252010,0.160457,-0.682146,-0.046295,-0.711889,9.97934150695801,-1.54912257194519,0.63998824357986,3.33584976196289,3.69158411026001,1.07263433933258
452,2275268677,0.160454,-0.682117,-0.046285,-0.711919,9.96740341186523,-1.54810166358948,0.66062587499619,3.21228075027466,3.65736532211304,1.24065363407135
453,2275285344,0.160446,-0.682087,-0.046261,-0.711951,9.95205497741699,-1.54694366455078,0.63954448699951,3.11668109893799,3.68820309638977,1.28547561168671
454,2275302011,0.160443,-0.682047,-0.046248,-0.711991,9.97973632812500,-1.57761251926422,0.62767827510834,2.99804353713989,3.79797935485840,1.22916626930237
455,2275318678,0.160470,-0.682010,-0.046250,-0.712020,9.96522426605225,-1.57456314563751,0.64200735092163,2.98927092552185,3.76519513130188,1.30532562732697
456,2275335345,0.160449,-0.681984,-0.046230,-0.712051,9.97371196746826,-1.59625673294067,0.64995229244232,3.07179474830627,3.65780067443848,1.20250332355499
457,2275352012,0.160449,-0.681963,-0.046243,-0.712070,9.96359634399414,-1.59946084022522,0.62249326705933,3.32528376579285,3.54281258583069,1.16248357295990
458,2275368679,0.160458,-0.681948,-0.046292,-0.712079,9.97819995880127,-1.56698703765869,0.62011009454727,3.54765367507935,3.43544483184814,1.05715155601501
459,2275385346,0.160454,-0.681928,-0.046335,-0.712097,9.94982147216797,-1.54756844043732,0.63866877555847,3.45937943458557,3.50102567672729,1.00610530376434
460,2275402013,0.160435,-0.681920,-0.046336,-0.712109,9.96433067321777,-1.54341030120850,0.64253020286560,3.17223501205444,3.45214343070984,1.13973951339722
461,2275418680,0.160404,-0.681917,-0.046291,-0.712121,9.98042488098145,-1.53839230537415,0.66380715370178,2.88244056701660,3.48112511634827,1.30090761184692
462,2275435347,0.160371,-0.681912,-0.046228,-0.712137,9.98467445373535,-1.55223608016968,0.64734536409378,2.79060649871826,3.52690792083740,1.36806416511536
463,2275452014,0.160384,-0.681900,-0.046213,-0.712147,9.97254371643066,-1.56651699542999,0.63673812150955,2.87642216682434,3.55285382270813,1.34971261024475
464,2275468681,0.160404,-0.681884,-0.046215,-0.712158,9.97877407073975,-1.57944059371948,0.62717252969742,3.18196821212769,3.53419423103333,1.31149852275848
465,2275485348,0.160468,-0.681873,-0.046263,-0.712150,9.97636890411377,-1.58575868606567,0.63650751113892,3.11259579658508,3.46151733398438,1.30344295501709
466,2275502015,0.160456,-0.681861,-0.046246,-0.712166,9.98500061035156,-1.58120000362396,0.63291221857071,3.07741689682007,3.52551102638245,1.24842703342438
467,2275518682,0.160441,-0.681864,-0.046246,-0.712167,9.98061847686768,-1.57418572902679,0.64297997951508,3.12162518501282,3.35837626457214,1.17937541007996
468,2275535349,0.160360,-0.681866,-0.046150,-0.712190,9.97472667694092,-1.59049665927887,0.64710754156113,3.12289237976074,3.42849016189575,1.32918369770050
469,2275552016,0.160376,-0.681846,-0.046162,-0.712205,9.96501827239990,-1.58930540084839,0.65378719568253,3.12454414367676,3.57375264167786,1.23455774784088
470,2275568683,0.160379,-0.681812,-0.046155,-0.712237,9.92314720153809,-1.57109773159027,0.65154814720154,3.11500382423401,3.71637678146362,1.25093710422516
471,2275585350,0.160425,-0.681780,-0.046214,-0.712252,9.89706707000732,-1.57195162773132,0.65829366445541,3.21439361572266,3.63706731796265,1.13332343101501
472,2275602017,0.160479,-0.681742,-0.046265,-0.712274,9.90182209014893,-1.58025956153870,0.64212125539780,3.34989786148071,3.68875384330750,1.21441340446472
473,2275618684,0.160635,-0.681680,-0.046392,-0.712290,10.02652835845947,-1.58721041679382,0.62608850002289,3.72014236450195,3.81310391426086,1.31614708900452
474,2275635351,0.160666,-0.681625,-0.046433,-0.712333,10.08661556243896,-1.56631338596344,0.60302418470383,3.67876553535461,3.79644298553467,1.15579891204834
475,2275652018,0.160601,-0.681624,-0.046455,-0.712347,10.04308700561523,-1.51823270320892,0.65103346109390,2.77146077156067,3.43892717361450,0.79852712154388
476,2275668685,0.160439,-0.681656,-0.046372,-0.712358,9.96779060363770,-1.55142247676849,0.65904730558395,1.84321808815002,3.33623361587524,0.83082479238510
477,2275685352,0.160301,-0.681667,-0.046287,-0.712384,9.92739963531494,-1.62428462505341,0.64896684885025,2.24049663543701,3.47994637489319,0.95831203460693
478,2275702019,0.160268,-0.681642,-0.046289,-0.712416,9.92713642120361,-1.62839698791504,0.65538686513901,3.42297101020813,3.57642984390259,1.05775344371796
479,2275718686,0.160338,-0.681585,-0.046389,-0.712448,9.96296119689941,-1.60452878475189,0.65395462512970,4.50761795043945,3.64840102195740,1.10115408897400
480,2275735353,0.160395,-0.681521,-0.046465,-0.712491,9.99464511871338,-1.53258264064789,0.67490148544312,4.55062198638916,3.71286916732788,1.15018975734711
481,2275752020,0.160433,-0.681476,-0.046518,-0.712522,10.00650882720947,-1.48488688468933,0.65861868858337,3.50263977050781,3.72983694076538,1.13085198402405
482,2275768687,0.160405,-0.681442,-0.046439,-0.712566,9.99784564971924,-1.50755083560944,0.64854812622070,2.56358790397644,3.84815454483032,1.41401314735413
483,2275785354,0.160357,-0.681421,-0.046296,-0.712606,9.98539733886719,-1.54579520225525,0.63284188508987,2.04144740104675,3.84522247314453,1.61997783184052
484,2275802021,0.160315,-0.681404,-0.046175,-0.712640,9.97942161560059,-1.57253623008728,0.63297396898270,2.36525654792786,3.74816322326660,1.56293833255768
485,2275818688,0.160366,-0.681396,-0.046142,-0.712638,9.96489238739014,-1.59728729724884,0.63944834470749,2.83714485168457,3.53279852867126,1.62365341186523
486,2275835355,0.160365,-0.681387,-0.046106,-0.712649,9.99009799957275,-1.58211410045624,0.63381570577621,3.24916338920593,3.47532343864441,1.41231000423431
487,2275852022,0.160471,-0.681383,-0.046204,-0.712623,9.96560859680176,-1.58815371990204,0.64753293991089,3.34184241294861,3.33373570442200,1.28559100627899
488,2275868689,0.160506,-0.681375,-0.046267,-0.712618,9.86476993560791,-1.56183290481567,0.66134309768677,3.60939311981201,3.34682464599609,1.12435913085938
489,2275885356,0.160597,-0.681353,-0.046341,-0.712614,9.91760349273682,-1.59187960624695,0.63234668970108,3.89097952842712,3.43328022956848,1.34003102779388
490,2275902023,0.160654,-0.681306,-0.046367,-0.712645,9.98342418670654,-1.56928443908691,0.63131999969482,3.74590921401978,3.72114205360413,1.36004745960236
491,2275918690,0.160634,-0.681274,-0.046338,-0.712682,10.01447677612305,-1.52081179618835,0.66064041852951,2.90318679809570,3.74998092651367,1.23487782478333
492,2275935357,0.160523,-0.681269,-0.046229,-0.712719,10.00156497955322,-1.52732062339783,0.65212780237198,2.20064330101013,3.64599299430847,1.18041253089905
493,2275952024,0.160414,-0.681285,-0.046101,-0.712736,9.96719837188721,-1.59510278701782,0.63852554559708,2.17300724983215,3.46432280540466,1.30777168273926
494,2275968691,0.160359,-0.681308,-0.046055,-0.712730,9.95648860931396,-1.60630941390991,0.65202558040619,2.58388614654541,3.28286957740784,1.20516717433929
495,2275985358,0.160335,-0.681284,-0.046049,-0.712759,9.91830253601074,-1.60633563995361,0.66468536853790,3.37682986259460,3.58168005943298,1.14569461345673
496,2276002025,0.160374,-0.681247,-0.046093,-0.712782,9.93024635314941,-1.57569861412048,0.64873188734055,3.59990382194519,3.63512110710144,1.19410252571106
497,2276018692,0.160416,-0.681213,-0.046143,-0.712802,9.95122814178467,-1.52766609191895,0.65103793144226,3.26109862327576,3.66056728363037,1.16367447376251
498,2276035359,0.160369,-0.681190,-0.046093,-0.712837,9.97316551208496,-1.54218387603760,0.66264486312866,2.84143543243408,3.67959785461426,1.21085345745087
499,2276052026,0.160298,-0.681170,-0.046019,-0.712878,9.98034858703613,-1.55542314052582,0.66477471590042,2.70092344284058,3.69624567031860,1.21465671062469
500,2276068693,0.160182,-0.681161,-0.045913,-0.712919,9.97453689575195,-1.56041002273560,0.65181195735931,2.76770853996277,3.58509922027588,1.17283117771149
501,2276085360,0.160207,-0.681171,-0.045948,-0.712901,9.96177577972412,-1.56174612045288,0.65113568305969,2.84039759635925,3.32067418098450,1.18735373020172
502,2276102027,0.160205,-0.681174,-0.045937,-0.712900,9.95007038116455,-1.55748426914215,0.65672987699509,3.12783575057983,3.36658477783203,1.29154610633850
503,2276118694,0.160257,-0.681165,-0.045973,-0.712894,9.97231292724609,-1.55404043197632,0.66713410615921,3.23004317283630,3.43508601188660,1.31772220134735
504,2276135361,0.160288,-0.681159,-0.045984,-0.712892,9.98938274383545,-1.57526302337646,0.68524789810181,3.36392092704773,3.39947152137756,1.34677994251251
505,2276152028,0.160327,-0.681160,-0.046013,-0.712881,9.94461917877197,-1.57046139240265,0.65455567836761,3.55025291442871,3.29595756530762,1.31527602672577
506,2276168695,0.160406,-0.681173,-0.046111,-0.712844,9.95471477508545,-1.57088387012482,0.66891741752625,3.61707687377930,3.12814331054688,1.19814944267273
507,2276185362,0.160385,-0.681185,-0.046097,-0.712839,9.95786476135254,-1.55212736129761,0.66188734769821,3.25618100166321,3.26651597023010,1.23672223091125
508,2276202029,0.160386,-0.681175,-0.046088,-0.712848,9.95533370971680,-1.56230747699738,0.68841773271561,2.92481708526611,3.51595830917358,1.26845633983612
509,2276218696,0.160324,-0.681159,-0.045990,-0.712884,9.97116088867188,-1.57282495498657,0.67363280057907,2.85548281669617,3.63921880722046,1.39142262935638
510,2276235363,0.160318,-0.681147,-0.045957,-0.712899,9.96763706207275,-1.60247015953064,0.67448657751083,3.00077056884766,3.54288935661316,1.35347747802734
511,2276252030,0.160324,-0.681139,-0.045972,-0.712904,9.97188472747803,-1.58434164524078,0.67350548505783,3.27956533432007,3.43205070495605,1.20592272281647
512,2276268697,0.160287,-0.681137,-0.045956,-0.712915,9.97137451171875,-1.57955932617188,0.67352145910263,3.29306316375732,3.38681817054749,1.15556812286377
513,2276285364,0.160274,-0.681137,-0.045982,-0.712917,9.95819091796875,-1.57880091667175,0.68093317747116,3.39424610137939,3.33429932594299,1.06816470623016
514,2276302031,0.160261,-0.681140,-0.046007,-0.712915,9.96751976013184,-1.55532705783844,0.68592965602875,3.35770940780640,3.30294966697693,1.08310985565186
515,2276318698,0.160247,-0.681146,-0.045993,-0.712913,9.96924877166748,-1.55057585239410,0.66576141119003,3.24146699905396,3.31640958786011,1.25894117355347
516,2276335365,0.160204,-0.681151,-0.045944,-0.712921,9.96683311462402,-1.54515743255615,0.66514939069748,3.00416541099548,3.38897061347961,1.28076326847076
517,2276352032,0.160163,-0.681158,-0.045892,-0.712927,9.98586750030518,-1.57019007205963,0.67352527379990,2.77813291549683,3.40798759460449,1.29203283786774
518,2276368699,0.160157,-0.681174,-0.045889,-0.712914,9.93351554870605,-1.56265664100647,0.67913109064102,2.79338526725769,3.29605984687805,1.23153555393219
519,2276385366,0.160161,-0.681190,-0.045873,-0.712899,9.92255973815918,-1.56209623813629,0.68314951658249,2.92568755149841,3.27778553962708,1.35360574722290
520,2276402033,0.160107,-0.681211,-0.045810,-0.712895,9.90949630737305,-1.59490883350372,0.67016416788101,3.36041212081909,3.18785881996155,1.34355270862579
521,2276418700,0.160125,-0.681218,-0.045848,-0.712881,9.94534969329834,-1.57766938209534,0.66624850034714,3.82193994522095,3.17779350280762,1.20383536815643
522,2276435367,0.160152,-0.681227,-0.045908,-0.712863,10.01787376403809,-1.54545640945435,0.62651437520981,3.64391875267029,3.18662929534912,1.12129819393158
523,2276452034,0.160114,-0.681261,-0.045907,-0.712839,10.07396793365479,-1.54039180278778,0.64170897006989,2.98709392547607,3.07892775535583,1.10791575908661
524,2276468701,0.159851,-0.681352,-0.045714,-0.712824,10.01126956939697,-1.52796649932861,0.68404936790466,1.72323524951935,2.86411428451538,0.96894121170044
525,2276485368,0.159672,-0.681440,-0.045599,-0.712787,9.95123863220215,-1.59758603572845,0.68040317296982,1.40886485576630,2.88534736633301,0.96141105890274
526,2276502035,0.159591,-0.681491,-0.045577,-0.712758,9.92635345458984,-1.64244890213013,0.67629814147949,2.60762882232666,2.99835062026978,1.00424826145172
527,2276518702,0.159669,-0.681501,-0.045728,-0.712721,9.93415164947510,-1.61378288269043,0.67582720518112,4.02904462814331,3.05747818946838,0.94948852062225
528,2276535369,0.159807,-0.681483,-0.045908,-0.712696,9.97284126281738,-1.55518889427185,0.69672363996506,4.53894233703613,3.22571492195129,1.08697760105133
529,2276552036,0.159952,-0.681465,-0.046061,-0.712670,9.99346160888672,-1.51316511631012,0.67635166645050,3.93085789680481,3.33816766738892,1.21587336063385
530,2276568703,0.159893,-0.681483,-0.045977,-0.712672,9.98477554321289,-1.47844326496124,0.67371833324432,2.91005110740662,3.30633091926575,1.39111554622650
531,2276585370,0.159826,-0.681507,-0.045838,-0.712673,9.97620773315430,-1.52435255050659,0.66691160202026,2.03818154335022,3.41398072242737,1.57007122039795
532,2276602037,0.159758,-0.681541,-0.045673,-0.712666,9.96482467651367,-1.56313419342041,0.63695585727692,2.03576159477234,3.33490157127380,1.70530652999878
533,2276618704,0.159753,-0.681589,-0.045601,-0.712626,9.96068763732910,-1.59082913398743,0.64348602294922,2.23358106613159,3.12054872512817,1.58876848220825
534,2276635371,0.159760,-0.681635,-0.045545,-0.712584,9.98657894134521,-1.60581696033478,0.63996058702469,2.77787685394287,3.03634738922119,1.59786117076874
535,2276652038,0.159711,-0.681696,-0.045510,-0.712539,9.96963310241699,-1.59477782249451,0.67533099651337,3.31637096405029,2.79743218421936,1.28253042697906
536,2276668705,0.159747,-0.681764,-0.045583,-0.712462,9.89109325408936,-1.54864454269409,0.66679519414902,3.70157361030579,2.60663008689880,1.19131088256836
537,2276685372,0.159835,-0.681808,-0.045669,-0.712394,9.93781566619873,-1.58086180686951,0.63932663202286,3.98444008827209,2.78216671943665,1.36296701431274
538,2276702039,0.159962,-0.681822,-0.045750,-0.712347,9.99306869506836,-1.55147004127502,0.62342607975006,3.91397976875305,3.08019661903381,1.53370153903961
539,2276718706,0.159986,-0.681838,-0.045725,-0.712328,10.00096511840820,-1.51930367946625,0.65632367134094,3.20347070693970,3.23602437973022,1.51447916030884
540,2276735373,0.159893,-0.681870,-0.045611,-0.712325,10.01460266113281,-1.53320395946503,0.63813614845276,2.19733881950378,3.29489469528198,1.34446167945862
541,2276752040,0.159748,-0.681929,-0.045453,-0.712311,9.98760032653809,-1.59992468357086,0.63469332456589,1.71710109710693,3.14895319938660,1.31893873214722
542,2276768707,0.159616,-0.682000,-0.045335,-0.712281,9.97497272491455,-1.62590420246124,0.64659982919693,1.96486556529999,2.96956229209900,1.21592450141907
543,2276785374,0.159597,-0.682036,-0.045336,-0.712250,9.96362209320068,-1.62792229652405,0.67088752985001,3.11400532722473,3.03949809074402,1.19514000415802
544,2276802041,0.159662,-0.682039,-0.045438,-0.712226,9.94928550720215,-1.57952249050140,0.63945150375366,4.03639507293701,3.15011882781982,1.12100398540497
545,2276818708,0.159723,-0.682037,-0.045521,-0.712210,9.95611763000488,-1.54564309120178,0.63186269998550,3.92360997200012,3.23421812057495,1.17678844928741
546,2276835375,0.159711,-0.682029,-0.045527,-0.712219,9.95934104919434,-1.53291642665863,0.63901156187057,3.20501923561096,3.44162940979004,1.15205907821655
547,2276852042,0.159650,-0.682027,-0.045462,-0.712239,9.98047542572021,-1.53952956199646,0.60791671276093,2.35390973091125,3.57254934310913,1.21819126605988
548,2276868709,0.159566,-0.682037,-0.045371,-0.712254,9.97797584533691,-1.54803001880646,0.61990797519684,2.03696489334106,3.52001714706421,1.23428881168365
549,2276885376,0.159456,-0.682068,-0.045261,-0.712256,9.97323036193848,-1.55960571765900,0.60514289140701,2.17440271377563,3.30798220634460,1.23993635177612
550,2276902043,0.159417,-0.682095,-0.045261,-0.712238,9.98829746246338,-1.59665608406067,0.63345539569855,2.73815107345581,3.18648862838745,1.06977844238281
551,2276918710,0.159392,-0.682115,-0.045302,-0.712223,9.99462985992432,-1.59391736984253,0.63602644205093,3.28759503364563,3.15090012550354,0.96082216501236
552,2276935377,0.159387,-0.682129,-0.045392,-0.712205,9.99791240692139,-1.57513856887817,0.64966648817062,3.63382720947266,3.11354374885559,0.83192604780197
553,2276952044,0.159383,-0.682143,-0.045460,-0.712187,9.97612476348877,-1.58157777786255,0.66427677869797,3.53687024116516,3.14260101318359,0.93581116199493
554,2276968711,0.159344,-0.682151,-0.045464,-0.712189,9.98840904235840,-1.54198193550110,0.65508931875229,3.05074191093445,3.32644987106323,1.04346156120300
555,2276985378,0.159277,-0.682154,-0.045428,-0.712203,9.97295284271240,-1.55966675281525,0.64326512813568,2.72543478012085,3.44139981269836,1.07652747631073
556,2277002045,0.159208,-0.682138,-0.045388,-0.712236,9.98635959625244,-1.56833112239838,0.69083279371262,2.70922207832336,3.62143158912659,1.06566774845123
557,2277018712,0.159149,-0.682106,-0.045353,-0.712282,9.98666954040527,-1.56936836242676,0.65947586297989,2.85890245437622,3.75532126426697,1.06862592697144
558,2277035379,0.159117,-0.682066,-0.045324,-0.712330,9.98793506622314,-1.58297884464264,0.63196760416031,2.95842003822327,3.81396150588989,1.16971898078918
559,2277052046,0.159104,-0.682020,-0.045331,-0.712377,9.99617576599121,-1.58471894264221,0.64834249019623,3.22883987426758,3.80693101882935,1.08928251266479
560,2277068713,0.159105,-0.681985,-0.045368,-0.712407,9.98253059387207,-1.56449365615845,0.63710361719131,3.44270563125610,3.63722181320190,1.04113066196442
561,2277085380,0.159112,-0.681955,-0.045411,-0.712432,9.97340488433838,-1.55180954933167,0.63193875551224,3.48668313026428,3.59516572952271,1.04406344890594
562,2277102047,0.159068,-0.681934,-0.045398,-0.712462,9.97890758514404,-1.52628588676453,0.63466304540634,3.20124173164368,3.57399630546570,1.07801294326782
563,2277118714,0.159008,-0.681928,-0.045381,-0.712482,9.95851802825928,-1.51365280151367,0.62442946434021,2.85858249664307,3.49486589431763,1.01281595230103
564,2277135381,0.158951,-0.681932,-0.045331,-0.712494,9.95213699340820,-1.54329204559326,0.61337268352509,2.73697304725647,3.44142460823059,1.19837987422943
565,2277152048,0.158926,-0.681932,-0.045287,-0.712503,9.96066665649414,-1.55891871452332,0.64053308963776,2.92142343521118,3.44465279579163,1.32704532146454
566,2277168715,0.158959,-0.681935,-0.045301,-0.712491,9.97185039520264,-1.57298719882965,0.63886791467667,3.10742282867432,3.35367584228516,1.33987712860107
567,2277185382,0.159024,-0.681934,-0.045357,-0.712474,9.98464584350586,-1.55877089500427,0.65812718868256,3.30817484855652,3.33605432510376,1.28985559940338
568,2277202049,0.159068,-0.681942,-0.045417,-0.712453,9.98291587829590,-1.55610787868500,0.64493912458420,3.31730628013611,3.24658966064453,1.18611156940460
569,2277218716,0.159043,-0.681970,-0.045399,-0.712433,10.00029850006104,-1.57152318954468,0.63243508338928,2.98907899856567,3.15010619163513,1.24837589263916
570,2277235383,0.159010,-0.681992,-0.045347,-0.712423,9.99619007110596,-1.56141328811646,0.63519603013992,2.79096484184265,3.26465916633606,1.34793233871460
571,2277252050,0.158976,-0.681999,-0.045273,-0.712428,9.94944286346436,-1.55880749225616,0.65300232172012,2.68987154960632,3.43020701408386,1.42731916904449
572,2277268717,0.158963,-0.681991,-0.045223,-0.712442,9.94251728057861,-1.57216656208038,0.67020648717880,2.91963076591492,3.52889275550842,1.40807127952576
573,2277285384,0.158948,-0.681984,-0.045201,-0.712454,9.90738105773926,-1.56941032409668,0.66392970085144,3.04953813552856,3.48350715637207,1.26517784595490
574,2277302051,0.158959,-0.681965,-0.045187,-0.712470,9.94654083251953,-1.55510413646698,0.64252150058746,3.22166776657104,3.55759096145630,1.35145401954651
575,2277318718,0.158975,-0.681926,-0.045188,-0.712504,10.05129623413086,-1.59637200832367,0.59389948844910,3.33614444732666,3.72392082214355,1.27845811843872
576,2277335385,0.158954,-0.681903,-0.045210,-0.712530,10.05590629577637,-1.55373632907867,0.61399579048157,3.25388860702515,3.57242083549500,1.00811576843262
577,2277352052,0.158863,-0.681937,-0.045206,-0.712518,9.99301242828369,-1.52133607864380,0.65217995643616,2.31683540344238,3.19609403610229,0.81750625371933
578,2277368719,0.158821,-0.681964,-0.045216,-0.712501,9.93851375579834,-1.56997728347778,0.64898115396500,2.12275505065918,3.28668618202209,0.96565014123917
579,2277385386,0.158771,-0.681972,-0.045216,-0.712504,9.91799068450928,-1.59961867332458,0.67864054441452,2.97490239143372,3.33134126663208,1.00898671150208
580,2277402053,0.158848,-0.681962,-0.045305,-0.712491,9.93502998352051,-1.58745408058167,0.66195881366730,4.03037595748901,3.28403472900391,1.22202038764954
581,2277418720,0.158967,-0.681930,-0.045404,-0.712488,9.97902393341064,-1.52638232707977,0.64928787946701,4.29874610900879,3.44225740432739,1.36496484279633
582,2277435387,0.159002,-0.681926,-0.045404,-0.712484,9.99955749511719,-1.49630212783813,0.65401518344879,3.38163185119629,3.38213086128235,1.42708837985992
583,2277452054,0.158910,-0.681953,-0.045287,-0.712486,9.98764324188232,-1.49678337574005,0.66457909345627,2.18717074394226,3.34925723075867,1.35926592350006
584,2277468721,0.158809,-0.681983,-0.045129,-0.712490,9.97267627716064,-1.55514776706696,0.65239334106445,1.75440585613251,3.41152191162109,1.48558783531189
585,2277485388,0.158753,-0.682009,-0.044991,-0.712487,9.97844028472900,-1.59979462623596,0.64071583747864,2.25847673416138,3.36371612548828,1.64059603214264
586,2277502055,0.158793,-0.682029,-0.044975,-0.712459,9.97860717773438,-1.60602581501007,0.64136868715286,3.31507706642151,3.17142820358276,1.56090176105499
587,2277518722,0.158861,-0.682051,-0.045006,-0.712422,9.97596740722656,-1.57236957550049,0.64121133089066,3.67698502540588,3.07868504524231,1.48470425605774
588,2277535389,0.158904,-0.682077,-0.045036,-0.712385,10.00298500061035,-1.55669188499451,0.62411558628082,3.55283999443054,3.05042147636414,1.36931896209717
589,2277552056,0.158945,-0.682114,-0.045096,-0.712337,9.96263599395752,-1.56287348270416,0.65118056535721,3.31448888778687,2.97337889671326,1.21530997753143
590,2277568723,0.158937,-0.682146,-0.045070,-0.712309,9.92499065399170,-1.56861734390259,0.62721699476242,3.02808761596680,3.10601401329041,1.37202131748199
591,2277585390,0.158982,-0.682136,-0.045023,-0.712312,9.95704460144043,-1.58082652091980,0.63722944259644,3.21520066261292,3.50046205520630,1.68844044208527
592,2277602057,0.159016,-0.682117,-0.044983,-0.712325,9.98263454437256,-1.57212162017822,0.61819535493851,3.19943642616272,3.57773566246033,1.58633542060852
593,2277618724,0.158994,-0.682109,-0.044929,-0.712341,10.00033187866211,-1.53983092308044,0.64746952056885,2.84682631492615,3.54241609573364,1.37757921218872
594,2277635391,0.159017,-0.682101,-0.044935,-0.712343,10.01776027679443,-1.58348631858826,0.62329131364822,2.62439274787903,3.53862571716309,1.28378546237946
595,2277652058,0.158964,-0.682115,-0.044849,-0.712347,9.99940395355225,-1.57636678218842,0.63337349891663,2.52879333496094,3.40509319305420,1.39393281936646
596,2277668725,0.158913,-0.682137,-0.044784,-0.712341,9.99337768554688,-1.58632028102875,0.64391428232193,2.63841557502747,3.28508520126343,1.31929743289948
597,2277685392,0.158892,-0.682122,-0.044772,-0.712362,9.94956588745117,-1.58415102958679,0.61934071779251,3.06890082359314,3.55362105369568,1.17772328853607
598,2277702059,0.158879,-0.682101,-0.044755,-0.712385,9.94829940795898,-1.54473721981049,0.62100696563721,3.08553624153137,3.59909701347351,1.23469865322113
599,2277718726,0.158849,-0.682070,-0.044703,-0.712425,9.93950271606445,-1.56582331657410,0.64663755893707,2.84390592575073,3.75485992431641,1.29744958877563
600,2277735393,0.158825,-0.682021,-0.044660,-0.712480,9.95013427734375,-1.57123243808746,0.62086200714111,2.93224453926086,3.91303157806396,1.26060593128204
601,2277752060,0.158801,-0.681975,-0.044634,-0.712531,9.95614242553711,-1.56691098213196,0.60640239715576,3.00705909729004,3.85756754875183,1.19070875644684
602,2277768727,0.158760,-0.681951,-0.044599,-0.712565,9.98037338256836,-1.55843579769135,0.62533354759216,2.86989068984985,3.67542338371277,1.16864371299744
603,2277785394,0.158719,-0.681941,-0.044586,-0.712584,9.98348617553711,-1.55305206775665,0.61467909812927,2.96759009361267,3.51138639450073,1.08716964721680
604,2277802061,0.158682,-0.681926,-0.044574,-0.712608,10.00630569458008,-1.56017029285431,0.63141274452209,2.99258804321289,3.56067776679993,1.09854149818420
605,2277818728,0.158661,-0.681898,-0.044575,-0.712639,10.01581859588623,-1.59613311290741,0.64334094524384,3.14358782768250,3.64408516883850,1.10287010669708
606,2277835395,0.158664,-0.681868,-0.044608,-0.712666,10.00777912139893,-1.59002161026001,0.65986686944962,3.41665744781494,3.61118602752686,1.07109761238098
607,2277852062,0.158654,-0.681854,-0.044632,-0.712680,9.99902629852295,-1.57254290580750,0.67346739768982,3.30230951309204,3.47280001640320,1.07474732398987
608,2277868729,0.158634,-0.681828,-0.044620,-0.712710,9.98504829406738,-1.57565999031067,0.66756284236908,3.07818531990051,3.65064191818237,1.16669690608978
609,2277885396,0.158572,-0.681773,-0.044565,-0.712780,9.96781253814697,-1.55514848232269,0.68330222368240,2.69802927970886,4.01006507873535,1.11238527297974
610,2277902063,0.158512,-0.681693,-0.044482,-0.712874,9.96828079223633,-1.55922365188599,0.67004042863846,2.59082698822021,4.27715396881104,1.22095739841461
611,2277918730,0.158490,-0.681600,-0.044422,-0.712972,9.93085861206055,-1.57376849651337,0.64621418714523,2.88418245315552,4.34559249877930,1.29043197631836
612,2277935397,0.158523,-0.681509,-0.044417,-0.713052,9.95457267761230,-1.58843290805817,0.64835065603256,3.42044830322266,4.20956277847290,1.32083427906036
613,2277952064,0.158588,-0.681422,-0.044462,-0.713118,9.97080516815186,-1.56193685531616,0.65296536684036,3.82021069526672,4.07759284973145,1.26455020904541
614,2277968731,0.158651,-0.681358,-0.044515,-0.713162,9.97705078125000,-1.52769851684570,0.62102013826370,3.82487273216248,3.85066485404968,1.24475157260895
615,2277985398,0.158667,-0.681330,-0.044532,-0.713184,9.96272277832031,-1.50176215171814,0.63384211063385,3.40423560142517,3.59840583801270,1.21679544448853
616,2278002065,0.158626,-0.681330,-0.044491,-0.713195,9.95227146148682,-1.54003608226776,0.62725263834000,2.81555318832397,3.45430827140808,1.22805237770081
617,2278018732,0.158561,-0.681339,-0.044424,-0.713205,9.96133899688721,-1.55184388160706,0.62821185588837,2.56703257560730,3.42970681190491,1.24076879024506
618,2278035399,0.158536,-0.681340,-0.044363,-0.713214,9.96236419677734,-1.57726752758026,0.65248364210129,2.79834151268005,3.46761441230774,1.40853214263916
619,2278052066,0.158574,-0.681350,-0.044375,-0.713195,9.95546817779541,-1.57808947563171,0.66950958967209,3.15145134925842,3.28133320808411,1.38201034069061
620,2278068733,0.158639,-0.681359,-0.044410,-0.713170,9.97060775756836,-1.57469022274017,0.67990630865097,3.43021893501282,3.23402595520020,1.42642235755920
621,2278085400,0.158612,-0.681372,-0.044345,-0.713168,9.98894023895264,-1.55422282218933,0.66570502519608,3.12357163429260,3.30286026000977,1.45218896865845
622,2278102067,0.158633,-0.681378,-0.044332,-0.713157,9.99221992492676,-1.59392702579498,0.66830337047577,2.78827548027039,3.38776683807373,1.39844071865082
623,2278118734,0.158589,-0.681384,-0.044253,-0.713167,9.96581554412842,-1.58233499526978,0.68877822160721,2.65585780143738,3.45592188835144,1.39765942096710
624,2278135401,0.158552,-0.681365,-0.044179,-0.713198,9.94900894165039,-1.58630084991455,0.69404613971710,2.88076257705688,3.64692783355713,1.38877165317535
625,2278152068,0.158503,-0.681344,-0.044121,-0.713233,9.91242313385010,-1.57757377624512,0.68929731845856,3.04501724243164,3.63296961784363,1.26616394519806
626,2278168735,0.158522,-0.681303,-0.044139,-0.713267,9.90918254852295,-1.55810773372650,0.68004888296127,3.36091184616089,3.73141217231750,1.20917570590973
627,2278185402,0.158571,-0.681265,-0.044154,-0.713291,10.00179862976074,-1.59320425987244,0.63457024097443,3.55365967750549,3.67049241065979,1.38277852535248
628,2278202069,0.158637,-0.681237,-0.044239,-0.713298,10.02367019653320,-1.57985198497772,0.63811558485031,3.40367221832275,3.56258583068848,1.12033796310425
629,2278218736,0.158540,-0.681255,-0.044233,-0.713302,9.99323749542236,-1.52446484565735,0.68456494808197,2.71009254455566,3.27937340736389,0.80621093511581
630,2278235403,0.158395,-0.681291,-0.044166,-0.713305,9.94481277465820,-1.54645776748657,0.68152904510498,2.15769124031067,3.23725366592407,0.86302006244659
631,2278252070,0.158314,-0.681305,-0.044127,-0.713311,9.91550254821777,-1.57988250255585,0.69416683912277,2.62852907180786,3.34938573837280,1.03525257110596
632,2278268737,0.158337,-0.681294,-0.044156,-0.713315,9.91223812103271,-1.60578060150146,0.67652118206024,3.47347879409790,3.42037129402161,1.22365951538086
633,2278285404,0.158434,-0.681264,-0.044241,-0.713317,9.97011280059814,-1.55669367313385,0.67909651994705,4.11745929718018,3.47059774398804,1.31726121902466
634,2278302071,0.158479,-0.681244,-0.044288,-0.713323,9.98758029937744,-1.51732003688812,0.68748772144318,3.67160630226135,3.45784258842468,1.24069213867188
635,2278318738,0.158405,-0.681260,-0.044213,-0.713328,9.97917652130127,-1.49797821044922,0.67643713951111,2.48244714736938,3.37618947029114,1.23930895328522
636,2278335405,0.158268,-0.681293,-0.044040,-0.713339,9.95645332336426,-1.53634154796600,0.67597949504852,1.68514955043793,3.40832090377808,1.38582658767700
637,2278352072,0.158147,-0.681307,-0.043882,-0.713362,9.95152759552002,-1.59806430339813,0.66191416978836,1.84647059440613,3.54889535903931,1.38116478919983
638,2278368739,0.158114,-0.681308,-0.043809,-0.713372,9.96121692657471,-1.63380062580109,0.65682536363602,2.69476366043091,3.48271298408508,1.41560137271881
639,2278385406,0.158075,-0.681325,-0.043788,-0.713366,9.95360374450684,-1.59555578231812,0.67343848943710,3.41677260398865,3.18911433219910,1.21260774135590
640,2278402073,0.158100,-0.681345,-0.043830,-0.713339,9.99349975585938,-1.56005120277405,0.68497490882874,3.52232265472412,3.11011171340942,1.20606362819672
641,2278418740,0.158143,-0.681375,-0.043916,-0.713296,9.93977928161621,-1.54200577735901,0.66914552450180,3.42443108558655,3.00635504722595,1.09633886814117
642,2278435407,0.158150,-0.681400,-0.043945,-0.713268,9.89557743072510,-1.52605068683624,0.64372974634171,3.23131155967712,3.11336493492126,1.17561030387878
643,2278452074,0.158177,-0.681404,-0.043909,-0.713261,9.93580627441406,-1.54301059246063,0.66252249479294,3.15937757492065,3.36600804328918,1.56621646881104
644,2278468741,0.158210,-0.681401,-0.043850,-0.713260,9.99847602844238,-1.55223536491394,0.66530233621597,3.07842874526978,3.45629334449768,1.68673717975616
645,2278485408,0.158164,-0.681426,-0.043730,-0.713254,10.01688098907471,-1.53230249881744,0.68100637197495,2.37749910354614,3.33806514739990,1.60257399082184
646,2278502075,0.158051,-0.681468,-0.043611,-0.713246,10.01540374755859,-1.58205175399780,0.64601212739944,2.05714821815491,3.22202682495117,1.28076314926147
647,2278518742,0.158021,-0.681530,-0.043602,-0.713194,9.96303653717041,-1.61711418628693,0.64031082391739,2.31203317642212,2.93691897392273,1.17152512073517
648,2278535409,0.158006,-0.681576,-0.043617,-0.713152,9.96867942810059,-1.62193059921265,0.66096228361130,2.94453859329224,2.96771788597107,1.15646469593048
649,2278552076,0.158063,-0.681594,-0.043717,-0.713116,9.94966316223145,-1.60474693775177,0.67919129133224,3.95588159561157,3.02343869209290,1.10432994365692
650,2278568743,0.158195,-0.681584,-0.043856,-0.713088,9.96561527252197,-1.55120658874512,0.67739570140839,4.29619789123535,3.21069312095642,1.26028573513031
651,2278585410,0.158237,-0.681566,-0.043899,-0.713093,9.97259521484375,-1.52890145778656,0.66944473981857,3.73799443244934,3.43536782264709,1.25508642196655
652,2278602077,0.158256,-0.681546,-0.043881,-0.713109,9.98467636108398,-1.54767906665802,0.64706170558929,2.94779133796692,3.61676955223083,1.38610816001892
653,2278618744,0.158237,-0.681536,-0.043834,-0.713125,9.98057937622070,-1.54817342758179,0.64378613233566,2.41137194633484,3.62212276458740,1.32237100601196
654,2278635411,0.158157,-0.681549,-0.043754,-0.713136,9.97526550292969,-1.56779074668884,0.64581722021103,2.42457485198975,3.42595458030701,1.23120248317719
655,2278652078,0.158105,-0.681570,-0.043717,-0.713130,9.98285293579102,-1.60358178615570,0.64255684614182,2.76802849769592,3.26120090484619,1.18310177326202
656,2278668745,0.158111,-0.681577,-0.043751,-0.713120,9.96398925781250,-1.59229862689972,0.64605063199997,3.40236520767212,3.25523304939270,1.13512921333313
657,2278685412,0.158181,-0.681557,-0.043841,-0.713117,9.96116161346436,-1.58098077774048,0.65405511856079,4.00144767761230,3.38195300102234,1.16478896141052
658,2278702079,0.158239,-0.681529,-0.043944,-0.713125,9.95605850219727,-1.55884587764740,0.66970366239548,4.01555919647217,3.44967222213745,1.04008066654205
659,2278718746,0.158248,-0.681514,-0.043994,-0.713135,9.97021389007568,-1.54065608978271,0.65990269184113,3.50768470764160,3.44288444519043,1.04425537586212
660,2278735413,0.158219,-0.681508,-0.043990,-0.713147,9.98214054107666,-1.55177283287048,0.66608172655106,3.05425071716309,3.45526862144470,1.11433184146881
661,2278752080,0.158143,-0.681504,-0.043937,-0.713171,9.98029041290283,-1.57364416122437,0.66115272045135,2.59427213668823,3.54253149032593,1.10454773902893
662,2278768747,0.158076,-0.681480,-0.043878,-0.713212,9.96966266632080,-1.59960985183716,0.66172331571579,2.62302255630493,3.72417640686035,1.14081537723541
663,2278785414,0.158036,-0.681453,-0.043858,-0.713248,9.95834827423096,-1.59750175476074,0.65704619884491,2.93839097023010,3.68347740173340,1.10760819911957
664,2278802081,0.158041,-0.681413,-0.043891,-0.713283,9.98880195617676,-1.57370734214783,0.68167746067047,3.42740201950073,3.69606685638428,1.07057261466980
665,2278818748,0.158068,-0.681365,-0.043966,-0.713318,9.98964405059814,-1.59274208545685,0.67405742406845,3.74113202095032,3.70184230804443,0.97901988029480
666,2278835415,0.158130,-0.681313,-0.044078,-0.713348,9.97422885894775,-1.58339750766754,0.65875035524368,4.09513807296753,3.66463994979858,0.98237514495850
667,2278852082,0.158180,-0.681267,-0.044176,-0.713374,9.97063636779785,-1.54395842552185,0.65657341480255,3.96813750267029,3.62413311004639,0.99830633401871
668,2278868749,0.158206,-0.681219,-0.044217,-0.713412,9.97495651245117,-1.53214228153229,0.67727345228195,3.56866931915283,3.75311899185181,1.12680518627167
669,2278885416,0.158147,-0.681184,-0.044152,-0.713462,9.97636985778809,-1.52486872673035,0.66066032648087,3.03076338768005,3.76828122138977,1.23503148555756
670,2278902083,0.158135,-0.681151,-0.044133,-0.713498,9.98326396942139,-1.53700494766235,0.65549165010452,2.64458847045898,3.78600597381592,1.20041608810425
671,2278918750,0.158081,-0.681107,-0.044078,-0.713555,9.96278095245361,-1.57466614246368,0.64925998449326,2.69033241271973,3.90026354789734,1.16629981994629
672,2278935417,0.158106,-0.681066,-0.044104,-0.713587,9.97254753112793,-1.57940042018890,0.64813667535782,3.16946959495544,3.75555229187012,1.18339657783508
673,2278952084,0.158136,-0.681026,-0.044169,-0.713615,9.97006702423096,-1.57392024993896,0.66469752788544,3.50377917289734,3.67343759536743,1.03791642189026
674,2278968751,0.158164,-0.680999,-0.044247,-0.713630,9.97973537445068,-1.54811096191406,0.67481935024261,3.58960723876953,3.52376985549927,0.98831731081009
675,2278985418,0.158166,-0.680980,-0.044306,-0.713643,9.96913719177246,-1.52907323837280,0.68110615015030,3.20490455627441,3.51889061927795,0.94418656826019
676,2279002085,0.158109,-0.680975,-0.044266,-0.713663,9.99271869659424,-1.53513288497925,0.67283326387405,2.77751851081848,3.50805640220642,1.14176297187805
677,2279018752,0.158063,-0.680969,-0.044228,-0.713681,9.93409729003906,-1.55987894535065,0.63797682523727,2.65743303298950,3.53716564178467,1.17161476612091
678,2279035419,0.158037,-0.680948,-0.044204,-0.713708,9.92507743835449,-1.55129945278168,0.69246470928192,2.84764623641968,3.64544320106506,1.19170808792114
679,2279052086,0.158058,-0.680929,-0.044229,-0.713720,9.90274906158447,-1.54627060890198,0.68510508537292,3.00895476341248,3.57129454612732,1.18679022789001
680,2279068753,0.158140,-0.680890,-0.044300,-0.713735,9.94972324371338,-1.57000327110291,0.66737067699432,3.02222180366516,3.73330712318420,1.22727084159851
681,2279085420,0.158059,-0.680851,-0.044217,-0.713796,10.05693531036377,-1.60093343257904,0.64834880828857,3.11509323120117,3.81128478050232,1.21336317062378
682,2279102087,0.158039,-0.680818,-0.044292,-0.713827,10.06664562225342,-1.55907022953033,0.66200172901154,2.99836397171021,3.67305374145508,0.72279053926468
683,2279118754,0.157894,-0.680833,-0.044265,-0.713847,10.00452232360840,-1.51435410976410,0.69153475761414,2.03321337699890,3.43162870407104,0.62451452016830
684,2279135421,0.157770,-0.680858,-0.044226,-0.713852,9.95034980773926,-1.56219410896301,0.67955309152603,1.77805936336517,3.37963390350342,0.78472191095352
685,2279152088,0.157664,-0.680851,-0.044209,-0.713883,9.90046691894531,-1.59558176994324,0.68557059764862,2.78762245178223,3.51903152465820,0.78793638944626
686,2279168755,0.157708,-0.680809,-0.044313,-0.713907,9.92786598205566,-1.56463110446930,0.67765641212463,3.66561317443848,3.63884782791138,0.92449045181274
687,2279185422,0.157738,-0.680742,-0.044377,-0.713961,9.95382118225098,-1.51213502883911,0.68510794639587,4.03849554061890,3.84131598472595,1.03845417499542
688,2279202089,0.157816,-0.680684,-0.044467,-0.713993,9.98513317108154,-1.48719668388367,0.66757458448410,3.25869131088257,3.86353540420532,1.10447096824646
689,2279218756,0.157773,-0.680638,-0.044398,-0.714051,9.98055267333984,-1.51061761379242,0.67973709106445,2.38577198982239,3.98123836517334,1.26860988140106
690,2279235423,0.157655,-0.680626,-0.044245,-0.714098,10.00067138671875,-1.53217792510986,0.69199508428574,1.97727489471436,3.77264809608459,1.34023571014404
691,2279252090,0.157612,-0.680622,-0.044153,-0.714117,9.98682022094727,-1.56635093688965,0.67532026767731,2.18980908393860,3.63232922554016,1.42430937290192
692,2279268757,0.157609,-0.680619,-0.044135,-0.714121,9.98523426055908,-1.57636034488678,0.66304850578308,2.65510249137878,3.49548053741455,1.28168523311615
693,2279285424,0.157562,-0.680615,-0.044090,-0.714138,9.97016429901123,-1.55777716636658,0.68236780166626,3.07648253440857,3.45416736602783,1.23669660091400
694,2279302091,0.157585,-0.680622,-0.044113,-0.714125,9.96990394592285,-1.54253661632538,0.69301116466522,3.23113226890564,3.29241037368774,1.25880014896393
695,2279318758,0.157631,-0.680630,-0.044186,-0.714103,9.91602993011475,-1.56080150604248,0.69577729701996,3.24012231826782,3.25481104850769,1.12721502780914
696,2279335425,0.157644,-0.680618,-0.044198,-0.714110,9.88811779022217,-1.53697800636292,0.67236477136612,3.30136203765869,3.46386170387268,1.24614763259888
697,2279352092,0.157670,-0.680591,-0.044173,-0.714132,9.96684169769287,-1.56761348247528,0.66847091913223,3.57479047775269,3.58897972106934,1.48840522766113
698,2279368759,0.157683,-0.680558,-0.044162,-0.714161,10.01643085479736,-1.54910159111023,0.69175118207932,3.28001379966736,3.67693424224854,1.32328021526337
699,2279385426,0.157595,-0.680549,-0.044100,-0.714193,10.02899932861328,-1.52115607261658,0.69219857454300,2.54715800285339,3.59848260879517,1.08223915100098
700,2279402093,0.157509,-0.680560,-0.044036,-0.714206,10.01422023773193,-1.53953814506531,0.69132262468338,1.87201929092407,3.52538299560547,1.07346653938293
701,2279418760,0.157412,-0.680599,-0.043955,-0.714195,9.97421741485596,-1.58162820339203,0.68358629941940,1.85702347755432,3.25835871696472,1.14984393119812
702,2279435427,0.157360,-0.680638,-0.043941,-0.714170,9.92753410339355,-1.58168864250183,0.68379312753677,2.55003857612610,3.11609220504761,1.08088147640228
703,2279452094,0.157356,-0.680640,-0.043985,-0.714167,9.91468238830566,-1.57358896732330,0.67371904850006,3.35672402381897,3.30786776542664,1.01947522163391
704,2279468761,0.157328,-0.680623,-0.044002,-0.714188,9.91886997222900,-1.51521563529968,0.64813184738159,3.22476720809937,3.51809668540955,1.01640164852142
705,2279485428,0.157311,-0.680618,-0.044002,-0.714196,9.92399215698242,-1.50935125350952,0.66975253820419,2.57198882102966,3.52189970016479,1.11607336997986
706,2279502095,0.157194,-0.680617,-0.043909,-0.714229,9.94121265411377,-1.52477145195007,0.64254820346832,2.25706815719604,3.58830046653748,1.08211100101471
707,2279518762,0.157061,-0.680621,-0.043772,-0.714262,9.97523880004883,-1.52929461002350,0.65070688724518,2.13027238845825,3.57485437393188,1.21958720684052
708,2279535429,0.157045,-0.680651,-0.043775,-0.714237,9.98393344879150,-1.54208040237427,0.67315047979355,2.29936742782593,3.23551154136658,1.13939368724823
709,2279552096,0.157008,-0.680699,-0.043752,-0.714201,10.00004291534424,-1.54725766181946,0.68482226133347,2.54617142677307,3.03548908233643,1.20954704284668
710,2279568763,0.156970,-0.680759,-0.043755,-0.714152,9.98230266571045,-1.55060982704163,0.69506740570068,2.73402738571167,2.87759947776794,1.10623800754547
711,2279585430,0.156904,-0.680823,-0.043728,-0.714107,9.97277355194092,-1.55481767654419,0.70987069606781,2.81530952453613,2.84329128265381,1.12738132476807
712,2279602097,0.156873,-0.680883,-0.043742,-0.714056,9.96978378295898,-1.55127763748169,0.68590289354324,2.82043194770813,2.85468912124634,1.09197175502777
713,2279618764,0.156775,-0.680931,-0.043664,-0.714036,9.93914413452148,-1.56275427341461,0.68833214044571,2.99742865562439,2.99409914016724,1.21349132061005
714,2279635431,0.156782,-0.680956,-0.043679,-0.714010,9.97850704193115,-1.57622528076172,0.70029610395432,3.11930680274963,3.14413857460022,1.24263846874237
715,2279652098,0.156730,-0.680980,-0.043638,-0.714002,9.99002170562744,-1.56714451313019,0.71243387460709,3.23009490966797,3.16726684570312,1.24117875099182
716,2279668765,0.156718,-0.681006,-0.043624,-0.713979,9.98668575286865,-1.55141031742096,0.68610531091690,2.92097473144531,3.17086482048035,1.27894461154938
717,2279685432,0.156655,-0.681039,-0.043556,-0.713966,9.97866439819336,-1.55211031436920,0.67041730880737,2.62362432479858,3.18907594680786,1.29159736633301
718,2279702099,0.156575,-0.681069,-0.043458,-0.713962,9.97122097015381,-1.54570889472961,0.66207385063171,2.32578659057617,3.29111647605896,1.32960641384125
719,2279718766,0.156512,-0.681095,-0.043389,-0.713955,9.98298263549805,-1.55947482585907,0.66690373420715,2.27622604370117,3.30909657478333,1.26599729061127
720,2279735433,0.156446,-0.681123,-0.043323,-0.713947,9.96731281280518,-1.56110310554504,0.67914402484894,2.53967833518982,3.25119900703430,1.25288355350494
721,2279752100,0.156415,-0.681145,-0.043319,-0.713932,9.97410488128662,-1.55600190162659,0.66443741321564,2.81122446060181,3.22552275657654,1.12963545322418
722,2279768767,0.156372,-0.681174,-0.043314,-0.713914,9.98777389526367,-1.55365490913391,0.67013919353485,2.94184923171997,3.13740229606628,1.08845019340515
723,2279785434,0.156317,-0.681206,-0.043288,-0.713897,9.98796939849854,-1.55382752418518,0.65652060508728,2.77640366554260,3.15130972862244,1.13041651248932
724,2279802101,0.156233,-0.681237,-0.043248,-0.713889,9.98762893676758,-1.53427624702454,0.66605091094971,2.57645845413208,3.20211219787598,1.04647076129913
725,2279818768,0.156129,-0.681264,-0.043176,-0.713890,10.04052543640137,-1.52725541591644,0.67804813385010,2.32884740829468,3.29848003387451,1.08328902721405
726,2279835435,0.156036,-0.681284,-0.043086,-0.713896,10.06026935577393,-1.55146062374115,0.67264556884766,2.00731825828552,3.41637539863586,1.19735527038574
727,2279852102,0.155956,-0.681292,-0.042978,-0.713913,10.04765510559082,-1.57405161857605,0.68344163894653,1.94734632968903,3.56080532073975,1.32646882534027
728,2279868769,0.155854,-0.681287,-0.042864,-0.713948,10.02293395996094,-1.59955906867981,0.65533393621445,2.25773406028748,3.64138340950012,1.24895203113556
729,2279885436,0.155800,-0.681261,-0.042820,-0.713986,9.97076129913330,-1.58350217342377,0.65309005975723,2.73947095870972,3.71530151367188,1.14653980731964
730,2279902103,0.155758,-0.681200,-0.042794,-0.714055,9.92841148376465,-1.56289613246918,0.64997154474258,2.92036008834839,4.00914287567139,1.07259583473206
731,2279918770,0.155735,-0.681110,-0.042767,-0.714147,9.90172481536865,-1.56061244010925,0.64528983831406,3.01657438278198,4.27148151397705,1.14378643035889
732,2279935437,0.155766,-0.681006,-0.042782,-0.714239,9.96799945831299,-1.54680621623993,0.64575594663620,3.50097441673279,4.30918312072754,1.20281100273132
733,2279952104,0.155781,-0.680916,-0.042813,-0.714319,10.06329154968262,-1.52989757061005,0.60879570245743,3.48642611503601,4.16285753250122,1.06583416461945
734,2279968771,0.155710,-0.680870,-0.042792,-0.714381,10.03510189056396,-1.46514308452606,0.66420030593872,2.78841590881348,3.89373207092285,0.92007219791412
735,2279985438,0.155511,-0.680902,-0.042643,-0.714403,9.97314929962158,-1.47107386589050,0.67983210086823,1.49560260772705,3.42230558395386,0.96093738079071
736,2280002105,0.155313,-0.680934,-0.042462,-0.714426,9.90851783752441,-1.55340874195099,0.66905629634857,1.46756947040558,3.44034934043884,1.11625277996063
737,2280018772,0.155228,-0.680936,-0.042390,-0.714446,9.88015174865723,-1.59938716888428,0.66044807434082,2.53383874893188,3.49601840972900,1.15672087669373
738,2280035439,0.155382,-0.680905,-0.042547,-0.714433,9.90184688568115,-1.56551778316498,0.66230249404907,3.87862110137939,3.47574639320374,1.21652662754059
739,2280052106,0.155562,-0.680862,-0.042695,-0.714426,9.95425510406494,-1.51992154121399,0.70261454582214,4.18688249588013,3.54924178123474,1.40037441253662
740,2280068773,0.155567,-0.680858,-0.042652,-0.714431,9.93842411041260,-1.49058663845062,0.68227893114090,3.49044752120972,3.39069867134094,1.49622976779938
741,2280085440,0.155530,-0.680886,-0.042577,-0.714418,9.95299720764160,-1.46336460113525,0.67550516128540,2.59195399284363,3.25282549858093,1.44368541240692
742,2280102107,0.155467,-0.680920,-0.042417,-0.714408,9.94887542724609,-1.51470935344696,0.65516078472137,1.81642687320709,3.35795283317566,1.69463860988617
743,2280118774,0.155375,-0.680961,-0.042206,-0.714401,9.92431163787842,-1.55401432514191,0.62786728143692,1.86739611625671,3.30785441398621,1.81710565090179
744,2280135441,0.155426,-0.680997,-0.042138,-0.714361,9.94009113311768,-1.56988298892975,0.66907244920731,2.34001469612122,3.22125840187073,1.82690274715424
745,2280152108,0.155526,-0.681049,-0.042159,-0.714287,9.96443939208984,-1.58745753765106,0.69553840160370,2.99276733398438,2.90170121192932,1.68562316894531
746,2280168775,0.155558,-0.681133,-0.042186,-0.714199,9.95628070831299,-1.57337355613708,0.67868554592133,3.37294936180115,2.54079270362854,1.40104031562805
747,2280185442,0.155576,-0.681222,-0.042211,-0.714108,9.90631294250488,-1.53324842453003,0.67619001865387,3.32889580726624,2.48998999595642,1.34274578094482
748,2280202109,0.155632,-0.681290,-0.042228,-0.714030,9.96600151062012,-1.56294441223145,0.63871377706528,3.48651671409607,2.67336416244507,1.54808294773102
749,2280218776,0.155670,-0.681340,-0.042214,-0.713975,9.99269962310791,-1.56956517696381,0.65078598260880,3.26248216629028,2.89806437492371,1.58045732975006
750,2280235443,0.155667,-0.681381,-0.042158,-0.713940,9.98910427093506,-1.54961442947388,0.69609379768372,2.86967253684998,3.06434130668640,1.54609775543213
751,2280252110,0.155620,-0.681425,-0.042101,-0.713912,9.98616981506348,-1.55206322669983,0.67671400308609,2.64787912368774,3.08369231224060,1.32854366302490
752,2280268777,0.155554,-0.681492,-0.042030,-0.713866,9.96939086914062,-1.56907808780670,0.68249559402466,2.47609543800354,2.88857507705688,1.32949137687683
753,2280285444,0.155512,-0.681570,-0.041990,-0.713804,9.97394943237305,-1.57999241352081,0.65070229768753,2.73169660568237,2.73141503334045,1.31878495216370
754,2280302111,0.155527,-0.681604,-0.042020,-0.713766,9.97641944885254,-1.60306656360626,0.65951424837112,3.38019800186157,3.00116825103760,1.23457074165344
755,2280318778,0.155591,-0.681611,-0.042088,-0.713742,9.96915817260742,-1.56102120876312,0.67269653081894,3.83167338371277,3.17584729194641,1.27593529224396
756,2280335445,0.155627,-0.681613,-0.042107,-0.713730,9.96797180175781,-1.53556299209595,0.64947426319122,3.44958209991455,3.30309033393860,1.35308039188385
757,2280352112,0.155598,-0.681630,-0.042056,-0.713724,9.98904418945312,-1.52837002277374,0.63301795721054,2.78662323951721,3.30955767631531,1.35548806190491
758,2280368779,0.155495,-0.681655,-0.041966,-0.713727,9.98015213012695,-1.53937602043152,0.64028573036194,2.23860120773315,3.33052158355713,1.17571246623993
759,2280385446,0.155365,-0.681695,-0.041875,-0.713723,9.97936344146729,-1.54654550552368,0.63088232278824,2.08749961853027,3.22393488883972,1.05172157287598
760,2280402113,0.155282,-0.681735,-0.041839,-0.713704,9.96329498291016,-1.58500921726227,0.61903005838394,2.58791995048523,3.10168480873108,1.04247522354126
761,2280418780,0.155253,-0.681757,-0.041896,-0.713687,9.96057415008545,-1.57585406303406,0.64065974950790,3.31086444854736,3.12045979499817,0.86920547485352
762,2280435447,0.155260,-0.681765,-0.041987,-0.713673,9.98699569702148,-1.56312417984009,0.64530664682388,3.66385817527771,3.17616677284241,0.87455838918686
