sep=,
DeviceTag:,C
FirmwareVersion:,3.0.0
AppVersion:,2023.6.0
StartTime: ,2024-03-14_11:33:25_000 EDT
© Movella Technologies B. V. 2005-2024

PacketCounter,SampleTimeFine,Quat_W,Quat_X,Quat_Y,Quat_Z,Acc_X,Acc_Y,Acc_Z,Gyr_X,Gyr_Y,Gyr_Z
0,2267718526,0.627511,0.388559,-0.573923,0.354774,0.00000000000000,0.00000000000000,0.00000000000000,0.00000000000000,0.00000000000000,0.00000000000000
1,2267735193,0.627465,0.388616,-0.573952,0.354747,9.85977554321289,0.79671835899353,0.41407361626625,1.24845266342163,-0.56668740510941,0.17745758593082
2,2267751860,0.627428,0.388640,-0.574000,0.354707,9.85230350494385,0.81353706121445,0.39287334680557,1.11786639690399,-0.55804306268692,0.28615787625313
3,2267768527,0.627372,0.388678,-0.574034,0.354710,9.85873126983643,0.80238109827042,0.39451164007187,1.39553356170654,-0.49375522136688,0.42419755458832
4,2267785194,0.627307,0.388748,-0.574063,0.354701,9.84620380401611,0.79855191707611,0.38284987211227,1.44692540168762,-0.62722301483154,0.25354009866714
5,2267801861,0.627216,0.388822,-0.574107,0.354709,9.85599136352539,0.79288125038147,0.38115960359573,1.57524514198303,-0.75357055664062,0.41112226247787
6,2267818528,0.627158,0.388848,-0.574167,0.354687,9.87212181091309,0.80596250295639,0.39784610271454,1.18678998947144,-0.65068417787552,0.43804118037224
7,2267835195,0.627092,0.388835,-0.574254,0.354676,9.89428901672363,0.79269623756409,0.39525792002678,0.96728914976120,-0.68408316373825,0.73126816749573
8,2267851862,0.627058,0.388816,-0.574315,0.354658,9.89130020141602,0.82903867959976,0.39848217368126,0.95041024684906,-0.43425685167313,0.57240533828735
9,2267868529,0.627027,0.388840,-0.574349,0.354630,9.87431335449219,0.82934451103210,0.37400412559509,1.11188566684723,-0.45169913768768,0.28363502025604
10,2267885196,0.626990,0.388904,-0.574364,0.354602,9.87535095214844,0.81675964593887,0.40546140074730,1.26253962516785,-0.48923456668854,0.08402246236801
11,2267901863,0.626955,0.388994,-0.574370,0.354556,9.86095142364502,0.82162046432495,0.38786670565605,1.42711400985718,-0.55350965261459,-0.11532758176327
12,2267918530,0.626910,0.389040,-0.574417,0.354509,9.87236499786377,0.79746562242508,0.39154121279716,1.13720393180847,-0.66442543268204,0.18246488273144
13,2267935197,0.626899,0.389056,-0.574445,0.354467,9.88049697875977,0.81092113256454,0.36473071575165,0.95073056221008,-0.36259257793427,0.18927784264088
14,2267951864,0.626894,0.389059,-0.574460,0.354446,9.85287094116211,0.80500376224518,0.33688905835152,1.09353411197662,-0.18959158658981,0.28154757618904
15,2267968531,0.626855,0.389082,-0.574511,0.354408,9.83244037628174,0.80394870042801,0.34074610471725,1.05178558826447,-0.57420474290848,0.31182184815407
16,2267985198,0.626792,0.389134,-0.574550,0.354399,9.85590457916260,0.80217152833939,0.36839789152145,1.39187085628510,-0.60721951723099,0.34675753116608
17,2268001865,0.626739,0.389229,-0.574547,0.354394,9.88085365295410,0.81350678205490,0.36942377686501,1.63305294513702,-0.49509987235069,0.05196817219257
18,2268018532,0.626697,0.389321,-0.574540,0.354377,9.86655521392822,0.79129213094711,0.37497562170029,1.55233442783356,-0.45150709152222,-0.02362131327391
19,2268035199,0.626658,0.389386,-0.574550,0.354361,9.87287807464600,0.79219979047775,0.37888190150261,1.42889416217804,-0.44050642848015,0.12943378090858
20,2268051866,0.626417,0.389661,-0.574553,0.354477,9.83959579467773,0.79279309511185,0.23166924715042,3.35079431533813,-1.37357711791992,0.34149411320686
21,2268068533,0.626332,0.389706,-0.574668,0.354394,9.98353672027588,0.85293489694595,0.60693973302841,0.89047670364380,-1.21111559867859,0.31048995256424
22,2268085200,0.626394,0.389660,-0.574677,0.354319,9.81026649475098,0.78325027227402,0.26982495188713,0.44097381830215,0.07166433334351,0.06316091120243
23,2268101867,0.626450,0.389513,-0.574778,0.354217,9.85464668273926,0.80328410863876,0.32339999079704,-0.31824421882629,-0.17305861413479,0.60800707340240
24,2268118534,0.626381,0.389497,-0.574945,0.354086,9.81396102905273,0.78395301103592,0.29875889420509,0.39332139492035,-1.34061348438263,0.44964373111725
25,2268135201,0.626171,0.389581,-0.575081,0.354146,9.90730190277100,0.77687042951584,0.37990638613701,1.89714550971985,-1.50954210758209,1.13270890712738
26,2268151868,0.625947,0.389777,-0.575140,0.354229,9.85860729217529,0.79855561256409,0.34939739108086,2.72701001167297,-1.44166851043701,0.61546045541763
27,2268168535,0.625736,0.389971,-0.575234,0.354236,9.90011978149414,0.78060019016266,0.39394760131836,2.34545755386353,-1.73556149005890,0.36288073658943
28,2268185202,0.625631,0.390009,-0.575331,0.354222,9.92400741577148,0.83018797636032,0.37778145074844,1.29333877563477,-1.00549685955048,0.63929301500320
29,2268201869,0.625600,0.390016,-0.575391,0.354171,9.88785552978516,0.80464684963226,0.33687269687653,1.01166319847107,-0.57061892747879,0.32145217061043
30,2268218536,0.625534,0.390051,-0.575437,0.354174,9.86954689025879,0.79680925607681,0.32272374629974,1.38795208930969,-0.57740628719330,0.48843407630920
31,2268235203,0.625430,0.390221,-0.575407,0.354219,9.87587356567383,0.80043917894363,0.31358936429024,2.48814558982849,-0.61401963233948,0.03169571235776
32,2268251870,0.625303,0.390420,-0.575356,0.354308,9.85609245300293,0.76961088180542,0.32093411684036,2.77061533927917,-0.57517802715302,0.09965901821852
33,2268268537,0.625196,0.390533,-0.575362,0.354363,9.83612823486328,0.78286224603653,0.30215069651604,2.06781578063965,-0.62519961595535,0.39607483148575
34,2268285204,0.625113,0.390596,-0.575404,0.354371,9.87117576599121,0.81310272216797,0.28395017981529,1.62218046188354,-0.67792338132858,0.43039584159851
35,2268301871,0.625045,0.390642,-0.575448,0.354368,9.88473320007324,0.82870262861252,0.30483028292656,1.38370048999786,-0.62261271476746,0.42000985145569
36,2268318538,0.624969,0.390716,-0.575477,0.354375,9.87481307983398,0.82602971792221,0.31798177957535,1.59229040145874,-0.63126981258392,0.33277302980423
37,2268335205,0.624913,0.390816,-0.575462,0.354387,9.90408802032471,0.81701618432999,0.34559524059296,1.72816562652588,-0.42082303762436,0.08617392182350
38,2268351872,0.624890,0.390894,-0.575422,0.354407,9.91501331329346,0.80079585313797,0.29422375559807,1.67024254798889,-0.09802620112896,0.05651441961527
39,2268368539,0.624840,0.391023,-0.575347,0.354473,9.86153411865234,0.78097563982010,0.27563381195068,2.26463651657104,-0.05607260391116,0.02708543278277
40,2268385206,0.624806,0.391107,-0.575313,0.354497,9.84325122833252,0.82729637622833,0.28611239790916,1.77145123481750,-0.17371173202991,0.08686547726393
41,2268401873,0.624787,0.391098,-0.575395,0.354406,9.87716388702393,0.76634991168976,0.37005218863487,0.59869682788849,-0.69567292928696,0.24714973568916
42,2268418540,0.624775,0.391075,-0.575429,0.354400,9.86981773376465,0.80240756273270,0.28315350413322,0.98427039384842,-0.19228093326092,0.51699233055115
43,2268435207,0.624716,0.391168,-0.575437,0.354387,9.86884117126465,0.82482278347015,0.31250488758087,1.75860631465912,-0.56114214658737,0.08018055558205
44,2268451874,0.624664,0.391278,-0.575437,0.354358,9.87005043029785,0.78519237041473,0.32552880048752,1.61420214176178,-0.59611642360687,-0.10460867732763
45,2268468541,0.624635,0.391309,-0.575477,0.354310,9.88423156738281,0.82206684350967,0.33115589618683,1.07873010635376,-0.53285306692123,0.17950659990311
46,2268485208,0.624635,0.391299,-0.575516,0.354257,9.88222503662109,0.80799925327301,0.34981903433800,0.75490874052048,-0.33094808459282,0.24558737874031
47,2268501875,0.624653,0.391239,-0.575572,0.354200,9.87459182739258,0.80633139610291,0.31087586283684,0.48372140526772,-0.22377173602581,0.43508288264275
48,2268518542,0.624687,0.391171,-0.575617,0.354141,9.88918590545654,0.81079411506653,0.36944010853767,0.40350246429443,-0.09267314523458,0.38297387957573
49,2268535209,0.624751,0.391060,-0.575650,0.354097,9.87727737426758,0.81467777490616,0.35956215858459,0.28871914744377,0.22718463838100,0.51776075363159
50,2268551876,0.624801,0.390967,-0.575676,0.354069,9.87681579589844,0.80257600545883,0.32969769835472,0.35990968346596,0.18852227926254,0.52663552761078
51,2268568543,0.624818,0.390924,-0.575695,0.354057,9.86694526672363,0.80858045816422,0.30108088254929,0.68571591377258,0.00646720640361,0.45269164443016
52,2268585210,0.624845,0.390876,-0.575722,0.354018,9.86960220336914,0.80944591760635,0.31009292602539,0.60558658838272,-0.04924681782722,0.36101102828979
53,2268601877,0.624866,0.390824,-0.575778,0.353948,9.86533927917480,0.81533592939377,0.31868657469749,0.39516550302505,-0.26290795207024,0.34044396877289
54,2268618544,0.624877,0.390748,-0.575850,0.353895,9.88068866729736,0.79702574014664,0.31099772453308,0.38253846764565,-0.26233169436455,0.56674498319626
55,2268635211,0.624875,0.390691,-0.575913,0.353858,9.88354110717773,0.79650169610977,0.31924691796303,0.60355043411255,-0.28834134340286,0.56935745477676
56,2268651878,0.624855,0.390664,-0.575961,0.353846,9.86634826660156,0.81868427991867,0.30114558339119,0.89460039138794,-0.29761320352554,0.56551557779312
57,2268668545,0.624838,0.390642,-0.576016,0.353810,9.86616230010986,0.79860085248947,0.30988800525665,0.82118165493011,-0.38792359828949,0.45329356193542
58,2268685212,0.624830,0.390619,-0.576061,0.353776,9.85653114318848,0.81300538778305,0.31325182318687,0.79416012763977,-0.30290216207504,0.41400364041328
59,2268701879,0.624810,0.390605,-0.576104,0.353758,9.85248661041260,0.79931074380875,0.33784553408623,0.89078402519226,-0.32719582319260,0.47291284799576
60,2268718546,0.624803,0.390581,-0.576147,0.353726,9.85318756103516,0.80140161514282,0.33107423782349,0.90248900651932,-0.27529165148735,0.42314738035202
61,2268735213,0.624789,0.390547,-0.576200,0.353703,9.87849426269531,0.82465517520905,0.31292045116425,0.87022984027863,-0.30291494727135,0.55133897066116
62,2268751880,0.624784,0.390534,-0.576212,0.353707,9.87497138977051,0.78525692224503,0.29213801026344,0.98090237379074,-0.07936734706163,0.43933460116386
63,2268768547,0.624774,0.390501,-0.576245,0.353707,9.86860466003418,0.79586762189865,0.29789847135544,0.87455838918686,-0.15236352384090,0.57300728559494
64,2268785214,0.624748,0.390468,-0.576299,0.353702,9.86386394500732,0.81606394052505,0.30888459086418,0.89581686258316,-0.30961269140244,0.65183037519455
65,2268801881,0.624729,0.390449,-0.576319,0.353723,9.88961124420166,0.81352937221527,0.33097368478775,1.13643538951874,-0.10300787538290,0.59810775518417
66,2268818548,0.624712,0.390470,-0.576314,0.353737,9.86538982391357,0.81123644113541,0.29532480239868,1.32480406761169,-0.10200899094343,0.33284988999367
67,2268835215,0.624686,0.390544,-0.576292,0.353738,9.85933113098145,0.80592292547226,0.29776668548584,1.58406865596771,-0.23082806169987,0.04368245974183
68,2268851882,0.624647,0.390607,-0.576284,0.353751,9.87910652160645,0.81099349260330,0.32050588726997,1.57034039497375,-0.28373110294342,0.21175301074982
69,2268868549,0.624627,0.390659,-0.576244,0.353795,9.90885066986084,0.81816887855530,0.39452669024467,1.68128168582916,0.03903375566006,0.25498723983765
70,2268885216,0.624643,0.390680,-0.576202,0.353810,9.88813495635986,0.79350072145462,0.33199089765549,1.34067118167877,0.19041761755943,0.16215400397778
71,2268901883,0.624688,0.390647,-0.576163,0.353830,9.87380790710449,0.79954153299332,0.33857509493828,1.06520664691925,0.43482685089111,0.33479642868042
72,2268918550,0.624717,0.390606,-0.576147,0.353851,9.84790325164795,0.81483012437820,0.29565995931625,1.04211664199829,0.29736340045929,0.47365564107895
73,2268935217,0.624744,0.390548,-0.576159,0.353847,9.86666870117188,0.79238861799240,0.28791862726212,0.74800598621368,0.14375126361847,0.50720822811127
74,2268951884,0.624763,0.390473,-0.576192,0.353841,9.85757827758789,0.78615331649780,0.29943135380745,0.66266447305679,0.05703947693110,0.64706641435623
75,2268968551,0.624769,0.390413,-0.576224,0.353846,9.88403511047363,0.82671946287155,0.33664819598198,0.80886191129684,0.00308633036911,0.66211390495300
76,2268985218,0.624784,0.390397,-0.576211,0.353861,9.88818550109863,0.81954604387283,0.31511101126671,1.10626375675201,0.14879697561264,0.38684141635895
77,2269001885,0.624844,0.390366,-0.576165,0.353863,9.90610504150391,0.80850589275360,0.36790040135384,0.93479955196381,0.46656093001366,0.18923945724964
78,2269018552,0.624828,0.390394,-0.576115,0.353939,9.89234352111816,0.78758358955383,0.26206892728806,1.77252662181854,0.24699603021145,0.45719942450523
79,2269035219,0.624730,0.390565,-0.576059,0.354016,9.83568191528320,0.85622042417526,0.32114633917809,2.56269121170044,-0.39850157499313,0.07345721125603
80,2269051886,0.624828,0.390513,-0.575999,0.354000,9.96768951416016,0.74401128292084,0.48320993781090,0.71186661720276,0.68311631679535,0.06570938229561
81,2269068553,0.624995,0.390273,-0.576022,0.353932,9.74776935577393,0.80730354785919,0.16846325993538,-0.64828944206238,0.92422151565552,0.64664387702942
82,2269085220,0.625071,0.390098,-0.576109,0.353847,9.83849906921387,0.76571232080460,0.27784952521324,-0.35270604491234,0.07937374711037,0.71006077528000
83,2269101887,0.625017,0.389934,-0.576302,0.353809,9.84899234771729,0.76584547758102,0.28608068823814,-0.07045412808657,-0.79078572988510,1.46721076965332
84,2269118554,0.624845,0.389924,-0.576397,0.353969,9.93506908416748,0.81417310237885,0.33601462841034,1.95622110366821,-0.67984426021576,1.72894680500031
85,2269135221,0.624706,0.390083,-0.576337,0.354138,9.88958358764648,0.82207894325256,0.31226646900177,3.03189063072205,-0.27315306663513,0.60712343454361
86,2269151888,0.624604,0.390229,-0.576300,0.354217,9.90307998657227,0.80694419145584,0.35140973329544,2.32805347442627,-0.43948194384575,0.24414025247097
87,2269168555,0.624593,0.390248,-0.576272,0.354261,9.92229461669922,0.81456017494202,0.35334548354149,1.51356947422028,0.10406439751387,0.38803237676620
88,2269185222,0.624625,0.390257,-0.576202,0.354309,9.90131759643555,0.79635816812515,0.31139540672302,1.34692060947418,0.48422092199326,0.24168144166470
89,2269201889,0.624615,0.390297,-0.576139,0.354386,9.86863327026367,0.81529051065445,0.30463474988937,1.76976060867310,0.29332944750786,0.35547864437103
90,2269218556,0.624574,0.390444,-0.576027,0.354478,9.85017013549805,0.80609047412872,0.30730539560318,2.41737794876099,0.15755653381348,-0.05912051722407
91,2269235223,0.624528,0.390574,-0.575915,0.354597,9.84450435638428,0.76437669992447,0.34166121482849,2.56401038169861,0.25411638617516,0.13979412615299
92,2269251890,0.624521,0.390599,-0.575861,0.354667,9.84346294403076,0.77462017536163,0.28733679652214,1.66389060020447,0.28825813531876,0.40450134873390
93,2269268557,0.624540,0.390600,-0.575845,0.354660,9.85766410827637,0.78722143173218,0.30944710969925,1.07523393630981,0.08033423125744,0.20785987377167
94,2269285224,0.624554,0.390596,-0.575834,0.354658,9.86471176147461,0.81557476520538,0.31938016414642,1.08418548107147,0.05623267963529,0.27528527379036
95,2269301891,0.624566,0.390587,-0.575810,0.354685,9.88728141784668,0.81676411628723,0.33481153845787,1.21500253677368,0.20321115851402,0.39108031988144
96,2269318558,0.624618,0.390563,-0.575754,0.354711,9.89661312103271,0.81667053699493,0.35560846328735,1.12785530090332,0.52769851684570,0.25968718528748
97,2269335225,0.624681,0.390554,-0.575659,0.354766,9.89374828338623,0.76428622007370,0.24817751348019,1.37581181526184,0.78729593753815,0.19135247170925
98,2269351892,0.624764,0.390557,-0.575550,0.354793,9.82709026336670,0.83614671230316,0.37022310495377,1.21943342685699,0.80781173706055,-0.05918454378843
99,2269368559,0.624801,0.390607,-0.575462,0.354815,9.84946823120117,0.75997614860535,0.28078436851501,1.48485779762268,0.41861394047737,-0.10162479430437
100,2269385226,0.624827,0.390554,-0.575494,0.354775,9.89062404632568,0.75036686658859,0.42451405525208,0.62026274204254,-0.05634153261781,0.39355191588402
101,2269401893,0.624880,0.390577,-0.575361,0.354871,9.84496784210205,0.79361093044281,0.31470981240273,1.80892252922058,0.93542695045471,0.16837787628174
102,2269418560,0.624869,0.390602,-0.575351,0.354880,9.89126396179199,0.80932778120041,0.34426143765450,1.35562884807587,-0.08040466159582,0.26702517271042
103,2269435227,0.624924,0.390552,-0.575337,0.354861,9.88305473327637,0.83268690109253,0.37632820010185,0.77839553356171,0.30987522006035,0.28081762790680
104,2269451894,0.625017,0.390432,-0.575339,0.354827,9.89760684967041,0.81539696455002,0.34402775764465,0.26488658785820,0.52047568559647,0.43626111745834
105,2269468561,0.625110,0.390311,-0.575336,0.354800,9.88742351531982,0.80855160951614,0.33602383732796,0.30327993631363,0.56314635276794,0.46110537648201
106,2269485228,0.625204,0.390260,-0.575275,0.354791,9.87813663482666,0.81189125776291,0.37023305892944,0.77253031730652,0.68549829721451,0.10384669899940
107,2269501895,0.625301,0.390227,-0.575188,0.354796,9.87506771087646,0.77639037370682,0.38061061501503,0.95112764835358,0.81079572439194,0.01263986807317
108,2269518562,0.625405,0.390121,-0.575138,0.354811,9.86588573455811,0.76144742965698,0.37083715200424,0.62770318984985,0.88385576009750,0.43271371722221
109,2269535229,0.625492,0.389979,-0.575137,0.354814,9.85760021209717,0.76516067981720,0.34779071807861,0.32840603590012,0.65702980756760,0.69206798076630
110,2269551896,0.625574,0.389860,-0.575133,0.354808,9.86317443847656,0.80863034725189,0.34917464852333,0.34620684385300,0.56815373897552,0.56506735086441
111,2269568563,0.625640,0.389797,-0.575098,0.354818,9.86096000671387,0.81709742546082,0.33932170271873,0.81248599290848,0.54457724094391,0.36706838011742
112,2269585230,0.625690,0.389779,-0.575046,0.354833,9.86743354797363,0.80641055107117,0.33825221657753,1.12231016159058,0.46183541417122,0.20674571394920
113,2269601897,0.625738,0.389778,-0.574995,0.354832,9.86924839019775,0.80717545747757,0.34166854619980,1.27633190155029,0.37929844856262,0.08160205930471
114,2269618564,0.625782,0.389790,-0.574939,0.354831,9.86811256408691,0.78958857059479,0.34832936525345,1.20711362361908,0.33506530523300,0.02218059636652
115,2269635231,0.625810,0.389796,-0.574900,0.354839,9.86576557159424,0.79658305644989,0.33601814508438,1.14760267734528,0.23741692304611,0.16739180684090
116,2269651898,0.625852,0.389779,-0.574864,0.354843,9.87299060821533,0.79595255851746,0.35826548933983,1.05551207065582,0.32298892736435,0.21738778054714
117,2269668565,0.625903,0.389750,-0.574827,0.354843,9.85660362243652,0.79117536544800,0.34692990779877,0.95293325185776,0.39289879798889,0.22457213699818
118,2269685232,0.625958,0.389699,-0.574800,0.354846,9.86326980590820,0.81580990552902,0.37708312273026,0.83123463392258,0.41610395908356,0.34158378839493
119,2269701899,0.626020,0.389647,-0.574764,0.354852,9.87005901336670,0.82691919803619,0.35872671008110,0.81148707866669,0.49419701099396,0.31066924333572
120,2269718566,0.626076,0.389614,-0.574720,0.354861,9.88149547576904,0.81659239530563,0.36988782882690,0.92903655767441,0.46713718771935,0.25030010938644
121,2269735233,0.626141,0.389582,-0.574663,0.354875,9.85468673706055,0.81132960319519,0.36323776841164,1.01098442077637,0.57711809873581,0.20367215573788
122,2269751900,0.626218,0.389539,-0.574609,0.354873,9.86179161071777,0.77554321289062,0.35399901866913,1.02867019176483,0.59705770015717,0.16444633901119
123,2269768567,0.626306,0.389494,-0.574558,0.354849,9.84015083312988,0.80581003427505,0.35156542062759,0.75087475776672,0.57244390249252,0.06125277653337
124,2269785234,0.626369,0.389430,-0.574550,0.354823,9.85313415527344,0.77586191892624,0.32710516452789,0.64292991161346,0.32820111513138,0.29380327463150
125,2269801901,0.626392,0.389390,-0.574540,0.354841,9.82816886901855,0.79065448045731,0.30948913097382,0.94588977098465,0.23170529305935,0.48163393139839
126,2269818568,0.626375,0.389376,-0.574559,0.354855,9.86466503143311,0.79431998729706,0.32755595445633,1.25152611732483,-0.11806814372540,0.54511511325836
127,2269835235,0.626382,0.389348,-0.574559,0.354873,9.85170173645020,0.81132960319519,0.36808058619499,1.04832780361176,0.10283498466015,0.49985742568970
128,2269851902,0.626393,0.389298,-0.574586,0.354867,9.84351634979248,0.83744728565216,0.38761490583420,0.83701026439667,-0.00858665723354,0.55201768875122
129,2269868569,0.626272,0.389438,-0.574550,0.354985,9.86286926269531,0.77254325151443,0.20748127996922,2.70479059219360,-0.38479873538017,0.49050876498222
130,2269885236,0.626119,0.389594,-0.574654,0.354914,9.84517288208008,0.78493374586105,0.47340458631516,1.64527022838593,-1.67211878299713,0.06501784175634
131,2269901903,0.626226,0.389484,-0.574662,0.354833,9.85849761962891,0.78722339868546,0.28618243336678,0.03625477477908,0.39846959710121,0.17715023458004
132,2269918570,0.626268,0.389114,-0.575040,0.354553,9.86319923400879,0.73088985681534,0.32768493890762,-2.59741568565369,-1.35677516460419,1.49758732318878
133,2269935237,0.626201,0.388924,-0.575285,0.354483,9.83822536468506,0.80350625514984,0.34534156322479,-0.37454086542130,-1.08193790912628,1.59909021854401
134,2269951904,0.626025,0.388850,-0.575546,0.354450,9.91877746582031,0.81845474243164,0.36431619524956,0.47398865222931,-1.77678501605988,1.60793972015381
135,2269968571,0.625838,0.388949,-0.575656,0.354494,9.94483470916748,0.78015321493149,0.36669740080833,1.99152839183807,-1.38453936576843,0.87703001499176
136,2269985238,0.625671,0.389143,-0.575677,0.354541,9.88176822662354,0.79452300071716,0.33336281776428,2.52379870414734,-1.13910567760468,0.22968189418316
137,2270001905,0.625518,0.389289,-0.575766,0.354506,9.86898994445801,0.78478962182999,0.36775013804436,1.78553819656372,-1.48241841793060,0.21186827123165
138,2270018572,0.625419,0.389294,-0.575903,0.354453,9.90033817291260,0.78752821683884,0.37684556841850,0.87267589569092,-1.18382537364960,0.69548720121384
139,2270035239,0.625348,0.389253,-0.576030,0.354418,9.87643909454346,0.77543532848358,0.33640223741531,0.71175128221512,-0.86264204978943,0.85518229007721
140,2270051906,0.625259,0.389237,-0.576155,0.354389,9.85032463073730,0.77224075794220,0.28790709376335,0.90204089879990,-0.97294330596924,0.82177066802979
141,2270068573,0.625121,0.389241,-0.576305,0.354384,9.82291889190674,0.77131122350693,0.30870577692986,1.13401496410370,-1.25250566005707,1.02879798412323
142,2270085240,0.624956,0.389272,-0.576440,0.354421,9.83612251281738,0.77385324239731,0.29865118861198,1.47554767131805,-1.26459503173828,1.12845718860626
143,2270101907,0.624811,0.389290,-0.576593,0.354408,9.87134838104248,0.80715698003769,0.27883055806160,1.16567230224609,-1.34975707530975,0.96689218282700
144,2270118574,0.624702,0.389282,-0.576755,0.354344,9.90179920196533,0.79798406362534,0.30509170889854,0.77603924274445,-1.32459282875061,0.79190623760223
145,2270135241,0.624631,0.389269,-0.576880,0.354281,9.91202068328857,0.78629696369171,0.34306940436363,0.72487777471542,-0.99742889404297,0.61812406778336
146,2270151908,0.624572,0.389264,-0.576976,0.354234,9.93469238281250,0.76248401403427,0.34311932325363,0.81271660327911,-0.80639666318893,0.55268365144730
147,2270168575,0.624476,0.389314,-0.577028,0.354264,9.88619232177734,0.74263250827789,0.21440100669861,1.59318673610687,-0.68728476762772,0.63259524106979
148,2270185242,0.624478,0.389210,-0.577162,0.354158,9.87645244598389,0.82011204957962,0.43522471189499,-0.02225103415549,-0.64147651195526,0.64531201124191
149,2270201909,0.624493,0.389087,-0.577285,0.354064,9.86071681976318,0.77897638082504,0.26820966601372,-0.11920790374279,-0.46660572290421,0.70450282096863
150,2270218576,0.624425,0.389079,-0.577378,0.354043,9.86455631256104,0.70821297168732,0.26566767692566,0.96963274478912,-0.74872964620590,0.68707346916199
151,2270235243,0.624343,0.389134,-0.577462,0.353989,9.84086513519287,0.74609255790710,0.33383688330650,1.13655078411102,-1.00814783573151,0.30778786540031
152,2270251910,0.624195,0.389225,-0.577558,0.353993,9.88212203979492,0.73364150524139,0.31300082802773,1.74035739898682,-1.25292837619781,0.60283327102661
153,2270268577,0.624057,0.389213,-0.577711,0.354000,9.89529895782471,0.79153507947922,0.34991639852524,1.08294320106506,-1.20560884475708,1.15426170825958
154,2270285244,0.623987,0.389167,-0.577827,0.353984,9.88444614410400,0.78608363866806,0.32109320163727,0.68511408567429,-0.75544011592865,0.92468243837357
155,2270301911,0.623967,0.389074,-0.577940,0.353937,9.89870071411133,0.81194531917572,0.32387205958366,0.30034732818604,-0.50785499811172,0.85009825229645
156,2270318578,0.623970,0.389027,-0.578001,0.353886,9.87700843811035,0.79956531524658,0.32967951893806,0.50742602348328,-0.32293131947517,0.45278128981590
157,2270335245,0.623958,0.389024,-0.578038,0.353848,9.88398456573486,0.75704419612885,0.30559778213501,0.85828155279160,-0.34491980075836,0.30646875500679
158,2270351912,0.623925,0.389011,-0.578087,0.353842,9.85085868835449,0.74382323026657,0.29698538780212,0.94811820983887,-0.37806266546249,0.56661701202393
159,2270368579,0.623881,0.388977,-0.578160,0.353837,9.87940597534180,0.73345988988876,0.27822765707970,0.94928348064423,-0.46222597360611,0.74641805887222
160,2270385246,0.623838,0.388950,-0.578240,0.353811,9.86457633972168,0.74905759096146,0.30641210079193,0.67233330011368,-0.57008105516434,0.64814215898514
161,2270401913,0.623832,0.388862,-0.578332,0.353768,9.88311958312988,0.75987255573273,0.29927670955658,0.19295325875282,-0.38223749399185,0.74995261430740
162,2270418580,0.623812,0.388815,-0.578419,0.353713,9.86489105224609,0.75315457582474,0.28330004215240,0.50299501419067,-0.52998429536819,0.55817753076553
163,2270435247,0.623740,0.388871,-0.578460,0.353711,9.87144947052002,0.76067239046097,0.25972616672516,1.38440477848053,-0.65269482135773,0.38511252403259
164,2270451914,0.623657,0.388956,-0.578501,0.353699,9.88858509063721,0.74270141124725,0.31184047460556,1.44109845161438,-0.80121004581451,0.25325834751129
165,2270468581,0.623579,0.388974,-0.578580,0.353686,9.89206504821777,0.75548690557480,0.31084141135216,1.14167332649231,-0.77023154497147,0.60018241405487
166,2270485248,0.623531,0.388953,-0.578658,0.353665,9.88876438140869,0.75781804323196,0.31334635615349,0.88795393705368,-0.57627934217453,0.65663272142410
167,2270501915,0.623515,0.388928,-0.578721,0.353618,9.89434242248535,0.76914560794830,0.27985611557961,0.54940521717072,-0.45296698808670,0.42887181043625
168,2270518582,0.623512,0.388907,-0.578781,0.353547,9.87578201293945,0.77846878767014,0.28971928358078,0.61891800165176,-0.45651432871819,0.27802583575249
169,2270535249,0.623492,0.388905,-0.578831,0.353504,9.88502883911133,0.78488415479660,0.28837448358536,0.94490367174149,-0.44390007853508,0.33825409412384
170,2270551916,0.623455,0.388946,-0.578847,0.353498,9.87749481201172,0.75788521766663,0.26911160349846,1.19570314884186,-0.38906332850456,0.27148181200027
171,2270568583,0.623429,0.388967,-0.578873,0.353479,9.88154792785645,0.75048762559891,0.26599514484406,1.13720393180847,-0.36182424426079,0.29562178254128
172,2270585250,0.623412,0.388986,-0.578892,0.353457,9.88493156433105,0.76648151874542,0.27345108985901,1.11241090297699,-0.29950854182243,0.25452619791031
173,2270601917,0.623413,0.388984,-0.578917,0.353416,9.87000942230225,0.75134259462357,0.24156190454960,0.82901901006699,-0.25947585701942,0.22892630100250
174,2270618584,0.623396,0.388983,-0.578963,0.353373,9.89466285705566,0.74156588315964,0.26858258247375,0.77860045433044,-0.43021008372307,0.30924773216248
175,2270635251,0.623383,0.388990,-0.578990,0.353344,9.89317226409912,0.78827118873596,0.27369803190231,1.05800938606262,-0.30317106842995,0.28464668989182
176,2270651918,0.623380,0.389039,-0.578973,0.353321,9.90983390808105,0.75663137435913,0.27886989712715,1.24074327945709,-0.16684751212597,-0.00026253017131
177,2270668585,0.623426,0.389046,-0.578944,0.353281,9.88645362854004,0.77713304758072,0.29514643549919,0.98697257041931,0.14022955298424,-0.05763497948647
178,2270685252,0.623298,0.389227,-0.578898,0.353383,9.85489845275879,0.72903567552567,0.06392996758223,2.82390260696411,-0.51721644401550,0.23338289558887
179,2270701919,0.623192,0.389360,-0.578983,0.353284,9.87657833099365,0.81413275003433,0.47446569800377,1.34692072868347,-1.42174172401428,-0.13617631793022
180,2270718586,0.623293,0.389326,-0.578927,0.353235,9.89149951934814,0.73797649145126,0.28925806283951,0.69657576084137,0.55432283878326,-0.13585616648197
181,2270735253,0.623375,0.389135,-0.579068,0.353069,9.82749938964844,0.78882575035095,0.16906468570232,-0.90321260690689,-0.30648794770241,0.55551379919052
182,2270751920,0.623397,0.389115,-0.579120,0.352967,9.82193851470947,0.73030441999435,0.21947541832924,0.40046733617783,-0.40441808104515,0.05843536928296
183,2270768587,0.623260,0.389102,-0.579289,0.352946,9.88368034362793,0.72137045860291,0.27044823765755,0.77363157272339,-1.35760748386383,1.07787191867828
184,2270785254,0.623069,0.389206,-0.579367,0.353042,9.92061424255371,0.77084279060364,0.29875063896179,2.26390624046326,-1.13311219215393,0.99682062864304
185,2270801921,0.622897,0.389355,-0.579409,0.353112,9.89391517639160,0.75185519456863,0.27840179204941,2.28957033157349,-1.09438586235046,0.56743651628494
186,2270818588,0.622777,0.389443,-0.579471,0.353123,9.91885471343994,0.78947800397873,0.29312670230865,1.69988918304443,-0.97267425060272,0.48404157161713
187,2270835255,0.622751,0.389453,-0.579516,0.353085,9.90038204193115,0.77414935827255,0.27913695573807,1.07400441169739,-0.45684728026390,0.31302559375763
188,2270851922,0.622761,0.389445,-0.579522,0.353068,9.88364982604980,0.75785559415817,0.26484286785126,1.00319814682007,-0.05778865143657,0.28059992194176
189,2270868589,0.622752,0.389506,-0.579487,0.353072,9.86563777923584,0.78014165163040,0.24743025004864,1.54366445541382,-0.06617680937052,0.03287389874458
190,2270885256,0.622691,0.389644,-0.579414,0.353146,9.86393547058105,0.75154334306717,0.23408514261246,2.24985814094543,-0.12235827744007,0.05136627331376
191,2270901923,0.622611,0.389733,-0.579394,0.353223,9.85972595214844,0.74666386842728,0.23562091588974,2.15537261962891,-0.27881345152855,0.44522559642792
192,2270918590,0.622563,0.389752,-0.579423,0.353238,9.85354328155518,0.76328325271606,0.21185939013958,1.33502352237701,-0.36721569299698,0.51431584358215
193,2270935257,0.622540,0.389749,-0.579489,0.353175,9.86511230468750,0.78593200445175,0.21986101567745,0.71862834692001,-0.58450102806091,0.30991363525391
194,2270951924,0.622524,0.389748,-0.579547,0.353110,9.90211868286133,0.79376649856567,0.24088503420353,0.78866612911224,-0.52524596452713,0.24620206654072
195,2270968591,0.622487,0.389777,-0.579577,0.353094,9.91022586822510,0.78832268714905,0.25584557652473,1.18826282024384,-0.43625470995903,0.31743100285530
196,2270985258,0.622502,0.389804,-0.579544,0.353089,9.90907192230225,0.77306795120239,0.26810553669930,1.17452132701874,0.07262481004000,0.07642828673124
197,2271001925,0.622497,0.389857,-0.579492,0.353125,9.87508201599121,0.74415177106857,0.23222386837006,1.51292955875397,0.11359233409166,0.14422512054443
198,2271018592,0.622520,0.389899,-0.579422,0.353154,9.84688282012939,0.77977705001831,0.18354327976704,1.49597382545471,0.32740718126297,0.04492467641830
199,2271035259,0.622515,0.389881,-0.579499,0.353056,9.86161708831787,0.71088206768036,0.27087983489037,0.46913501620293,-0.61819458007812,0.20153352618217
200,2271051926,0.622519,0.389886,-0.579481,0.353073,9.88875770568848,0.74922603368759,0.25537297129631,1.45512151718140,0.09623972326517,0.32530692219734
201,2271068593,0.622469,0.389959,-0.579470,0.353100,9.86917686462402,0.77517610788345,0.24284350872040,1.70101642608643,-0.30496403574944,0.24850723147392
202,2271085260,0.622446,0.390010,-0.579433,0.353145,9.89076709747314,0.75956714153290,0.28515774011612,1.66784763336182,0.01841553114355,0.27604085206985
203,2271101927,0.622443,0.389986,-0.579436,0.353169,9.89725208282471,0.80347245931625,0.27278703451157,1.01047229766846,0.04547534883022,0.54581946134567
204,2271118594,0.622490,0.389942,-0.579426,0.353154,9.90515708923340,0.77450811862946,0.27872759103775,0.74630290269852,0.24958296120167,0.29728659987450
205,2271135261,0.622564,0.389890,-0.579381,0.353155,9.89913272857666,0.78351473808289,0.27269172668457,0.74216634035110,0.56855064630508,0.24458849430084
206,2271151928,0.622618,0.389895,-0.579299,0.353187,9.88351631164551,0.77693140506744,0.27737486362457,1.22805225849152,0.58706867694855,0.09693126380444
207,2271168595,0.622683,0.389880,-0.579217,0.353225,9.85794544219971,0.73018085956573,0.25889798998833,1.17585337162018,0.69711363315582,0.17019636929035
208,2271185262,0.622746,0.389795,-0.579195,0.353242,9.87274837493896,0.74547982215881,0.25992840528488,0.74904346466064,0.55551385879517,0.53269296884537
209,2271201929,0.622807,0.389692,-0.579190,0.353256,9.88286113739014,0.77455013990402,0.23597200214863,0.55710184574127,0.50346881151199,0.64148283004761
210,2271218596,0.622874,0.389610,-0.579169,0.353265,9.86970043182373,0.78652387857437,0.21461273729801,0.66357380151749,0.53721362352371,0.47753593325615
211,2271235263,0.622931,0.389557,-0.579145,0.353261,9.88103199005127,0.74994903802872,0.22665207087994,0.76975119113922,0.39794448018074,0.31643208861351
212,2271251930,0.622978,0.389537,-0.579111,0.353257,9.87483978271484,0.75873410701752,0.24634543061256,0.99434900283813,0.32774010300636,0.19176226854324
213,2271268597,0.622970,0.389585,-0.579071,0.353284,9.86530494689941,0.74301266670227,0.23535455763340,1.43493866920471,0.04237620905042,0.16521471738815
214,2271285264,0.622979,0.389599,-0.579040,0.353301,9.90598869323730,0.75749748945236,0.25131845474243,1.34693348407745,0.13679741322994,0.24469093978405
215,2271301931,0.623010,0.389585,-0.579024,0.353290,9.86587715148926,0.77100312709808,0.25807014107704,0.96079641580582,0.15258768200874,0.21786163747311
216,2271318598,0.623062,0.389552,-0.578995,0.353282,9.88106536865234,0.78504741191864,0.26603984832764,0.89014369249344,0.34418341517448,0.23086005449295
217,2271335265,0.623106,0.389523,-0.578975,0.353268,9.84430694580078,0.78435355424881,0.24236768484116,0.85999768972397,0.25204178690910,0.22470022737980
218,2271351932,0.623116,0.389524,-0.578963,0.353270,9.86926937103271,0.77154505252838,0.25284525752068,1.10272920131683,0.03831659629941,0.27538773417473
219,2271368599,0.623115,0.389574,-0.578926,0.353276,9.87693119049072,0.77824121713638,0.26537328958511,1.42523133754730,0.00523779680952,0.06217482686043
220,2271385266,0.623111,0.389617,-0.578881,0.353310,9.88274383544922,0.76510024070740,0.29095572233200,1.52795135974884,0.11775439977646,0.19071216881275
221,2271401933,0.623137,0.389627,-0.578836,0.353326,9.89787292480469,0.75329804420471,0.27418014407158,1.24901616573334,0.26763993501663,0.17652273178101
222,2271418600,0.623174,0.389619,-0.578793,0.353339,9.89734554290771,0.75663012266159,0.27584928274155,1.15926933288574,0.34309494495392,0.21752867102623
223,2271435267,0.623223,0.389591,-0.578749,0.353359,9.89134597778320,0.76041972637177,0.25662839412689,1.11600935459137,0.46119508147240,0.29019188880920
224,2271451934,0.623270,0.389566,-0.578711,0.353363,9.89688587188721,0.75391018390656,0.24300992488861,1.00897383689880,0.38128343224525,0.23128266632557
225,2271468601,0.623305,0.389562,-0.578654,0.353400,9.91379356384277,0.76890969276428,0.27778762578964,1.17422688007355,0.43708071112633,0.26972734928131
226,2271485268,0.623396,0.389560,-0.578549,0.353413,9.92257690429688,0.78489589691162,0.26681193709373,1.12916159629822,0.80722266435623,-0.10970558971167
227,2271501935,0.623557,0.389524,-0.578419,0.353382,9.91968154907227,0.76117098331451,0.27019515633583,0.77279925346375,1.15850079059601,-0.39996153116226
228,2271518602,0.623685,0.389532,-0.578259,0.353410,9.85631942749023,0.74596965312958,0.22112485766411,1.33337140083313,1.20451390743256,-0.31879481673241
229,2271535269,0.623626,0.389753,-0.578125,0.353489,9.80926132202148,0.76866626739502,0.21156293153763,3.00675225257874,-0.01659062877297,-0.42486989498138
230,2271551936,0.623734,0.389761,-0.578055,0.353404,9.94678878784180,0.73410218954086,0.46972158551216,0.69039028882980,0.43422487378120,-0.51325929164886
231,2271568603,0.623885,0.389593,-0.578069,0.353300,9.76539230346680,0.76919567584991,0.17419348657131,-0.45230105519295,0.62057006359100,0.22468742728233
232,2271585270,0.623990,0.389487,-0.578098,0.353185,9.82229995727539,0.75504106283188,0.25273773074150,-0.15473270416260,0.19778124988079,0.08147399127483
233,2271601937,0.623943,0.389455,-0.578244,0.353064,9.80672168731689,0.71548318862915,0.27888789772987,0.30343362689018,-1.09719026088715,0.44604513049126
234,2271618604,0.623760,0.389508,-0.578380,0.353106,9.87051391601562,0.78415739536285,0.35301762819290,1.67629992961884,-1.37465286254883,1.10946536064148
235,2271635271,0.623573,0.389679,-0.578421,0.353180,9.87612915039062,0.77988928556442,0.30671364068985,2.53490185737610,-1.18531095981598,0.53024697303772
236,2271651938,0.623384,0.389821,-0.578506,0.353218,9.88458919525146,0.79869592189789,0.31420761346817,2.18795180320740,-1.39879274368286,0.61574214696884
237,2271668605,0.623276,0.389859,-0.578606,0.353202,9.93059158325195,0.84164112806320,0.37071028351784,1.31420052051544,-1.03734636306763,0.64027905464172
238,2271685272,0.623232,0.389852,-0.578665,0.353191,9.91856575012207,0.81379199028015,0.30536672472954,1.00064980983734,-0.48625066876411,0.57743835449219
239,2271701939,0.623190,0.389900,-0.578681,0.353185,9.88246059417725,0.79524898529053,0.26409789919853,1.36263394355774,-0.41803127527237,0.25818884372711
240,2271718606,0.623111,0.390045,-0.578652,0.353213,9.87472343444824,0.78943049907684,0.25805905461311,2.06524181365967,-0.51890695095062,-0.01044357847422
241,2271735273,0.623025,0.390160,-0.578625,0.353282,9.85425472259521,0.74943280220032,0.26523429155350,2.21831583976746,-0.36109426617622,0.30407392978668
242,2271751940,0.622957,0.390181,-0.578656,0.353329,9.86628246307373,0.75640100240707,0.26631182432175,1.47981226444244,-0.37701255083084,0.70078909397125
243,2271768607,0.622952,0.390107,-0.578729,0.353299,9.87641811370850,0.77312314510345,0.27897247672081,0.51248449087143,-0.27609845995903,0.70217210054398
244,2271785274,0.622968,0.390015,-0.578816,0.353229,9.89191436767578,0.79631406068802,0.28104341030121,0.30794149637222,-0.31364670395851,0.58850300312042
245,2271801941,0.622986,0.389953,-0.578852,0.353207,9.90026187896729,0.80267614126205,0.26066973805428,0.57387810945511,-0.04152458533645,0.53992849588394
246,2271818608,0.623027,0.389893,-0.578867,0.353176,9.91528892517090,0.78107225894928,0.29031294584274,0.56565642356873,0.10996811836958,0.37785133719444
247,2271835275,0.623066,0.389868,-0.578831,0.353196,9.87282848358154,0.74772500991821,0.18685613572598,1.07286477088928,0.38302510976791,0.32199007272720
248,2271851942,0.623174,0.389765,-0.578795,0.353178,9.86150836944580,0.79512494802475,0.26064851880074,0.45849287509918,0.74144923686981,0.30967035889626
249,2271868609,0.623222,0.389701,-0.578835,0.353097,9.82569408416748,0.74204546213150,0.22433514893055,0.27223736047745,-0.09066255390644,0.22336831688881
250,2271885276,0.623258,0.389641,-0.578842,0.353088,9.90169811248779,0.73317629098892,0.28661790490150,0.68868702650070,0.18515421450138,0.46677860617638
251,2271901943,0.623247,0.389673,-0.578790,0.353158,9.86583995819092,0.75735956430435,0.24314762651920,1.60039675235748,0.24131003022194,0.38645723462105
252,2271918610,0.623233,0.389745,-0.578703,0.353247,9.89241600036621,0.73734366893768,0.28333300352097,2.00715160369873,0.33259364962578,0.22662112116814
253,2271935277,0.623245,0.389721,-0.578681,0.353286,9.88794231414795,0.77543526887894,0.29872468113899,1.26141273975372,0.26167213916779,0.50550508499146
254,2271951944,0.623327,0.389563,-0.578704,0.353278,9.89768600463867,0.79232752323151,0.27843317389488,0.32465374469757,0.56099492311478,0.79328930377960
255,2271968611,0.623434,0.389376,-0.578718,0.353273,9.91941165924072,0.81176096200943,0.30645221471786,0.01602074317634,0.76103007793427,0.83106803894043
256,2271985278,0.623543,0.389247,-0.578656,0.353323,9.89415931701660,0.78970009088516,0.32789915800095,0.70154464244843,1.10678875446320,0.62798494100571
257,2272001945,0.623657,0.389205,-0.578542,0.353358,9.86589145660400,0.76972556114197,0.29561522603035,1.01182973384857,1.09094727039337,0.06948725879192
258,2272018612,0.623773,0.389159,-0.578430,0.353387,9.86239337921143,0.74582099914551,0.29314452409744,1.01426279544830,1.08609366416931,0.05810241401196
259,2272035279,0.623856,0.389091,-0.578371,0.353411,9.86726665496826,0.75237518548965,0.30689793825150,0.83907204866409,0.76378351449966,0.34251862764359
260,2272051946,0.623939,0.389000,-0.578329,0.353433,9.85465240478516,0.77587896585464,0.26374772191048,0.61766302585602,0.74080896377563,0.46932712197304
261,2272068613,0.624013,0.388938,-0.578299,0.353418,9.84935092926025,0.79706066846848,0.27727636694908,0.70514321327209,0.48766580224037,0.25579401850700
262,2272085280,0.624066,0.388903,-0.578254,0.353437,9.87054443359375,0.76503092050552,0.30087080597878,0.89305078983307,0.48204374313354,0.30196091532707
263,2272101947,0.624104,0.388920,-0.578181,0.353472,9.86977958679199,0.76373815536499,0.27613636851311,1.40782761573792,0.47419351339340,0.12609131634235
264,2272118614,0.624113,0.389005,-0.578085,0.353519,9.87604331970215,0.74945908784866,0.28477233648300,1.81497979164124,0.31727731227875,-0.08324767649174
265,2272135281,0.624129,0.389091,-0.577986,0.353558,9.88523578643799,0.76561307907104,0.30375567078590,1.84227025508881,0.33565440773964,-0.15162077546120
266,2272151948,0.624145,0.389131,-0.577932,0.353574,9.87371253967285,0.77835100889206,0.30459222197533,1.48727834224701,0.20071391761303,0.06168818846345
267,2272168615,0.624182,0.389116,-0.577885,0.353602,9.88552570343018,0.78170859813690,0.33858788013458,1.14345335960388,0.40707543492317,0.29563459753990
268,2272185282,0.624258,0.389098,-0.577796,0.353634,9.88446426391602,0.79945868253708,0.30837911367416,1.08706712722778,0.76711320877075,0.11195310950279
269,2272201949,0.624325,0.389107,-0.577699,0.353663,9.86948966979980,0.78760129213333,0.30447727441788,1.27590930461884,0.68779069185257,-0.00056988256983
270,2272218616,0.624392,0.389148,-0.577583,0.353689,9.86691188812256,0.75660717487335,0.26227024197578,1.45404577255249,0.68280893564224,-0.20005440711975
271,2272235283,0.624431,0.389184,-0.577498,0.353720,9.86947441101074,0.75312864780426,0.29642301797867,1.43596303462982,0.46287274360657,0.00038419049815
272,2272251950,0.624448,0.389214,-0.577427,0.353772,9.88642692565918,0.78057098388672,0.31800773739815,1.53336846828461,0.38878801465034,0.20455583930016
273,2272268617,0.624502,0.389221,-0.577345,0.353803,9.89822483062744,0.78662914037704,0.33819431066513,1.32823622226715,0.58120340108871,0.08690389245749
274,2272285284,0.624618,0.389204,-0.577214,0.353833,9.88131237030029,0.76769113540649,0.31831809878349,1.08559417724609,1.09503245353699,-0.10935983061790
275,2272301951,0.624624,0.389278,-0.577096,0.353931,9.89188957214355,0.76041585206985,0.23430596292019,2.08393883705139,0.57079184055328,0.12943378090858
276,2272318618,0.624545,0.389515,-0.577008,0.353955,9.82811355590820,0.80433225631714,0.30002778768539,2.72866177558899,-0.49171897768974,-0.54541599750519
277,2272335285,0.624654,0.389505,-0.576916,0.353923,9.98167800903320,0.72249400615692,0.47412165999413,0.87709403038025,0.71910214424133,-0.28055509924889
278,2272351952,0.624811,0.389340,-0.576896,0.353859,9.77521705627441,0.80238264799118,0.16503745317459,-0.19799257814884,0.89401131868362,0.27793619036674
279,2272368619,0.624916,0.389219,-0.576936,0.353744,9.84671497344971,0.74000668525696,0.31332582235336,-0.23465712368488,0.18346375226974,0.16550926864147
280,2272385286,0.624889,0.389079,-0.577089,0.353693,9.84914112091064,0.75940883159637,0.27867248654366,-0.00457827048376,-0.60751408338547,1.14486217498779
281,2272401953,0.624751,0.389093,-0.577172,0.353788,9.92578792572021,0.79205352067947,0.31203249096870,1.75613486766815,-0.73068553209305,1.23828434944153
282,2272418620,0.624641,0.389263,-0.577121,0.353877,9.87924575805664,0.78580611944199,0.29241386055946,2.74150681495667,-0.42780256271362,0.17233505845070
283,2272435287,0.624524,0.389484,-0.577060,0.353941,9.88157844543457,0.78966999053955,0.32818815112114,2.76889944076538,-0.61770790815353,-0.14794537425041
284,2272451954,0.624465,0.389643,-0.576986,0.353989,9.92224216461182,0.81079214811325,0.35508346557617,2.32431435585022,-0.22041650116444,-0.14891864359379
285,2272468621,0.624502,0.389733,-0.576865,0.354022,9.89466381072998,0.77494573593140,0.30175009369850,1.84621429443359,0.48725593090057,-0.29701125621796
286,2272485288,0.624528,0.389792,-0.576779,0.354053,9.85834598541260,0.78644967079163,0.29580971598625,1.61892747879028,0.36613351106644,-0.06545965373516
287,2272501955,0.624505,0.389898,-0.576705,0.354096,9.85845947265625,0.79669815301895,0.31666758656502,2.07359123229980,0.04167186096311,-0.04102513939142
288,2272518622,0.624450,0.390005,-0.576641,0.354179,9.84768390655518,0.78648459911346,0.30533283948898,2.32964158058167,-0.01799932494760,0.22662116587162
289,2272535289,0.624413,0.390061,-0.576601,0.354251,9.85432147979736,0.79017579555511,0.29380944371223,1.82482790946960,0.03716402873397,0.39880251884460
290,2272551956,0.624413,0.390105,-0.576571,0.354250,9.88214874267578,0.80358678102493,0.30596795678139,1.38806748390198,-0.02523491159081,0.07500679045916
291,2272568623,0.624442,0.390119,-0.576547,0.354222,9.88767623901367,0.81696462631226,0.31894600391388,1.17271590232849,0.07142100483179,0.01969616301358
292,2272585290,0.624479,0.390150,-0.576497,0.354204,9.89589786529541,0.81606328487396,0.35558325052261,1.25143659114838,0.19493824243546,-0.08974049240351
293,2272601957,0.624551,0.390174,-0.576394,0.354217,9.94185924530029,0.80350297689438,0.32745048403740,1.36862754821777,0.65843850374222,-0.16021385788918
294,2272618624,0.624662,0.390218,-0.576244,0.354217,9.83989143371582,0.80951088666916,0.32913398742676,1.39577686786652,0.93844920396805,-0.51356661319733
295,2272635291,0.624789,0.390227,-0.576129,0.354172,9.83138084411621,0.77508538961411,0.24829079210758,1.04653489589691,0.81243485212326,-0.51473200321198
296,2272651958,0.624855,0.390195,-0.576123,0.354098,9.82928752899170,0.73592627048492,0.32635751366615,0.55633342266083,0.12456736713648,-0.03054954484105
297,2272668625,0.624886,0.390233,-0.576029,0.354156,9.88549232482910,0.77464407682419,0.32469028234482,1.65534877777100,0.54309171438217,0.09876257926226
298,2272685292,0.624894,0.390251,-0.576021,0.354135,9.86045646667480,0.83236455917358,0.33177277445793,1.10429143905640,-0.08247929066420,0.13487647473812
299,2272701959,0.624950,0.390186,-0.576012,0.354121,9.87860965728760,0.82200324535370,0.37359863519669,0.69665259122849,0.33812606334686,0.36702996492386
300,2272718626,0.625048,0.390073,-0.576014,0.354070,9.90186595916748,0.84236884117126,0.34314808249474,0.28043344616890,0.47794580459595,0.32925128936768
301,2272735293,0.625176,0.389992,-0.575954,0.354030,9.90312671661377,0.81725180149078,0.32033035159111,0.36416137218475,0.80636453628540,0.00540427910164
302,2272751960,0.625316,0.389944,-0.575856,0.353996,9.86794567108154,0.82306057214737,0.35324874520302,0.66799205541611,0.95545619726181,-0.22818996012211
303,2272768627,0.625434,0.389949,-0.575732,0.353983,9.87427616119385,0.80406028032303,0.38167384266853,1.07751345634460,0.90916126966476,-0.36056920886040
304,2272785294,0.625560,0.389891,-0.575636,0.353981,9.86447620391846,0.76803499460220,0.34684646129608,0.77619290351868,1.00196886062622,-0.01087899412960
305,2272801961,0.625671,0.389754,-0.575614,0.353971,9.84312057495117,0.79561692476273,0.34414869546890,0.24028553068638,0.79576092958450,0.50077950954437
306,2272818628,0.625788,0.389601,-0.575610,0.353940,9.84799194335938,0.82191634178162,0.33309364318848,0.20727077126503,0.73399585485458,0.51308637857437
307,2272835295,0.625892,0.389514,-0.575562,0.353931,9.84771728515625,0.83722501993179,0.34046882390976,0.48899769783020,0.75782847404480,0.25573000311852
308,2272851962,0.625966,0.389473,-0.575522,0.353910,9.86620140075684,0.82641971111298,0.31801259517670,0.74134677648544,0.46230921149254,0.11269586533308
309,2272868629,0.626044,0.389435,-0.575477,0.353886,9.88676929473877,0.80139547586441,0.32921996712685,0.79430109262466,0.48457950353622,0.06969216465950
310,2272885296,0.626109,0.389407,-0.575453,0.353842,9.85822677612305,0.80242937803268,0.29524451494217,0.72631210088730,0.26977854967117,0.03414172679186
311,2272901963,0.626156,0.389350,-0.575468,0.353797,9.85758972167969,0.79166859388351,0.31922298669815,0.51271492242813,0.08722403645515,0.28713116049767
312,2272918630,0.626213,0.389279,-0.575496,0.353727,9.85561275482178,0.81496399641037,0.32323190569878,0.39852076768875,0.05420927330852,0.25155511498451
313,2272935297,0.626249,0.389229,-0.575526,0.353670,9.85294055938721,0.81211733818054,0.33525153994560,0.50106126070023,-0.06835388392210,0.27601522207260
314,2272951964,0.626290,0.389183,-0.575535,0.353633,9.83576488494873,0.80312669277191,0.31136983633041,0.63819152116776,0.09086104482412,0.27721905708313
315,2272968631,0.626310,0.389178,-0.575544,0.353589,9.83557605743408,0.79868471622467,0.30881470441818,0.89841663837433,-0.10798954218626,0.14459648728371
316,2272985298,0.626297,0.389175,-0.575584,0.353550,9.85797023773193,0.80746775865555,0.30750578641891,1.02462327480316,-0.35493439435959,0.31416541337967
317,2273001965,0.626282,0.389176,-0.575619,0.353520,9.88967704772949,0.82774162292480,0.31346783041954,1.01549232006073,-0.33607062697411,0.33105692267418
318,2273018632,0.626267,0.389184,-0.575642,0.353498,9.88237857818604,0.80941402912140,0.34421363472939,1.09290671348572,-0.27663633227348,0.30529054999352
319,2273035299,0.626286,0.389194,-0.575614,0.353502,9.88863468170166,0.82600402832031,0.38670015335083,1.16836166381836,0.13099615275860,0.18552559614182
320,2273051966,0.626253,0.389235,-0.575599,0.353537,9.90921878814697,0.83042222261429,0.35852414369583,1.59189331531525,-0.11495620757341,0.36062681674957
321,2273068633,0.626130,0.389484,-0.575529,0.353595,9.79621124267578,0.78404814004898,0.22758862376213,2.95587229728699,-0.67586159706116,-0.29031360149384
322,2273085300,0.626158,0.389462,-0.575578,0.353490,9.94576168060303,0.80230420827866,0.44032052159309,0.34977984428406,-0.38161003589630,0.02702139876783
323,2273101967,0.626317,0.389129,-0.575815,0.353190,9.77428817749023,0.81932806968689,0.26678365468979,-2.51276612281799,-0.42503637075424,0.60709786415100
324,2273118634,0.626297,0.388949,-0.576013,0.353101,9.84220695495605,0.79206836223602,0.27739515900612,-0.45683455467224,-0.78194934129715,1.24067938327789
325,2273135301,0.626164,0.388847,-0.576293,0.352991,9.86902141571045,0.83394306898117,0.32924216985703,0.05609181523323,-1.81414115428925,1.33501064777374
326,2273151968,0.625982,0.388908,-0.576439,0.353008,9.91754913330078,0.80430072546005,0.35136139392853,1.62480580806732,-1.49416160583496,1.00043213367462
327,2273168635,0.625816,0.389057,-0.576480,0.353071,9.89666938781738,0.79783415794373,0.33629500865936,2.38454270362854,-1.07260227203369,0.52504760026932
328,2273185302,0.625665,0.389228,-0.576526,0.353076,9.87210083007812,0.81260919570923,0.32882696390152,2.26473903656006,-1.23975074291229,0.16889013350010
329,2273201969,0.625584,0.389288,-0.576607,0.353022,9.89448547363281,0.81847757101059,0.37521857023239,1.17257499694824,-1.00456202030182,0.27128970623016
330,2273218636,0.625541,0.389274,-0.576691,0.352976,9.88723850250244,0.80928254127502,0.31793007254601,0.72264951467514,-0.67089265584946,0.52091103792191
331,2273235303,0.625483,0.389272,-0.576760,0.352967,9.84482288360596,0.79358184337616,0.30330738425255,1.00883305072784,-0.59587305784225,0.61943036317825
332,2273251970,0.625391,0.389288,-0.576841,0.352980,9.84531879425049,0.77931672334671,0.30394557118416,1.28478419780731,-0.76280379295349,0.77119833230972
333,2273268637,0.625278,0.389269,-0.576955,0.353015,9.84237003326416,0.81108582019806,0.30067104101181,1.24685180187225,-0.83951383829117,1.13730621337891
334,2273285304,0.625177,0.389265,-0.577062,0.353024,9.85600185394287,0.81500160694122,0.26745504140854,1.17192196846008,-0.86962169408798,0.91582059860229
335,2273301971,0.625111,0.389257,-0.577182,0.352954,9.86236190795898,0.80744135379791,0.27664873003960,0.75202733278275,-0.98914331197739,0.54834234714508
336,2273318638,0.625035,0.389257,-0.577298,0.352898,9.90134143829346,0.81629288196564,0.33611562848091,0.87457120418549,-0.98906648159027,0.58683818578720
337,2273335305,0.624955,0.389275,-0.577380,0.352885,9.89966964721680,0.81326961517334,0.35008051991463,0.98779219388962,-0.80820238590240,0.61424374580383
338,2273351972,0.624853,0.389341,-0.577411,0.352942,9.89245796203613,0.77776330709457,0.20969958603382,1.94218528270721,-0.57846921682358,0.64902579784393
339,2273368639,0.624859,0.389274,-0.577496,0.352867,9.85474681854248,0.83912485837936,0.39851823449135,0.40926530957222,-0.42049005627632,0.48847255110741
340,2273385306,0.624864,0.389206,-0.577595,0.352773,9.86053943634033,0.79176503419876,0.24415852129459,0.20472230017185,-0.53860300779343,0.45667439699173
341,2273401973,0.624788,0.389239,-0.577676,0.352736,9.85989189147949,0.75186246633530,0.24221071600914,1.10505974292755,-0.87611436843872,0.43809238076210
342,2273418640,0.624667,0.389325,-0.577775,0.352694,9.85251903533936,0.77935260534286,0.33215561509132,1.41059362888336,-1.26674628257751,0.36930948495865
343,2273435307,0.624520,0.389451,-0.577845,0.352702,9.86573028564453,0.75582313537598,0.30850890278816,1.89911770820618,-1.21476566791534,0.40867623686790
344,2273451974,0.624391,0.389484,-0.577967,0.352693,9.90044498443604,0.80903321504593,0.31988736987114,1.34797072410583,-1.18121278285980,0.80138295888901
345,2273468641,0.624320,0.389466,-0.578070,0.352670,9.88306808471680,0.79912370443344,0.31734609603882,0.86855232715607,-0.79026067256927,0.75625342130661
346,2273485308,0.624296,0.389397,-0.578178,0.352612,9.88531494140625,0.81496143341064,0.30109733343124,0.40090274810791,-0.59521991014481,0.70543777942657
347,2273501975,0.624284,0.389378,-0.578237,0.352558,9.89551830291748,0.81898105144501,0.31606924533844,0.70064818859100,-0.44511666893959,0.36186900734901
348,2273518642,0.624280,0.389391,-0.578250,0.352528,9.87998962402344,0.78327804803848,0.32100257277489,1.01564598083496,-0.22509080171585,0.19575786590576
349,2273535309,0.624247,0.389397,-0.578282,0.352527,9.86352348327637,0.75382751226425,0.32397302985191,1.05666470527649,-0.34027114510536,0.47050532698631
350,2273551976,0.624204,0.389394,-0.578320,0.352545,9.87785053253174,0.76129084825516,0.27867263555527,1.17019295692444,-0.32450652122498,0.62377166748047
351,2273568643,0.624170,0.389378,-0.578365,0.352548,9.86185932159424,0.79703205823898,0.26583161950111,1.09167730808258,-0.32751601934433,0.60963350534439
352,2273585310,0.624143,0.389343,-0.578442,0.352508,9.87473487854004,0.78612941503525,0.28627410531044,0.69388639926910,-0.50256597995758,0.57518440485001
353,2273601977,0.624125,0.389321,-0.578505,0.352462,9.89125823974609,0.78102946281433,0.28086328506470,0.66671139001846,-0.46367311477661,0.42764240503311
354,2273618644,0.624105,0.389324,-0.578542,0.352432,9.87870502471924,0.78010576963425,0.27290266752243,1.01824569702148,-0.36900857090950,0.34098187088966
355,2273635311,0.624050,0.389369,-0.578574,0.352427,9.88459396362305,0.79693293571472,0.25226595997810,1.25637984275818,-0.53310912847519,0.35097083449364
356,2273651978,0.623992,0.389392,-0.578636,0.352402,9.87716388702393,0.79064190387726,0.28048875927925,1.11924934387207,-0.66386193037033,0.43895044922829
357,2273668645,0.623941,0.389401,-0.578693,0.352390,9.87038326263428,0.81743896007538,0.30314010381699,0.96914625167847,-0.55494397878647,0.51753020286560
358,2273685312,0.623926,0.389420,-0.578716,0.352359,9.87807559967041,0.79827135801315,0.27019432187080,0.87805449962616,-0.34963253140450,0.21266223490238
359,2273701979,0.623916,0.389442,-0.578761,0.352277,9.86755371093750,0.78323453664780,0.23855347931385,0.96634149551392,-0.53664362430573,0.04824151843786
360,2273718646,0.623912,0.389476,-0.578783,0.352211,9.86683273315430,0.76977598667145,0.23763719201088,0.95184469223022,-0.41514983773232,-0.01761513389647
361,2273735313,0.623883,0.389500,-0.578821,0.352173,9.87465381622314,0.76424807310104,0.25436103343964,1.06619262695312,-0.48391991853714,0.24390974640846
362,2273751980,0.623844,0.389498,-0.578874,0.352158,9.89257907867432,0.76196128129959,0.26379916071892,1.00282669067383,-0.46542751789093,0.50629895925522
363,2273768647,0.623820,0.389502,-0.578892,0.352166,9.89900684356689,0.80619758367538,0.28708836436272,1.05639576911926,-0.21894377470016,0.46096456050873
364,2273785314,0.623846,0.389513,-0.578879,0.352129,9.89215373992920,0.81201732158661,0.29345199465752,0.92498981952667,-0.01208279095590,0.02891673706472
365,2273801981,0.623907,0.389508,-0.578850,0.352075,9.86873340606689,0.78366148471832,0.28567102551460,0.67489463090897,0.17949377000332,-0.10763096064329
366,2273818648,0.623709,0.389789,-0.578802,0.352194,9.82795715332031,0.75905245542526,0.05801648646593,3.41549181938171,-0.99257528781891,0.07391824573278
367,2273835315,0.623648,0.389872,-0.578880,0.352080,9.98123455047607,0.81089895963669,0.52068024873734,0.99566817283630,-1.12583816051483,-0.13175813853741
368,2273851982,0.623801,0.389756,-0.578848,0.351992,9.82680702209473,0.76539427042007,0.19740307331085,-0.06428146362305,0.74539351463318,-0.03564647212625
369,2273868649,0.623902,0.389554,-0.578954,0.351863,9.85556507110596,0.78616076707840,0.15431635081768,-0.82444077730179,0.03926426172256,0.61870038509369
370,2273885316,0.623890,0.389499,-0.579073,0.351747,9.82394886016846,0.77430546283722,0.25631010532379,0.12364531308413,-0.78477948904037,0.40208098292351
371,2273901983,0.623754,0.389520,-0.579191,0.351771,9.89279460906982,0.78057318925858,0.26780590415001,1.36397850513458,-1.08285987377167,0.99400311708450
372,2273918650,0.623582,0.389698,-0.579196,0.351870,9.88419914245605,0.79941242933273,0.27131596207619,2.62339353561401,-0.91810637712479,0.47647303342819
373,2273935317,0.623445,0.389917,-0.579193,0.351876,9.85969638824463,0.77643352746964,0.26001158356667,2.28306484222412,-1.10698735713959,-0.20063067972660
374,2273951984,0.623383,0.389982,-0.579246,0.351826,9.89399147033691,0.79701864719391,0.31198191642761,1.31813180446625,-0.80571788549423,0.15664726495743
375,2273968651,0.623360,0.389971,-0.579295,0.351798,9.89594745635986,0.79718339443207,0.29300308227539,0.78537493944168,-0.40468704700470,0.43805396556854
376,2273985318,0.623335,0.389928,-0.579344,0.351809,9.88937282562256,0.79098480939865,0.24263638257980,0.87130558490753,-0.22478345036507,0.74251216650009
377,2274001985,0.623299,0.389992,-0.579321,0.351841,9.85399246215820,0.80556046962738,0.21157979965210,1.60956621170044,-0.16423505544662,0.24184793233871
378,2274018652,0.623222,0.390155,-0.579243,0.351926,9.85874271392822,0.79026389122009,0.22947235405445,2.36862421035767,-0.19669915735722,0.01970897242427
379,2274035319,0.623177,0.390252,-0.579217,0.351939,9.82728576660156,0.75540304183960,0.23787294328213,1.90785157680511,-0.30571958422661,0.04366965219378
380,2274051986,0.623144,0.390291,-0.579236,0.351923,9.87647438049316,0.79006367921829,0.22430132329464,1.22705304622650,-0.39600437879562,0.23983731865883
381,2274068653,0.623113,0.390301,-0.579291,0.351876,9.90190601348877,0.83121335506439,0.26785135269165,0.94822067022324,-0.54953962564468,0.31238529086113
382,2274085320,0.623102,0.390288,-0.579315,0.351872,9.90261936187744,0.82069766521454,0.26911360025406,0.94339257478714,-0.18197181820869,0.45244833827019
383,2274101987,0.623116,0.390253,-0.579307,0.351899,9.90199279785156,0.81553560495377,0.27470907568932,1.01157367229462,0.19927963614464,0.53506213426590
384,2274118654,0.623143,0.390266,-0.579234,0.351955,9.86961746215820,0.75332498550415,0.17005144059658,1.46315109729767,0.49231454730034,0.25662645697594
385,2274135321,0.623157,0.390307,-0.579157,0.352011,9.83462142944336,0.80396401882172,0.24915713071823,1.68923449516296,0.39050403237343,0.16635449230671
386,2274151988,0.623136,0.390333,-0.579191,0.351966,9.84642982482910,0.79103577136993,0.28197807073593,1.02021777629852,-0.45542579889297,0.18124826252460
387,2274168655,0.623149,0.390294,-0.579197,0.351975,9.89833831787109,0.76460164785385,0.27064415812492,0.96453583240509,0.09374247491360,0.50964146852493
388,2274185322,0.623131,0.390307,-0.579186,0.352012,9.83641338348389,0.80235993862152,0.21496461331844,1.32911980152130,-0.00455265771598,0.44975903630257
389,2274201989,0.623087,0.390357,-0.579171,0.352058,9.88370609283447,0.78885477781296,0.24093857407570,1.63099122047424,-0.15689700841904,0.39829030632973
390,2274218656,0.623047,0.390357,-0.579189,0.352099,9.86369323730469,0.81473201513290,0.24886730313301,1.24741542339325,-0.17897514998913,0.64999914169312
391,2274235323,0.623067,0.390312,-0.579209,0.352081,9.86324214935303,0.79450303316116,0.25409585237503,0.78363335132599,0.01407417841256,0.44203674793243
392,2274251990,0.623104,0.390242,-0.579218,0.352078,9.86984920501709,0.81113040447235,0.25632506608963,0.59710884094238,0.21678587794304,0.53503644466400
393,2274268657,0.623148,0.390159,-0.579237,0.352061,9.89008331298828,0.79852777719498,0.27173453569412,0.61713796854019,0.20967835187912,0.52690446376801
394,2274285324,0.623197,0.390076,-0.579235,0.352069,9.85855865478516,0.77664351463318,0.26761698722839,0.68779063224792,0.38207742571831,0.57245659828186
395,2274301991,0.623238,0.389971,-0.579256,0.352079,9.87054634094238,0.77027571201324,0.25892010331154,0.59681439399719,0.31346103549004,0.75766205787659
396,2274318658,0.623279,0.389875,-0.579286,0.352062,9.86263084411621,0.78282463550568,0.22629559040070,0.38425451517105,0.17154105007648,0.62411737442017
397,2274335325,0.623291,0.389810,-0.579328,0.352046,9.86867237091064,0.80656743049622,0.23419524729252,0.67534279823303,-0.06111830100417,0.60098916292191
398,2274351992,0.623295,0.389794,-0.579339,0.352037,9.88188171386719,0.79342490434647,0.23675265908241,0.93924325704575,-0.06647135317326,0.38143712282181
399,2274368659,0.623296,0.389786,-0.579355,0.352018,9.86540222167969,0.76358503103256,0.23652069270611,0.95741546154022,-0.14265632629395,0.32315540313721
400,2274385326,0.623285,0.389757,-0.579381,0.352027,9.87219333648682,0.76884227991104,0.27050071954727,0.82809692621231,-0.11831145733595,0.57804018259048
401,2274401993,0.623263,0.389727,-0.579429,0.352019,9.87892627716064,0.78090119361877,0.24264867603779,0.88219100236893,-0.28861027956009,0.59928590059280
402,2274418660,0.623259,0.389678,-0.579468,0.352018,9.87662315368652,0.79227590560913,0.27256110310555,0.79579931497574,-0.11330416798592,0.63203179836273
403,2274435327,0.623256,0.389650,-0.579498,0.352004,9.88011169433594,0.80048114061356,0.26566192507744,0.83318108320236,-0.16454237699509,0.47259268164635
404,2274451994,0.623256,0.389623,-0.579526,0.351988,9.87044143676758,0.78310489654541,0.25278133153915,0.82921117544174,-0.13752099871635,0.44682639837265
405,2274468661,0.623271,0.389598,-0.579544,0.351959,9.87487030029297,0.77234643697739,0.25175124406815,0.83750969171524,-0.08769147843122,0.31955686211586
406,2274485328,0.623290,0.389588,-0.579546,0.351934,9.86540794372559,0.77329367399216,0.24117721617222,0.97795683145523,-0.01548928022385,0.22740237414837
407,2274501995,0.623299,0.389554,-0.579578,0.351903,9.88608646392822,0.77218204736710,0.23538883030415,0.73471307754517,-0.14863689243793,0.39754751324654
408,2274518662,0.623295,0.389496,-0.579625,0.351895,9.87439155578613,0.75855618715286,0.21612134575844,0.76663929224014,-0.14060731232166,0.66303586959839
409,2274535329,0.623277,0.389472,-0.579658,0.351900,9.87439250946045,0.77542454004288,0.24946895241737,0.98944413661957,-0.18960438668728,0.57979464530945
410,2274551996,0.623268,0.389464,-0.579675,0.351897,9.88315963745117,0.77900338172913,0.27574923634529,1.15039432048798,-0.13594581186771,0.42291688919067
411,2274568663,0.623252,0.389514,-0.579650,0.351911,9.89243412017822,0.77670902013779,0.27153179049492,1.40613710880280,-0.09079060703516,0.15937501192093
412,2274585330,0.623306,0.389502,-0.579612,0.351892,9.87255096435547,0.76768177747726,0.27903437614441,0.84203028678894,0.30358731746674,0.06569656729698
413,2274601997,0.623221,0.389583,-0.579597,0.351977,9.86576175689697,0.74921417236328,0.11333069205284,1.99370539188385,-0.29395052790642,0.53396070003510
414,2274618664,0.623090,0.389669,-0.579696,0.351951,9.85023689270020,0.84660613536835,0.36956197023392,1.53283035755157,-1.26834726333618,0.46493449807167
415,2274635331,0.623179,0.389598,-0.579665,0.351922,9.94039726257324,0.72346317768097,0.27828258275986,0.43400710821152,0.53013163805008,0.19376005232334
416,2274651998,0.623268,0.389355,-0.579813,0.351790,9.81754493713379,0.79932910203934,0.15229782462120,-1.25495171546936,-0.10797671973705,0.90957099199295
417,2274668665,0.623316,0.389295,-0.579843,0.351722,9.81967544555664,0.77059394121170,0.21416145563126,0.40921407938004,-0.01911347545683,0.24406339228153
418,2274685332,0.623214,0.389246,-0.579997,0.351703,9.88055610656738,0.75286245346069,0.23730537295341,0.61703556776047,-1.05325186252594,1.10290849208832
419,2274701999,0.623063,0.389264,-0.580102,0.351777,9.90617179870605,0.79588139057159,0.25426965951920,1.58075189590454,-0.94784283638000,1.22032999992371
420,2274718666,0.622924,0.389411,-0.580100,0.351866,9.86275577545166,0.76041764020920,0.24561546742916,2.26698017120361,-0.71935188770294,0.45787829160690
421,2274735333,0.622812,0.389521,-0.580134,0.351884,9.89141750335693,0.79185831546783,0.25593480467796,1.87616872787476,-0.85883861780167,0.32876458764076
422,2274752000,0.622768,0.389583,-0.580146,0.351874,9.90011787414551,0.79580461978912,0.26099187135696,1.40641891956329,-0.45099478960037,0.18246486783028
423,2274768667,0.622756,0.389586,-0.580165,0.351862,9.90617084503174,0.75798660516739,0.22578415274620,1.03660988807678,-0.21406453847885,0.35081711411476
424,2274785334,0.622731,0.389609,-0.580163,0.351883,9.86924743652344,0.76824969053268,0.21627679467201,1.32088530063629,-0.13850706815720,0.38182133436203
425,2274802001,0.622664,0.389697,-0.580150,0.351926,9.85529136657715,0.75301879644394,0.22028964757919,1.90780031681061,-0.35535699129105,0.29649260640144
426,2274818668,0.622603,0.389732,-0.580150,0.351995,9.82990360260010,0.75494772195816,0.21940395236015,1.68441927433014,-0.18437944352627,0.63354301452637
427,2274835335,0.622576,0.389704,-0.580191,0.352005,9.85757923126221,0.77316606044769,0.21874409914017,1.01440382003784,-0.24027912318707,0.66164004802704
428,2274852002,0.622572,0.389672,-0.580247,0.351957,9.86979961395264,0.77878350019455,0.21833932399750,0.68393588066101,-0.34960693120956,0.41110941767693
429,2274868669,0.622563,0.389662,-0.580281,0.351927,9.89079189300537,0.79600971937180,0.25732862949371,0.85044401884079,-0.28475561738014,0.36002489924431
430,2274885336,0.622589,0.389628,-0.580285,0.351914,9.90709590911865,0.77815538644791,0.25863426923752,0.94299554824829,0.09182152897120,0.35839849710464
431,2274902003,0.622659,0.389576,-0.580241,0.351919,9.93031215667725,0.75460821390152,0.25361084938049,0.91451430320740,0.56878119707108,0.27294173836708
432,2274918670,0.622699,0.389589,-0.580154,0.351976,9.85519790649414,0.73996186256409,0.22030344605446,1.31758129596710,0.59806936979294,0.19274836778641
433,2274935337,0.622761,0.389560,-0.580100,0.351990,9.82022762298584,0.80420488119125,0.21946218609810,0.96781420707703,0.53147625923157,0.21130476891994
434,2274952004,0.622828,0.389454,-0.580159,0.351889,9.87762069702148,0.72836613655090,0.26850163936615,-0.10880912840366,-0.04740269854665,0.32190039753914
435,2274968671,0.622887,0.389348,-0.580174,0.351878,9.86402225494385,0.77291500568390,0.22994327545166,0.32649791240692,0.34406819939613,0.60447257757187
436,2274985338,0.622904,0.389312,-0.580172,0.351890,9.86169147491455,0.76648902893066,0.23464815318584,0.90388494729996,0.14697846770287,0.47847083210945
437,2275002005,0.622918,0.389292,-0.580163,0.351903,9.86989307403564,0.76235353946686,0.27332550287247,0.80589073896408,0.11479610949755,0.40372017025948
438,2275018672,0.622957,0.389189,-0.580204,0.351880,9.87975502014160,0.77335840463638,0.25054907798767,0.34401696920395,0.12016197293997,0.65337997674942
439,2275035339,0.623028,0.389044,-0.580251,0.351836,9.89376735687256,0.78149783611298,0.27978459000587,0.07717105746269,0.27264717221260,0.68210458755493
440,2275052006,0.623106,0.388930,-0.580248,0.351832,9.90572547912598,0.79512554407120,0.25524178147316,0.34587386250496,0.53946745395660,0.57432633638382
441,2275068673,0.623180,0.388865,-0.580213,0.351831,9.86923503875732,0.76326662302017,0.23870897293091,0.66098690032959,0.55005836486816,0.31182181835175
442,2275085340,0.623255,0.388831,-0.580155,0.351829,9.85887336730957,0.74876379966736,0.26461538672447,0.89348620176315,0.58241993188858,0.12061019986868
443,2275102007,0.623320,0.388783,-0.580117,0.351829,9.86411666870117,0.75045025348663,0.25889489054680,0.86487674713135,0.48747369647026,0.26505300402641
444,2275118674,0.623397,0.388712,-0.580101,0.351799,9.87964820861816,0.78308540582657,0.25605630874634,0.51581412553787,0.42141854763031,0.25849616527557
445,2275135341,0.623460,0.388673,-0.580032,0.351844,9.88499069213867,0.77393639087677,0.24002276360989,1.03328037261963,0.71244287490845,0.33970123529434
446,2275152008,0.623517,0.388661,-0.579976,0.351847,9.86906909942627,0.77052527666092,0.23863311111927,1.00445330142975,0.45370337367058,0.10937903821468
447,2275168675,0.623574,0.388642,-0.579932,0.351840,9.85896110534668,0.76558446884155,0.24525436758995,0.97229641675949,0.39910987019539,0.11683232337236
448,2275185342,0.623601,0.388664,-0.579875,0.351862,9.86720848083496,0.75692081451416,0.24335378408432,1.27765119075775,0.30758291482925,0.12194206565619
449,2275202009,0.623619,0.388723,-0.579793,0.351900,9.88843154907227,0.75310254096985,0.27395531535149,1.63243818283081,0.32475620508194,-0.00602538743988
450,2275218676,0.623646,0.388780,-0.579706,0.351933,9.89949417114258,0.74628013372421,0.25476089119911,1.61307513713837,0.38543272018433,-0.04891385510564
451,2275235343,0.623689,0.388803,-0.579634,0.351949,9.87332248687744,0.75877386331558,0.25609385967255,1.33274412155151,0.42184114456177,0.01463765930384
452,2275252010,0.623727,0.388802,-0.579580,0.351972,9.85440540313721,0.78902733325958,0.27191433310509,1.19174611568451,0.39976301789284,0.19205683469772
453,2275268677,0.623742,0.388829,-0.579517,0.352021,9.85555362701416,0.77945768833160,0.22399830818176,1.42915034294128,0.34181430935860,0.23337011039257
454,2275285344,0.623778,0.388858,-0.579446,0.352041,9.86138343811035,0.76700204610825,0.26308125257492,1.41108047962189,0.38702067732811,0.01762153580785
455,2275302011,0.623824,0.388893,-0.579368,0.352049,9.87498378753662,0.75904542207718,0.28509023785591,1.43762814998627,0.41545081138611,-0.08498934656382
456,2275318678,0.623853,0.388932,-0.579299,0.352070,9.87807273864746,0.76584404706955,0.29651379585266,1.35840797424316,0.31826338171959,0.00706910481676
457,2275335345,0.623888,0.388955,-0.579231,0.352093,9.88578033447266,0.77954804897308,0.26943492889404,1.34090161323547,0.38853180408478,0.07179239392281
458,2275352012,0.623939,0.388965,-0.579150,0.352124,9.89520359039307,0.77784222364426,0.30067220330238,1.20617890357971,0.55181282758713,0.08088490366936
459,2275368679,0.624007,0.388959,-0.579064,0.352152,9.88839054107666,0.79106873273849,0.28703248500824,1.26487040519714,0.68729120492935,0.08363826572895
460,2275385346,0.624078,0.388992,-0.578945,0.352185,9.87843894958496,0.79549986124039,0.25615897774696,1.40175747871399,0.74974775314331,-0.15382346510887
461,2275402013,0.624153,0.389021,-0.578812,0.352239,9.88471221923828,0.77763170003891,0.28738531470299,1.35451483726501,0.88243442773819,-0.08561685681343
462,2275418680,0.624251,0.389034,-0.578676,0.352275,9.85193920135498,0.75512415170670,0.25364577770233,1.17676258087158,0.97921198606491,-0.17195725440979
463,2275435347,0.624351,0.389001,-0.578592,0.352273,9.84310340881348,0.75742441415787,0.26997646689415,0.92812728881836,0.78597688674927,-0.01506667025387
464,2275452014,0.624407,0.388951,-0.578556,0.352287,9.89016628265381,0.79953497648239,0.31117290258408,0.86350649595261,0.48860064148903,0.35994806885719
465,2275468681,0.624479,0.388904,-0.578491,0.352317,9.89840602874756,0.81454288959503,0.29966518282890,0.99340140819550,0.71354424953461,0.29761958122253
466,2275485348,0.624575,0.388880,-0.578396,0.352330,9.89399051666260,0.81891548633575,0.29086196422577,1.07529807090759,0.83863663673401,-0.00091565412004
467,2275502015,0.624673,0.388905,-0.578256,0.352358,9.86440658569336,0.78708028793335,0.29922446608543,1.35127472877502,0.95719778537750,-0.25705549120903
468,2275518682,0.624545,0.389188,-0.578094,0.352539,9.83966445922852,0.77172976732254,0.10539316385984,3.66951870918274,-0.06966014206409,-0.14383454620838
469,2275535349,0.624550,0.389288,-0.578081,0.352440,9.91281318664551,0.77090787887573,0.55437713861465,1.08131706714630,-0.48544386029243,-0.53873109817505
470,2275552016,0.624705,0.389209,-0.577945,0.352476,9.82428741455078,0.74829179048538,0.17732439935207,0.73800426721573,1.42995703220367,0.05746208131313
471,2275568683,0.624847,0.388964,-0.578072,0.352287,9.80671787261963,0.75799548625946,0.24221271276474,-1.34936034679413,0.06408298015594,0.48762744665146
472,2275585350,0.624883,0.388808,-0.578182,0.352215,9.80071926116943,0.79037362337112,0.27388030290604,-0.29861205816269,-0.19448362290859,0.84847187995911
473,2275602017,0.624758,0.388748,-0.578320,0.352277,9.93088245391846,0.80001658201218,0.29477646946907,0.98181152343750,-0.83362287282944,1.50926673412323
474,2275618684,0.624638,0.388927,-0.578229,0.352440,9.88885593414307,0.78676623106003,0.29623210430145,2.94893097877502,-0.13453713059425,0.36646652221680
475,2275635351,0.624508,0.389183,-0.578141,0.352531,9.88378810882568,0.77064985036850,0.31746050715446,3.19088101387024,-0.56229472160339,-0.21807289123535
476,2275652018,0.624440,0.389365,-0.578064,0.352579,9.92200279235840,0.79815101623535,0.34163075685501,2.48185801506042,-0.29959815740585,-0.22384859621525
477,2275668685,0.624435,0.389443,-0.577996,0.352613,9.91838455200195,0.77221059799194,0.30686691403389,1.78325867652893,0.12737195193768,-0.00121020013466
478,2275685352,0.624459,0.389469,-0.577944,0.352628,9.86531639099121,0.77014392614365,0.25436803698540,1.46559703350067,0.26182582974434,0.09461330622435
479,2275702019,0.624437,0.389589,-0.577859,0.352672,9.85426139831543,0.77660918235779,0.26930540800095,2.02974200248718,0.05664248019457,-0.13028538227081
480,2275718686,0.624377,0.389731,-0.577757,0.352789,9.84966182708740,0.78854280710220,0.29877457022667,2.42107892036438,0.10791911929846,0.13888487219810
481,2275735353,0.624332,0.389793,-0.577714,0.352871,9.84496021270752,0.78705567121506,0.26287987828255,1.95450496673584,0.02853254601359,0.43335404992104
482,2275752020,0.624328,0.389814,-0.577693,0.352888,9.86767387390137,0.80426961183548,0.28172910213470,1.32096219062805,0.02640669606626,0.27420955896378
483,2275768687,0.624357,0.389842,-0.577657,0.352865,9.90252780914307,0.80802506208420,0.31611606478691,1.37751495838165,0.10642075538635,-0.04257470741868
484,2275785354,0.624389,0.389908,-0.577576,0.352868,9.90349292755127,0.79973471164703,0.31007593870163,1.63247668743134,0.28998699784279,-0.21105505526066
485,2275802021,0.624455,0.389935,-0.577479,0.352881,9.90392398834229,0.79368865489960,0.33768782019615,1.37199532985687,0.59794121980667,-0.13615071773529
486,2275818688,0.624548,0.389941,-0.577335,0.352946,9.94320869445801,0.77502244710922,0.28125140070915,1.48061859607697,1.10395848751068,-0.02492755651474
487,2275835355,0.624671,0.389926,-0.577216,0.352939,9.81897354125977,0.82366716861725,0.35626241564751,0.97136157751083,0.96716117858887,-0.25773417949677
488,2275852022,0.624793,0.389885,-0.577129,0.352909,9.81728172302246,0.78091853857040,0.22645829617977,0.66774868965149,0.82721334695816,-0.16113589704037
489,2275868689,0.624859,0.389782,-0.577177,0.352828,9.85405349731445,0.77556496858597,0.37521192431450,0.09316618740559,0.04853606224060,0.36199706792831
490,2275885356,0.624908,0.389844,-0.577025,0.352922,9.83732509613037,0.79040509462357,0.29469946026802,1.98303771018982,0.89830148220062,-0.03528789803386
491,2275902023,0.624903,0.389915,-0.576979,0.352927,9.88405609130859,0.79457330703735,0.29470926523209,1.54463779926300,-0.02485072053969,-0.04083304479718
492,2275918690,0.624969,0.389887,-0.576936,0.352911,9.88876819610596,0.82034730911255,0.33955630660057,0.87842589616776,0.42547816038132,0.09574026614428
493,2275935357,0.625087,0.389761,-0.576928,0.352854,9.89374923706055,0.81680214405060,0.32435128092766,0.09083543717861,0.61073482036591,0.28309717774391
494,2275952024,0.625232,0.389605,-0.576906,0.352806,9.89417648315430,0.82668131589890,0.31380105018616,-0.08258174359798,0.87381559610367,0.33219668269157
495,2275968691,0.625381,0.389493,-0.576846,0.352763,9.86440849304199,0.84432989358902,0.31063285470009,0.30390751361847,0.96495848894119,0.07071665674448
496,2275985358,0.625510,0.389432,-0.576768,0.352730,9.86251831054688,0.78763937950134,0.34556525945663,0.64208471775055,0.86389070749283,-0.08336292952299
497,2276002025,0.625634,0.389341,-0.576701,0.352721,9.87089729309082,0.76817619800568,0.33316978812218,0.49595147371292,0.93272489309311,0.16865962743759
498,2276018692,0.625742,0.389224,-0.576685,0.352683,9.84403610229492,0.80142092704773,0.29607421159744,0.22790177166462,0.63103288412094,0.32598561048508
499,2276035359,0.625840,0.389109,-0.576681,0.352645,9.86243915557861,0.80912047624588,0.30356636643410,0.22823478281498,0.53583049774170,0.38000285625458
500,2276052026,0.625905,0.389025,-0.576679,0.352624,9.86702060699463,0.81202054023743,0.28237339854240,0.56972885131836,0.37044924497604,0.41584777832031
501,2276068693,0.625965,0.388992,-0.576658,0.352588,9.84595680236816,0.78674054145813,0.27373722195625,0.73987400531769,0.26789602637291,0.10739404708147
502,2276085360,0.626003,0.388964,-0.576660,0.352549,9.85635280609131,0.79566675424576,0.29210460186005,0.73841404914856,0.05840975046158,0.18348935246468
503,2276102027,0.626033,0.388932,-0.576682,0.352493,9.84906101226807,0.77383762598038,0.27359774708748,0.67525315284729,-0.08620593696833,0.20665606856346
504,2276118694,0.626054,0.388875,-0.576741,0.352425,9.86717033386230,0.79739069938660,0.30496084690094,0.50195771455765,-0.25200974941254,0.37558466196060
505,2276135361,0.626065,0.388803,-0.576819,0.352357,9.85598468780518,0.80761128664017,0.31789979338646,0.38006684184074,-0.34155172109604,0.51124227046967
506,2276152028,0.626082,0.388741,-0.576882,0.352289,9.85509777069092,0.83037030696869,0.30941703915596,0.43695262074471,-0.28014528751373,0.41123750805855
507,2276168695,0.626093,0.388733,-0.576908,0.352236,9.85628795623779,0.83398228883743,0.31741699576378,0.74526548385620,-0.23589934408665,0.17558784782887
508,2276185362,0.626093,0.388758,-0.576906,0.352213,9.85248088836670,0.79444712400436,0.31048536300659,1.08360934257507,-0.16341543197632,0.12917765974998
509,2276202029,0.626100,0.388781,-0.576900,0.352187,9.86888980865479,0.77960330247879,0.33023041486740,1.16562104225159,-0.11569896340370,0.09711054712534
510,2276218696,0.626102,0.388766,-0.576926,0.352156,9.87630558013916,0.78169846534729,0.32055258750916,0.86847537755966,-0.19494464993477,0.32470497488976
511,2276235363,0.626090,0.388715,-0.576990,0.352129,9.86432647705078,0.79272645711899,0.28399604558945,0.69557684659958,-0.30998405814171,0.61667692661285
512,2276252030,0.626060,0.388661,-0.577081,0.352092,9.87529563903809,0.82476681470871,0.31835198402405,0.72914230823517,-0.52095586061478,0.70747399330139
513,2276268697,0.626005,0.388672,-0.577144,0.352075,9.87996482849121,0.83532327413559,0.31419336795807,1.18489468097687,-0.59602677822113,0.51713323593140
514,2276285364,0.625966,0.388738,-0.577144,0.352071,9.88010311126709,0.83882153034210,0.34030801057816,1.36774384975433,-0.38055989146233,0.14358480274677
515,2276302031,0.625969,0.388773,-0.577129,0.352052,9.86601448059082,0.82109308242798,0.35252925753593,1.16923248767853,-0.11000014096498,0.06417261809111
516,2276318698,0.625915,0.388816,-0.577138,0.352086,9.89917659759521,0.81767523288727,0.31474518775940,1.60493028163910,-0.30775582790375,0.46243733167648
517,2276335365,0.625722,0.389077,-0.577127,0.352160,9.78784847259521,0.79228657484055,0.24323812127113,2.95129990577698,-1.20777308940887,0.05075155943632
518,2276352032,0.625759,0.389004,-0.577201,0.352051,9.93552970886230,0.78118330240250,0.42497128248215,0.22446969151497,-0.32318744063377,0.26630803942680
519,2276368699,0.625893,0.388668,-0.577454,0.351771,9.79058933258057,0.79298758506775,0.23438769578934,-2.40649867057800,-0.53878229856491,0.81005287170410
520,2276385366,0.625843,0.388532,-0.577643,0.351698,9.82785511016846,0.80763727426529,0.24312233924866,-0.05960716307163,-0.91978412866592,1.18593204021454
521,2276402033,0.625707,0.388467,-0.577887,0.351613,9.86598587036133,0.82093000411987,0.31702950596809,0.23252490162849,-1.70788681507111,1.20197844505310
522,2276418700,0.625507,0.388510,-0.578056,0.351641,9.91872310638428,0.79789060354233,0.32254642248154,1.50057125091553,-1.59852051734924,1.21629583835602
523,2276435367,0.625330,0.388637,-0.578110,0.351728,9.88801193237305,0.78424394130707,0.30112087726593,2.34594416618347,-1.05973196029663,0.77025079727173
524,2276452034,0.625142,0.388805,-0.578180,0.351763,9.86866474151611,0.79114204645157,0.28665816783905,2.33600616455078,-1.40488851070404,0.46068280935287
525,2276468701,0.625014,0.388883,-0.578265,0.351762,9.90009498596191,0.79215896129608,0.31140130758286,1.46706974506378,-1.11593878269196,0.55081391334534
526,2276485368,0.624947,0.388858,-0.578374,0.351730,9.89303779602051,0.81154882907867,0.28842750191689,0.84096729755402,-0.80418109893799,0.74529117345810
527,2276502035,0.624852,0.388880,-0.578457,0.351738,9.88363838195801,0.80152940750122,0.25566023588181,1.25337028503418,-0.81381148099899,0.73058950901031
528,2276518702,0.624752,0.388937,-0.578505,0.351774,9.84640693664551,0.79020571708679,0.27252462506294,1.55349993705750,-0.69621080160141,0.63023889064789
529,2276535369,0.624647,0.388972,-0.578569,0.351816,9.85669517517090,0.78769129514694,0.27181655168533,1.58963930606842,-0.71145027875900,0.79779714345932
530,2276552036,0.624549,0.388974,-0.578661,0.351836,9.85900306701660,0.79010325670242,0.25872603058815,1.28588557243347,-0.77642983198166,0.89746904373169
531,2276568703,0.624483,0.388971,-0.578743,0.351822,9.87545776367188,0.80531173944473,0.27407610416412,1.01019048690796,-0.69289398193359,0.66207545995712
532,2276585370,0.624420,0.388972,-0.578832,0.351788,9.89924526214600,0.80617004632950,0.26994413137436,0.88121765851974,-0.77905505895615,0.56957525014877
533,2276602037,0.624367,0.388956,-0.578918,0.351757,9.90655708312988,0.78961235284805,0.28844353556633,0.80131888389587,-0.67231416702271,0.61951994895935
534,2276618704,0.624314,0.388961,-0.578950,0.351793,9.91256237030029,0.78670096397400,0.24094243347645,1.18991482257843,-0.32080549001694,0.67613685131073
535,2276635371,0.624305,0.388934,-0.578991,0.351771,9.84637355804443,0.79969727993011,0.33092656731606,0.86675941944122,-0.24732264876366,0.47725424170494
536,2276652038,0.624320,0.388872,-0.579035,0.351740,9.86365222930908,0.77734947204590,0.24161928892136,0.51426458358765,-0.11364995688200,0.52803134918213
537,2276668705,0.624284,0.388862,-0.579093,0.351720,9.84667968750000,0.71621066331863,0.20152947306633,0.91396349668503,-0.46358346939087,0.52676355838776
538,2276685372,0.624209,0.388899,-0.579141,0.351732,9.87050533294678,0.75398427248001,0.31393456459045,1.36303102970123,-0.61454474925995,0.54631888866425
539,2276702039,0.624091,0.388984,-0.579200,0.351753,9.85374736785889,0.75298225879669,0.29965251684189,1.66971743106842,-0.92197394371033,0.52376687526703
540,2276718706,0.623988,0.388984,-0.579296,0.351777,9.88528537750244,0.80105835199356,0.30690854787827,1.20959830284119,-0.80715227127075,0.94254744052887
541,2276735373,0.623952,0.388924,-0.579382,0.351764,9.89325428009033,0.81114435195923,0.27792447805405,0.69980287551880,-0.45187842845917,0.82891649007797
542,2276752040,0.623952,0.388863,-0.579456,0.351710,9.88782405853271,0.79319947957993,0.26789698004723,0.43998780846596,-0.36051797866821,0.54292523860931
543,2276768707,0.623971,0.388813,-0.579506,0.351650,9.88297367095947,0.81545037031174,0.30288329720497,0.46407645940781,-0.22222219407558,0.35771974921227
544,2276785374,0.623962,0.388828,-0.579499,0.351662,9.90022754669189,0.77890640497208,0.30750310420990,1.07504189014435,-0.06966014206409,0.32236143946648
545,2276802041,0.623956,0.388856,-0.579467,0.351692,9.87088203430176,0.74618756771088,0.30735689401627,1.28634655475616,0.06637530773878,0.27190440893173
546,2276818708,0.623950,0.388826,-0.579484,0.351709,9.87234401702881,0.75175684690475,0.28011232614517,0.98205482959747,-0.02554226107895,0.58642828464508
547,2276835375,0.623936,0.388785,-0.579524,0.351711,9.85349750518799,0.75802379846573,0.29277956485748,0.92541241645813,-0.16908864676952,0.64500457048416
548,2276852042,0.623930,0.388736,-0.579583,0.351683,9.84637546539307,0.77756613492966,0.25614827871323,0.78615617752075,-0.27046370506287,0.58161312341690
549,2276868709,0.623917,0.388686,-0.579647,0.351654,9.88942241668701,0.77041250467300,0.25322449207306,0.59444510936737,-0.33294585347176,0.60750758647919
550,2276885376,0.623880,0.388682,-0.579684,0.351662,9.88395404815674,0.75579047203064,0.23326005041599,1.05752265453339,-0.32772088050842,0.56682181358337
551,2276902043,0.623825,0.388703,-0.579723,0.351672,9.87332153320312,0.78225201368332,0.24825243651867,1.33142495155334,-0.45363289117813,0.52881258726120
552,2276918710,0.623761,0.388753,-0.579751,0.351684,9.88718795776367,0.77980911731720,0.28361812233925,1.40613722801208,-0.51943194866180,0.41707721352577
553,2276935377,0.623722,0.388764,-0.579797,0.351665,9.87608909606934,0.78008019924164,0.28754144906998,1.19421780109406,-0.46412128210068,0.41806328296661
554,2276952044,0.623690,0.388798,-0.579822,0.351643,9.87697982788086,0.77621757984161,0.24334238469601,1.21264612674713,-0.42219331860542,0.24904510378838
555,2276968711,0.623654,0.388856,-0.579830,0.351630,9.86916446685791,0.76769489049911,0.24789392948151,1.34027409553528,-0.40207454562187,0.15517453849316
556,2276985378,0.623631,0.388894,-0.579845,0.351604,9.86402511596680,0.77882224321365,0.23415057361126,1.19530618190765,-0.36158084869385,0.16360111534595
557,2277002045,0.623573,0.388952,-0.579862,0.351616,9.87010002136230,0.76684725284576,0.22925603389740,1.19383358955383,-0.48718559741974,0.33069837093353
558,2277018712,0.623528,0.388976,-0.579888,0.351625,9.88051700592041,0.77189582586288,0.24205304682255,1.25509917736053,-0.37142896652222,0.45036089420319
559,2277035379,0.623479,0.389029,-0.579896,0.351639,9.88881206512451,0.78054362535477,0.25320690870285,1.47141110897064,-0.36651131510735,0.31926226615906
560,2277052046,0.623441,0.389073,-0.579914,0.351629,9.88337707519531,0.76334446668625,0.24161539971828,1.30184245109558,-0.41103902459145,0.25707468390465
561,2277068713,0.623427,0.389097,-0.579924,0.351611,9.89461231231689,0.76879882812500,0.27568441629410,1.23293137550354,-0.24481260776520,0.22079429030418
562,2277085380,0.623422,0.389127,-0.579908,0.351613,9.90743255615234,0.77613836526871,0.24427166581154,1.32188427448273,-0.06434550136328,0.18894487619400
563,2277102047,0.623430,0.389154,-0.579886,0.351606,9.87644004821777,0.77993202209473,0.24692277610302,1.30240583419800,0.00309913698584,0.11675549298525
564,2277118714,0.623453,0.389183,-0.579857,0.351582,9.86444950103760,0.75937259197235,0.20679222047329,1.13174831867218,0.03145239502192,-0.01760232634842
565,2277135381,0.623454,0.389192,-0.579882,0.351529,9.86920356750488,0.74839413166046,0.21103669703007,0.93771946430206,-0.31144407391548,0.13191822171211
566,2277152048,0.623430,0.389205,-0.579907,0.351515,9.88022041320801,0.78673839569092,0.22933740913868,1.08336591720581,-0.31837221980095,0.34396570920944
567,2277168715,0.623419,0.389217,-0.579916,0.351505,9.87898445129395,0.77347058057785,0.23929975926876,1.06424629688263,-0.18817012012005,0.29317578673363
568,2277185382,0.623455,0.389192,-0.579912,0.351476,9.88867473602295,0.78603249788284,0.26748958230019,0.76742047071457,0.09632936865091,0.20742444694042
569,2277202049,0.623396,0.389278,-0.579891,0.351520,9.88541984558105,0.75635105371475,0.15848098695278,1.84255194664001,-0.28380790352821,0.26244053244591
570,2277218716,0.623215,0.389533,-0.579893,0.351556,9.84304332733154,0.81014794111252,0.26898932456970,2.85672569274902,-1.29125809669495,-0.08688469976187
571,2277235383,0.623264,0.389541,-0.579873,0.351493,9.95411396026611,0.72493976354599,0.36311271786690,0.96192318201065,0.05633512884378,-0.13748253881931
572,2277252050,0.623360,0.389335,-0.579990,0.351357,9.79677200317383,0.78099179267883,0.14816778898239,-0.89951157569885,-0.03746497631073,0.64559364318848
573,2277268717,0.623428,0.389218,-0.580040,0.351283,9.83848476409912,0.75396096706390,0.20604316890240,-0.01460564136505,0.09069456905127,0.45233306288719
574,2277285384,0.623340,0.389098,-0.580253,0.351222,9.87685585021973,0.74357587099075,0.23723345994949,0.11115912348032,-1.17221021652222,1.33301317691803
575,2277302051,0.623159,0.389112,-0.580373,0.351327,9.92234897613525,0.79798150062561,0.27607432007790,1.74956500530243,-1.04018938541412,1.48211729526520
576,2277318718,0.623007,0.389281,-0.580365,0.351425,9.88165760040283,0.80185842514038,0.23844593763351,2.59450221061707,-0.77123034000397,0.42244303226471
577,2277335385,0.622877,0.389424,-0.580388,0.351458,9.89878463745117,0.78258877992630,0.25190657377243,2.11578845977783,-0.92151302099228,0.27301859855652
578,2277352052,0.622828,0.389481,-0.580400,0.351463,9.92421531677246,0.78615701198578,0.25531405210495,1.49685728549957,-0.41737815737724,0.27774408459663
579,2277368719,0.622816,0.389495,-0.580408,0.351455,9.88203907012939,0.78034818172455,0.21295098960400,1.16422522068024,-0.17996121942997,0.29463568329811
580,2277385386,0.622806,0.389523,-0.580393,0.351465,9.87322807312012,0.78737103939056,0.20827263593674,1.45946288108826,-0.05725079402328,0.24544650316238
581,2277402053,0.622775,0.389610,-0.580355,0.351489,9.85189151763916,0.77600091695786,0.21544957160950,1.88463342189789,-0.14247702062130,0.06883412599564
582,2277418720,0.622708,0.389704,-0.580311,0.351573,9.85589408874512,0.75015705823898,0.19306625425816,1.90082073211670,-0.14306613802910,0.35386499762535
583,2277435387,0.622679,0.389728,-0.580315,0.351592,9.86533260345459,0.76950287818909,0.17199914157391,1.31753003597260,-0.18600583076477,0.39881536364555
584,2277452054,0.622665,0.389755,-0.580334,0.351556,9.87680721282959,0.78851234912872,0.20438989996910,1.06630778312683,-0.34840309619904,0.15455983579159
585,2277468721,0.622648,0.389782,-0.580358,0.351516,9.89099025726318,0.78042751550674,0.25280398130417,1.06323432922363,-0.38723197579384,0.15923415124416
586,2277485388,0.622656,0.389769,-0.580363,0.351510,9.92663192749023,0.77884674072266,0.28000530600548,1.05461585521698,-0.01986905187368,0.34685999155045
587,2277502055,0.622730,0.389730,-0.580314,0.351502,9.90687847137451,0.76854521036148,0.25958114862442,0.78230148553848,0.52590554952621,0.14186874032021
588,2277518722,0.622793,0.389745,-0.580208,0.351550,9.90101432800293,0.74699556827545,0.14599290490150,1.40179586410522,0.75138700008392,0.04000703617930
589,2277535389,0.622836,0.389795,-0.580105,0.351585,9.83831119537354,0.80419194698334,0.23173959553242,1.41562676429749,0.52705812454224,-0.09848723560572
590,2277552056,0.622857,0.389821,-0.580112,0.351510,9.83214378356934,0.76115977764130,0.23129487037659,0.88617372512817,-0.25225305557251,-0.12646910548210
591,2277568723,0.622876,0.389819,-0.580086,0.351521,9.91178607940674,0.74960529804230,0.27453985810280,1.10605871677399,0.17118246853352,0.27374851703644
592,2277585390,0.622903,0.389838,-0.580036,0.351535,9.87000846862793,0.78359818458557,0.22541205585003,1.39074409008026,0.27504199743271,0.11295200139284
593,2277602057,0.622936,0.389871,-0.579974,0.351540,9.91230964660645,0.77398902177811,0.26093968749046,1.26960873603821,0.27916562557220,-0.02413356862962
594,2277618724,0.623004,0.389807,-0.579950,0.351531,9.90599727630615,0.79933804273605,0.27783623337746,0.66222912073135,0.45869779586792,0.31597107648849
595,2277635391,0.623142,0.389707,-0.579885,0.351506,9.89569568634033,0.81098991632462,0.31555643677711,0.42125204205513,0.96220505237579,0.11854837834835
596,2277652058,0.623322,0.389594,-0.579796,0.351459,9.90719604492188,0.80019557476044,0.25873968005180,0.29662072658539,1.20715224742889,-0.09196880459785
597,2277668725,0.623493,0.389522,-0.579688,0.351412,9.86205101013184,0.76766449213028,0.25432336330414,0.32546058297157,1.13890719413757,-0.28837978839874
598,2277685392,0.623638,0.389455,-0.579605,0.351367,9.83867359161377,0.76762920618057,0.25713947415352,0.47078707814217,0.92479783296585,-0.16194272041321
599,2277702059,0.623739,0.389372,-0.579567,0.351341,9.84000110626221,0.74437725543976,0.23869407176971,0.47561499476433,0.65384095907211,0.20368498563766
600,2277718726,0.623822,0.389279,-0.579574,0.351287,9.85393524169922,0.74357932806015,0.23881196975708,0.29669749736786,0.33489879965782,0.29330378770828
601,2277735393,0.623890,0.389211,-0.579580,0.351230,9.83317565917969,0.77287203073502,0.22256168723106,0.40035209059715,0.21071568131447,0.20410759747028
602,2277752060,0.623940,0.389202,-0.579566,0.351176,9.86504650115967,0.78515273332596,0.25171849131584,0.69643491506577,0.09075859934092,-0.02330115437508
603,2277768727,0.623980,0.389208,-0.579551,0.351123,9.86432266235352,0.77374559640884,0.25111377239227,0.89042544364929,0.01897900924087,-0.05661046877503
604,2277785394,0.623974,0.389243,-0.579535,0.351119,9.88040351867676,0.75374066829681,0.26202183961868,1.19323158264160,-0.10150951892138,0.14377687871456
605,2277802061,0.623961,0.389304,-0.579510,0.351117,9.90404605865479,0.79383915662766,0.25482991337776,1.48927617073059,-0.14114521443844,0.05025211721659
606,2277818728,0.623957,0.389359,-0.579489,0.351097,9.91334629058838,0.77988338470459,0.28754916787148,1.30734896659851,-0.16255739331245,-0.02792424522340
607,2277835395,0.623995,0.389352,-0.579471,0.351068,9.90649318695068,0.80668699741364,0.27838450670242,0.96868509054184,0.12729510664940,0.09939008206129
608,2277852062,0.624049,0.389357,-0.579441,0.351016,9.87641525268555,0.80818349123001,0.23707035183907,0.71453034877777,0.13889765739441,-0.12358767539263
609,2277868729,0.624110,0.389369,-0.579407,0.350952,9.86379718780518,0.77885359525681,0.21805141866207,0.98533332347870,0.15144787728786,-0.22717823088169
610,2277885396,0.624147,0.389429,-0.579352,0.350908,9.84520912170410,0.76567804813385,0.21658298373222,1.27654969692230,0.08129470795393,-0.33585292100906
611,2277902063,0.624146,0.389499,-0.579327,0.350874,9.83212947845459,0.76521408557892,0.23124463856220,1.47066855430603,-0.19362561404705,-0.15621826052666
612,2277918730,0.624111,0.389569,-0.579322,0.350866,9.85478115081787,0.78418332338333,0.23785832524300,1.41204082965851,-0.36087653040886,0.08895290642977
613,2277935397,0.624086,0.389592,-0.579351,0.350838,9.87832641601562,0.79378449916840,0.25762113928795,1.04631710052490,-0.40280449390411,0.25461581349373
614,2277952064,0.624094,0.389589,-0.579381,0.350779,9.87405586242676,0.79801565408707,0.24604611098766,0.86554282903671,-0.28782913088799,0.15801754593849
615,2277968731,0.624108,0.389595,-0.579403,0.350709,9.87886810302734,0.80486708879471,0.24325633049011,0.94644045829773,-0.27365249395370,0.03777873143554
616,2277985398,0.624101,0.389665,-0.579384,0.350675,9.87454509735107,0.80041813850403,0.20536448061466,1.19305241107941,-0.26604554057121,-0.13171972334385
617,2278002065,0.624075,0.389742,-0.579388,0.350628,9.86915302276611,0.77283298969269,0.25070920586586,1.23428881168365,-0.47805464267731,-0.10927018523216
618,2278018732,0.624055,0.389771,-0.579414,0.350591,9.87904262542725,0.78899163007736,0.26401090621948,1.13071095943451,-0.40330395102501,0.17736794054508
619,2278035399,0.624050,0.389774,-0.579448,0.350539,9.89070701599121,0.80907243490219,0.25582158565521,0.88630187511444,-0.35519054532051,0.19999678432941
620,2278052066,0.624091,0.389724,-0.579474,0.350479,9.86693477630615,0.82700151205063,0.28211626410484,0.44954127073288,-0.03770829364657,0.24414023756981
621,2278068733,0.624088,0.389682,-0.579538,0.350424,9.86967754364014,0.80284780263901,0.23654107749462,0.56570768356323,-0.38000926375389,0.43650445342064
622,2278085400,0.623906,0.389930,-0.579541,0.350470,9.81746482849121,0.82865279912949,0.15391388535500,2.76203536987305,-1.26319932937622,-0.01209559757262
623,2278102067,0.623911,0.389966,-0.579586,0.350346,9.98586082458496,0.77453011274338,0.44066867232323,0.54219526052475,-0.64508789777756,-0.23510538041592
624,2278118734,0.624025,0.389769,-0.579680,0.350207,9.79627513885498,0.79810518026352,0.13833996653557,-0.86878925561905,0.10318076610565,0.49632290005684
625,2278135401,0.624090,0.389659,-0.579762,0.350077,9.83762741088867,0.78772759437561,0.19113039970398,-0.20193693041801,-0.21904622018337,0.27349239587784
626,2278152068,0.624020,0.389587,-0.579954,0.349964,9.82998943328857,0.78340500593185,0.22877827286720,-0.00003201587242,-1.28226768970490,0.81503444910049
627,2278168735,0.623834,0.389580,-0.580138,0.349998,9.92151069641113,0.81166565418243,0.26767069101334,1.09621083736420,-1.48323786258698,1.43688535690308
628,2278185402,0.623684,0.389684,-0.580198,0.350051,9.87402057647705,0.80227160453796,0.21994705498219,1.94112253189087,-1.01464068889618,0.66662180423737
629,2278202069,0.623536,0.389789,-0.580296,0.350035,9.90188884735107,0.82404005527496,0.22931981086731,1.76408767700195,-1.34777235984802,0.46503695845604
630,2278218736,0.623452,0.389837,-0.580381,0.349990,9.90203189849854,0.81596326828003,0.24412871897221,1.08984601497650,-0.98390543460846,0.37627613544464
631,2278235403,0.623419,0.389838,-0.580449,0.349934,9.89501667022705,0.80842643976212,0.23585958778858,0.95481574535370,-0.61218833923340,0.35117569565773
632,2278252070,0.623368,0.389868,-0.580493,0.349919,9.87144947052002,0.77664226293564,0.21155492961407,1.19868719577789,-0.54850232601166,0.38502287864685
633,2278268737,0.623279,0.389969,-0.580505,0.349944,9.84768962860107,0.80110454559326,0.18496689200401,1.76817262172699,-0.63479155302048,0.27710378170013
634,2278285404,0.623172,0.390036,-0.580541,0.350002,9.85273361206055,0.76825076341629,0.19886903464794,1.75372684001923,-0.64119458198547,0.66767168045044
635,2278302071,0.623119,0.389980,-0.580639,0.349995,9.85971832275391,0.78629601001740,0.19139564037323,0.90652298927307,-0.54498058557510,0.91766452789307
636,2278318738,0.623064,0.389930,-0.580755,0.349957,9.88061714172363,0.80458849668503,0.22711330652237,0.50076669454575,-0.75458210706711,0.80907952785492
637,2278335405,0.623019,0.389919,-0.580833,0.349919,9.89150238037109,0.80603134632111,0.22580549120903,0.57213646173477,-0.65354001522064,0.52582865953445
638,2278352072,0.623011,0.389879,-0.580896,0.349873,9.89599990844727,0.80269587039948,0.22600571811199,0.59370237588882,-0.38044461607933,0.48005878925323
639,2278368739,0.623023,0.389806,-0.580952,0.349841,9.90832233428955,0.80978924036026,0.24161571264267,0.48666688799858,-0.14740747213364,0.60497188568115
640,2278385406,0.623014,0.389793,-0.580953,0.349868,9.88140296936035,0.77586132287979,0.13159434497356,1.14451634883881,0.01750628091395,0.52561098337173
641,2278402073,0.623005,0.389799,-0.580949,0.349886,9.82942295074463,0.83350855112076,0.23662088811398,1.22108554840088,-0.03298275545239,0.39343670010567
642,2278418740,0.622997,0.389797,-0.581010,0.349800,9.83508586883545,0.78062766790390,0.19451893866062,0.80060178041458,-0.55498236417770,0.15269009768963
643,2278435407,0.622980,0.389777,-0.581049,0.349788,9.89781475067139,0.76048868894577,0.22166809439659,0.72656834125519,-0.27917203307152,0.50400668382645
644,2278452074,0.622979,0.389785,-0.581043,0.349791,9.86521720886230,0.77908307313919,0.20677536725998,1.12622869014740,-0.04124284535646,0.29563456773758
645,2278468741,0.622978,0.389764,-0.581057,0.349794,9.87573146820068,0.76499444246292,0.22094932198524,0.95516151189804,-0.05027132108808,0.47091507911682
646,2278485408,0.623000,0.389625,-0.581155,0.349747,9.88414764404297,0.81314980983734,0.26103752851486,-0.07051816582680,-0.18039663136005,0.89403688907623
647,2278502075,0.623076,0.389465,-0.581197,0.349719,9.89641189575195,0.82567673921585,0.20926968753338,-0.09554176777601,0.38524058461189,0.77647453546524
648,2278518742,0.623162,0.389339,-0.581217,0.349673,9.90970611572266,0.79925012588501,0.20058588683605,0.00706910481676,0.38051503896713,0.48285058140755
649,2278535409,0.623244,0.389265,-0.581202,0.349633,9.87553596496582,0.79477274417877,0.23101583123207,0.43148431181908,0.41592460870743,0.21576136350632
650,2278552076,0.623326,0.389214,-0.581153,0.349626,9.86527156829834,0.75261253118515,0.22676999866962,0.68243759870529,0.58849018812180,0.17516525089741
651,2278568743,0.623386,0.389135,-0.581138,0.349632,9.86108016967773,0.73362314701080,0.23778916895390,0.47047966718674,0.44959250092506,0.48680776357651
652,2278585410,0.623458,0.388979,-0.581182,0.349604,9.88927459716797,0.76938605308533,0.23897439241409,0.07720948755741,0.35869303345680,0.77917665243149
653,2278602077,0.623529,0.388845,-0.581196,0.349604,9.87466049194336,0.80107092857361,0.22429263591766,0.25366821885109,0.49656629562378,0.72842520475388
654,2278618744,0.623569,0.388767,-0.581204,0.349605,9.86438846588135,0.79175293445587,0.22663883864880,0.55529618263245,0.26379802823067,0.57426238059998
655,2278635411,0.623619,0.388732,-0.581182,0.349592,9.85913085937500,0.78638768196106,0.20717209577560,0.80745315551758,0.29809340834618,0.23657168447971
656,2278652078,0.623624,0.388762,-0.581154,0.349594,9.87476444244385,0.76327848434448,0.21741773188114,1.20647346973419,0.01676351204515,0.12967708706856
657,2278668745,0.623622,0.388811,-0.581114,0.349612,9.88293743133545,0.76450890302658,0.22582527995110,1.48277044296265,0.04748595133424,0.10922536253929
658,2278685412,0.623623,0.388811,-0.581105,0.349626,9.88526439666748,0.76076602935791,0.24504317343235,1.23106169700623,0.04028878360987,0.36614635586739
659,2278702079,0.623636,0.388773,-0.581099,0.349653,9.87081432342529,0.79253244400024,0.22593788802624,0.84396398067474,0.17880222201347,0.54881608486176
660,2278718746,0.623673,0.388703,-0.581102,0.349661,9.88033962249756,0.78559821844101,0.24689228832722,0.62469369173050,0.27449131011963,0.55947101116180
661,2278735413,0.623738,0.388681,-0.581029,0.349690,9.87112140655518,0.79880166053772,0.24955853819847,1.10147404670715,0.65190726518631,0.19195437431335
662,2278752080,0.623782,0.388742,-0.580932,0.349705,9.85480499267578,0.76731532812119,0.18647490441799,1.45659422874451,0.43531346321106,-0.21501222252846
663,2278768747,0.623804,0.388797,-0.580866,0.349715,9.86550617218018,0.77408415079117,0.23190636932850,1.52714431285858,0.22546857595444,-0.07597366720438
664,2278785414,0.623814,0.388830,-0.580821,0.349734,9.87565422058105,0.76643234491348,0.24744577705860,1.34320688247681,0.14738829433918,0.13700233399868
665,2278802081,0.623823,0.388808,-0.580813,0.349756,9.87886714935303,0.78233659267426,0.23379801213741,0.99354219436646,0.13044548034668,0.46734207868576
666,2278818748,0.623841,0.388788,-0.580802,0.349763,9.88225364685059,0.79674845933914,0.23244458436966,0.93583679199219,0.13263536989689,0.36350822448730
667,2278835415,0.623868,0.388802,-0.580752,0.349783,9.88355636596680,0.79403120279312,0.23774850368500,1.24494361877441,0.28935945034027,0.15991286933422
668,2278852082,0.623897,0.388864,-0.580661,0.349815,9.89215278625488,0.79977959394455,0.24975228309631,1.45822060108185,0.38411366939545,-0.09417149424553
669,2278868749,0.623951,0.388932,-0.580549,0.349828,9.89739513397217,0.79625850915909,0.20650568604469,1.61760866641998,0.52955543994904,-0.31059882044792
670,2278885416,0.624011,0.388990,-0.580443,0.349833,9.86805725097656,0.77486199140549,0.22616009414196,1.52373790740967,0.52468895912170,-0.30642396211624
671,2278902083,0.624058,0.389007,-0.580387,0.349824,9.87087821960449,0.76743406057358,0.22027082741261,1.11312794685364,0.31495937705040,-0.04005185887218
672,2278918750,0.624085,0.388988,-0.580351,0.349856,9.89821815490723,0.78463995456696,0.26337590813637,0.94565933942795,0.32631859183311,0.37635299563408
673,2278935417,0.624129,0.388986,-0.580281,0.349896,9.88586997985840,0.81301689147949,0.28098186850548,1.20097947120667,0.53302586078644,0.21395568549633
674,2278952084,0.624225,0.388978,-0.580172,0.349914,9.90348434448242,0.82467877864838,0.27951198816299,1.09829819202423,0.87560862302780,-0.08265858143568
675,2278968751,0.624274,0.389015,-0.580055,0.349979,9.87477588653564,0.80921047925949,0.21728341281414,1.65191674232483,0.73329156637192,0.03325808793306
676,2278985418,0.624148,0.389318,-0.579906,0.350115,9.81553459167480,0.80045837163925,0.17066977918148,3.49427628517151,-0.28662532567978,-0.39614522457123
677,2279002085,0.624209,0.389352,-0.579840,0.350076,9.98218441009521,0.75188493728638,0.44192415475845,1.02674913406372,0.28568401932716,-0.29557695984840
678,2279018752,0.624404,0.389168,-0.579804,0.349994,9.77466297149658,0.81493741273880,0.10157094150782,-0.28060632944107,1.12750935554504,0.14770843088627
679,2279035419,0.624522,0.389038,-0.579832,0.349880,9.86122035980225,0.74878323078156,0.24851445853710,-0.29995673894882,0.30228111147881,0.15133264660835
680,2279052086,0.624523,0.388897,-0.579953,0.349835,9.84790420532227,0.79996353387833,0.24850305914879,-0.07574315369129,-0.34753233194351,1.01637589931488
681,2279068753,0.624411,0.388909,-0.579985,0.349969,9.95520114898682,0.80993264913559,0.31050008535385,1.84991574287415,-0.30205696821213,1.21383714675903
682,2279085420,0.624320,0.389104,-0.579865,0.350113,9.89247703552246,0.80305600166321,0.23822277784348,2.82465839385986,0.00453344825655,0.06751508265734
683,2279102087,0.624241,0.389308,-0.579758,0.350204,9.87820053100586,0.78466916084290,0.26263138651848,2.55344510078430,-0.17072784900665,-0.19217847287655
684,2279118754,0.624238,0.389364,-0.579691,0.350259,9.92389106750488,0.81225186586380,0.28028920292854,1.76262772083282,0.24855846166611,0.16612398624420
685,2279135421,0.624298,0.389391,-0.579582,0.350302,9.87087440490723,0.78560996055603,0.24589757621288,1.48035013675690,0.70609098672867,-0.02477388270199
686,2279152088,0.624339,0.389434,-0.579458,0.350385,9.85063171386719,0.79761123657227,0.22464835643768,1.67731165885925,0.76044106483459,0.08129470795393
687,2279168755,0.624351,0.389519,-0.579339,0.350467,9.81656074523926,0.79416453838348,0.24679984152317,2.14866232872009,0.53599697351456,-0.00694744521752
688,2279185422,0.624336,0.389615,-0.579213,0.350595,9.84254455566406,0.78933846950531,0.25112056732178,2.31257081031799,0.53731602430344,0.19860088825226
689,2279202089,0.624333,0.389649,-0.579150,0.350668,9.84460067749023,0.78138595819473,0.24583196640015,1.70260417461395,0.32615211606026,0.34519511461258
690,2279218756,0.624343,0.389688,-0.579099,0.350690,9.87361717224121,0.82258796691895,0.23470717668533,1.32335698604584,0.17108002305031,0.10793192684650
691,2279235423,0.624380,0.389719,-0.579028,0.350706,9.91225147247314,0.84212797880173,0.25940582156181,1.28647470474243,0.36277827620506,-0.00647360971197
692,2279252090,0.624427,0.389749,-0.578950,0.350719,9.90337657928467,0.82892024517059,0.28464147448540,1.37150871753693,0.44549447298050,-0.05425409227610
693,2279268757,0.624502,0.389774,-0.578831,0.350753,9.90554332733154,0.80451697111130,0.29724395275116,1.26283407211304,0.77831870317459,-0.12558546662331
694,2279285424,0.624575,0.389836,-0.578671,0.350818,9.86943817138672,0.78281080722809,0.18570379912853,1.79087817668915,0.95651900768280,-0.24030473828316
695,2279302091,0.624733,0.389798,-0.578530,0.350813,9.83589076995850,0.84146332740784,0.32668223977089,0.75714981555939,1.26142549514771,-0.30288934707642
696,2279318758,0.624843,0.389743,-0.578478,0.350763,9.81774425506592,0.76735395193100,0.20598596334457,0.54806053638458,0.61501210927963,-0.07361730188131
697,2279335425,0.624898,0.389668,-0.578473,0.350757,9.92428398132324,0.78363883495331,0.35526859760284,0.62634569406509,0.35880830883980,0.45899233222008
698,2279352092,0.624945,0.389705,-0.578342,0.350849,9.84539318084717,0.82552194595337,0.26882219314575,1.81587624549866,0.86335283517838,0.11827944219112
699,2279368759,0.624987,0.389722,-0.578257,0.350895,9.91872501373291,0.81267708539963,0.31749510765076,1.53281760215759,0.56771832704544,0.13285307586193
700,2279385426,0.625096,0.389655,-0.578173,0.350913,9.90368270874023,0.85338687896729,0.31408298015594,0.81471431255341,0.95920842885971,0.18593540787697
701,2279402093,0.625256,0.389523,-0.578098,0.350899,9.89580917358398,0.82524764537811,0.28552156686783,0.31611195206642,1.19907128810883,0.21127915382385
702,2279418760,0.625431,0.389381,-0.578014,0.350883,9.87893581390381,0.83438640832901,0.28353053331375,0.26753747463226,1.31368815898895,0.17907120287418
703,2279435427,0.625583,0.389321,-0.577857,0.350936,9.84556865692139,0.81633788347244,0.32137730717659,1.04977476596832,1.52357125282288,0.01581584103405
704,2279452094,0.625708,0.389281,-0.577698,0.351018,9.86891746520996,0.79075437784195,0.31940031051636,1.16770863533020,1.43962574005127,0.10653601586819
705,2279468761,0.625837,0.389181,-0.577580,0.351095,9.82596492767334,0.77385753393173,0.30236566066742,1.00842320919037,1.42903506755829,0.43957799673080
706,2279485428,0.625983,0.389036,-0.577495,0.351134,9.84102821350098,0.79358059167862,0.26092374324799,0.46889168024063,1.35422015190125,0.49410736560822
707,2279502095,0.626094,0.388881,-0.577456,0.351174,9.83814048767090,0.81231391429901,0.26907923817635,0.35491517186165,1.03981149196625,0.74412578344345
708,2279518762,0.626182,0.388714,-0.577446,0.351218,9.85594367980957,0.82586103677750,0.27826389670372,0.53538233041763,0.87951457500458,0.94728577136993
709,2279535429,0.626263,0.388605,-0.577401,0.351268,9.84625148773193,0.82415640354156,0.27601599693298,0.86445426940918,0.87161302566528,0.66573810577393
710,2279552096,0.626309,0.388518,-0.577401,0.351283,9.85905647277832,0.81825411319733,0.25826305150986,0.82880139350891,0.40133821964264,0.63574558496475
711,2279568763,0.626335,0.388476,-0.577391,0.351299,9.85955810546875,0.82697808742523,0.24647429585457,1.01938533782959,0.24944205582142,0.47917518019676
712,2279585430,0.626328,0.388459,-0.577400,0.351315,9.84801578521729,0.81737720966339,0.28122261166573,1.04875040054321,-0.03279065713286,0.50708019733429
713,2279602097,0.626313,0.388410,-0.577459,0.351298,9.86809825897217,0.81183254718781,0.29403522610664,0.90889233350754,-0.27282008528709,0.65270125865936
714,2279618764,0.626306,0.388367,-0.577499,0.351293,9.87074279785156,0.81434744596481,0.31018748879433,0.72656822204590,-0.16118712723255,0.60155266523361
715,2279635431,0.626313,0.388296,-0.577538,0.351295,9.87528133392334,0.80801540613174,0.30183321237564,0.85080265998840,-0.00132545724045,0.70824241638184
716,2279652098,0.626311,0.388250,-0.577555,0.351322,9.87162208557129,0.81598520278931,0.29672214388847,0.94728577136993,0.05944707989693,0.68096482753754
717,2279668765,0.626327,0.388203,-0.577549,0.351355,9.88895416259766,0.82226914167404,0.32340452075005,1.07318496704102,0.24949328601360,0.60955667495728
718,2279685432,0.626332,0.388185,-0.577529,0.351399,9.91018676757812,0.80703800916672,0.37024402618408,1.14419603347778,0.20998571813107,0.52175629138947
719,2279702099,0.626367,0.388165,-0.577480,0.351440,9.88361263275146,0.80421519279480,0.33192038536072,1.21769177913666,0.46435827016830,0.37415033578873
720,2279718766,0.626398,0.388158,-0.577419,0.351492,9.86882972717285,0.80172646045685,0.29923880100250,1.37305843830109,0.49988308548927,0.34360715746880
721,2279735433,0.626429,0.388136,-0.577372,0.351537,9.85683727264404,0.78931051492691,0.31666556000710,1.20783090591431,0.44987425208092,0.41300481557846
722,2279752100,0.626464,0.388075,-0.577366,0.351554,9.85922431945801,0.80186438560486,0.30079382658005,0.69114595651627,0.29805499315262,0.53739291429520
723,2279768767,0.626495,0.387951,-0.577412,0.351560,9.86768722534180,0.84385728836060,0.36404040455818,0.39465335011482,0.19546332955360,0.89977425336838
724,2279785434,0.626555,0.387868,-0.577392,0.351576,9.89937114715576,0.87664455175400,0.38881155848503,0.61850827932358,0.51651841402054,0.52288323640823
725,2279802101,0.626694,0.387823,-0.577277,0.351567,9.91045665740967,0.82827299833298,0.31792169809341,0.91598707437515,1.09083211421967,-0.16406854987144
726,2279818768,0.626839,0.387839,-0.577116,0.351556,9.86307144165039,0.79075217247009,0.33059573173523,1.16473746299744,1.15989661216736,-0.55691617727280
727,2279835435,0.626832,0.388022,-0.576929,0.351671,9.87737274169922,0.76636606454849,0.20136386156082,2.88533473014832,0.60230821371078,-0.38036778569221
728,2279852102,0.626741,0.388300,-0.576854,0.351652,9.85816097259521,0.79643976688385,0.46965360641479,2.65991735458374,-0.80529528856277,-0.83180439472198
729,2279868769,0.626920,0.388322,-0.576644,0.351652,9.91422080993652,0.76138132810593,0.34082683920860,1.23229086399078,1.50918984413147,-0.75089389085770
730,2279885436,0.627127,0.388070,-0.576764,0.351365,9.85045909881592,0.71438807249069,0.31104847788811,-1.95972347259521,0.10444857180119,-0.08542474359274
731,2279902103,0.627223,0.387964,-0.576772,0.351297,9.82672119140625,0.78706222772598,0.30029755830765,0.13108578324318,0.37316420674324,0.24962134659290
732,2279918770,0.627156,0.387976,-0.576832,0.351305,9.89927768707275,0.79084497690201,0.32539939880371,1.15716898441315,-0.57736790180206,0.63601458072662
733,2279935437,0.627069,0.388114,-0.576756,0.351434,9.93099594116211,0.78598445653915,0.33044394850731,2.57211661338806,-0.05764777958393,0.34486219286919
734,2279952104,0.627009,0.388327,-0.576617,0.351533,9.84875488281250,0.81542003154755,0.32075634598732,2.96353030204773,0.06883413344622,-0.30888277292252
735,2279968771,0.626993,0.388507,-0.576494,0.351564,9.87550640106201,0.81689280271530,0.32117316126823,2.42987680435181,0.07558307796717,-0.54124116897583
736,2279985438,0.627039,0.388607,-0.576395,0.351533,9.88534069061279,0.82181257009506,0.31705611944199,1.56019747257233,0.23901769518852,-0.56878757476807
737,2280002105,0.627077,0.388679,-0.576315,0.351517,9.85932159423828,0.81226396560669,0.31930753588676,1.48405098915100,0.23883840441704,-0.33158838748932
738,2280018772,0.627073,0.388824,-0.576198,0.351556,9.86339282989502,0.81556767225266,0.24423605203629,2.24706649780273,0.20122617483139,-0.37667959928513
739,2280035439,0.627050,0.388949,-0.576104,0.351612,9.82848548889160,0.78619074821472,0.29875832796097,2.15433549880981,0.10750931501389,-0.11750467121601
740,2280052106,0.627018,0.389007,-0.576051,0.351691,9.82052993774414,0.79580563306808,0.28666055202484,1.90900397300720,0.13162364065647,0.37838917970657
741,2280068773,0.627014,0.389011,-0.576021,0.351743,9.80731487274170,0.82401198148727,0.28769144415855,1.37641370296478,0.19984309375286,0.46987780928612
742,2280085440,0.626995,0.389009,-0.576058,0.351719,9.84582710266113,0.83388555049896,0.30587071180344,1.12781679630280,-0.32788735628128,0.38118097186089
743,2280102107,0.626948,0.389030,-0.576082,0.351739,9.87055683135986,0.85316306352615,0.35866153240204,1.31850337982178,-0.33778667449951,0.50938534736633
744,2280118774,0.626904,0.389057,-0.576084,0.351786,9.87914848327637,0.83730977773666,0.35193699598312,1.68951630592346,-0.15238918364048,0.54722821712494
745,2280135441,0.626835,0.389122,-0.576045,0.351900,9.87810993194580,0.80542832612991,0.22691759467125,2.22133803367615,0.00239478750154,0.62886857986450
746,2280152108,0.626847,0.389055,-0.576070,0.351914,9.84887790679932,0.87405610084534,0.47376090288162,0.81836408376694,0.09690564125776,0.69471883773804
747,2280168775,0.626889,0.388929,-0.576116,0.351903,9.84667301177979,0.83713257312775,0.27159178256989,0.54848307371140,0.21824580430984,0.81189686059952
748,2280185442,0.626841,0.388887,-0.576194,0.351905,9.83852481842041,0.83167368173599,0.31905943155289,0.98359167575836,-0.45907562971115,0.83667725324631
749,2280202109,0.626767,0.388961,-0.576186,0.351969,9.81640625000000,0.81611311435699,0.33048030734062,1.95974266529083,-0.30509203672409,0.46898129582405
750,2280218776,0.626629,0.389037,-0.576262,0.352007,9.82686519622803,0.81125169992447,0.34876665472984,1.91979992389679,-0.99208873510361,0.73160117864609
751,2280235443,0.626505,0.389051,-0.576370,0.352035,9.85978507995605,0.85419446229935,0.36276495456696,1.35838222503662,-0.96104604005814,0.98678040504456
752,2280252110,0.626440,0.389000,-0.576496,0.351999,9.85404396057129,0.85208845138550,0.32344594597816,0.69768989086151,-0.81059712171555,0.87653064727783
753,2280268777,0.626426,0.388873,-0.576657,0.351902,9.86693477630615,0.86155629158020,0.35703313350677,-0.06599751859903,-0.73501402139664,0.88785129785538
754,2280285444,0.626409,0.388794,-0.576772,0.351831,9.88989162445068,0.86370480060577,0.37521940469742,0.24886578321457,-0.61179131269455,0.68252718448639
755,2280302111,0.626384,0.388776,-0.576832,0.351797,9.88484096527100,0.82656574249268,0.37084245681763,0.74079608917236,-0.45691132545471,0.48177486658096
756,2280318778,0.626391,0.388733,-0.576872,0.351767,9.86856460571289,0.76700776815414,0.35851413011551,0.80393135547638,-0.15944544970989,0.46588218212128
757,2280335445,0.626363,0.388678,-0.576952,0.351747,9.88218402862549,0.78630954027176,0.32620784640312,0.64654135704041,-0.42338430881500,0.74321645498276
758,2280352112,0.626353,0.388571,-0.577067,0.351693,9.86493301391602,0.79740911722183,0.31049281358719,0.44563534855843,-0.44466844201088,0.85432434082031
759,2280368779,0.626345,0.388469,-0.577198,0.351606,9.87488079071045,0.80883741378784,0.33568766713142,0.18660131096840,-0.61483925580978,0.74025821685791
760,2280385446,0.626317,0.388379,-0.577321,0.351551,9.87831020355225,0.81593638658524,0.34909412264824,0.42642581462860,-0.60712981224060,0.85107159614563
761,2280402113,0.626264,0.388404,-0.577382,0.351519,9.86753749847412,0.80112421512604,0.31190368533134,1.14484918117523,-0.65943092107773,0.38463872671127
762,2280418780,0.626186,0.388460,-0.577419,0.351536,9.87721538543701,0.76880741119385,0.30435341596603,1.46893942356110,-0.60814148187637,0.46656090021133
763,2280435447,0.626122,0.388453,-0.577504,0.351518,9.87481403350830,0.79118168354034,0.31197860836983,0.99542474746704,-0.69209992885590,0.66923421621323
764,2280452114,0.626081,0.388383,-0.577612,0.351491,9.88844871520996,0.81922286748886,0.30347651243210,0.60248756408691,-0.58009564876556,0.88365095853806
765,2280468781,0.626058,0.388291,-0.577713,0.351467,9.86737060546875,0.81254225969315,0.32256600260735,0.47246462106705,-0.41024500131607,0.91323357820511
766,2280485448,0.626038,0.388247,-0.577784,0.351436,9.87606906890869,0.81171739101410,0.29257190227509,0.72795134782791,-0.40345761179924,0.61633116006851
767,2280502115,0.626008,0.388250,-0.577829,0.351411,9.88305664062500,0.80526727437973,0.31745293736458,1.01182973384857,-0.42791774868965,0.40375858545303
768,2280518782,0.625991,0.388249,-0.577853,0.351403,9.90863800048828,0.80198407173157,0.34935218095779,1.10272920131683,-0.23434980213642,0.40396350622177
769,2280535449,0.626007,0.388214,-0.577859,0.351403,9.89279174804688,0.79104161262512,0.34339982271194,0.88108974695206,0.07472505420446,0.44952854514122
770,2280552116,0.626034,0.388170,-0.577874,0.351379,9.86927223205566,0.78110742568970,0.29887437820435,0.75385856628418,0.04191518202424,0.37691646814346
771,2280568783,0.626036,0.388140,-0.577891,0.351380,9.86184692382812,0.79331254959106,0.30267545580864,0.87332898378372,-0.04248506948352,0.49604111909866
772,2280585450,0.626044,0.388131,-0.577904,0.351355,9.87184524536133,0.78859728574753,0.28234836459160,0.96057873964310,-0.11284315586090,0.27354359626770
773,2280602117,0.626040,0.388123,-0.577933,0.351323,9.85972213745117,0.77183717489243,0.30438846349716,0.89200061559677,-0.24860325455666,0.31422939896584
